"success","timeout","failed_images","failed_audio","failed_video","trial_type","trial_index","time_elapsed","internal_node_id","subject_id","study_id","session_id","view_history","rt","stimulus","response","task","image_index","folder","sequence_type","valuable_image_index","reward_type","chosen_image_index","target_X","correct_choice"
"true","false","[]","[]","[]","preload","0","3280","0.0-0.0","A37D6C13BEC34DB69E7F039AEE2FE2D4","019cf53b-9a0c-74e8-87c4-1a6faad8ac96","019cf509-e3f1-72d9-bf6b-e2f1118fdaab","","","","","","","","","","","","",""
"","","","","","instructions","1","4505","0.0-1.0","A37D6C13BEC34DB69E7F039AEE2FE2D4","019cf53b-9a0c-74e8-87c4-1a6faad8ac96","019cf509-e3f1-72d9-bf6b-e2f1118fdaab","[{""page_index"":0,""viewing_time"":1225}]","1226","","","","","","","","","","",""
"","","","","","instructions","2","8497","0.0-2.0","A37D6C13BEC34DB69E7F039AEE2FE2D4","019cf53b-9a0c-74e8-87c4-1a6faad8ac96","019cf509-e3f1-72d9-bf6b-e2f1118fdaab","[{""page_index"":0,""viewing_time"":3992}]","3992","","","","","","","","","","",""
"true","","","","","fullscreen","3","10815","0.0-3.0","A37D6C13BEC34DB69E7F039AEE2FE2D4","019cf53b-9a0c-74e8-87c4-1a6faad8ac96","019cf509-e3f1-72d9-bf6b-e2f1118fdaab","","1311","","","","","","","","","","",""
"","","","","","instructions","4","17601","0.0-4.0","A37D6C13BEC34DB69E7F039AEE2FE2D4","019cf53b-9a0c-74e8-87c4-1a6faad8ac96","019cf509-e3f1-72d9-bf6b-e2f1118fdaab","[{""page_index"":0,""viewing_time"":6786}]","6786","","","","","","","","","","",""
"","","","","","instructions","5","19089","0.0-5.0","A37D6C13BEC34DB69E7F039AEE2FE2D4","019cf53b-9a0c-74e8-87c4-1a6faad8ac96","019cf509-e3f1-72d9-bf6b-e2f1118fdaab","[{""page_index"":0,""viewing_time"":1488}]","1488","","","","","","","","","","",""
"","","","","","html-keyboard-response","6","23094","0.0-6.0","A37D6C13BEC34DB69E7F039AEE2FE2D4","019cf53b-9a0c-74e8-87c4-1a6faad8ac96","019cf509-e3f1-72d9-bf6b-e2f1118fdaab","","null","
                <div class=""stimulus-container"">
                    <img src=""images/instructions/movie_1.png"" class=""exp-image"">
                    <div class=""question-area""></div> 
                </div>","null","","","","","","","","",""
"","","","","","html-button-response","7","23545","0.0-7.0","A37D6C13BEC34DB69E7F039AEE2FE2D4","019cf53b-9a0c-74e8-87c4-1a6faad8ac96","019cf509-e3f1-72d9-bf6b-e2f1118fdaab","","450","
                <div class=""stimulus-container"">
                    <img src=""images/instructions/movie_1.png"" class=""exp-image"">
                    <div class=""question-area"">
                        <p style=""font-size: 20px; font-weight: bold; margin: 0;"">Was there a person in this image?</p>
                    </div>
                </div>","0","example_question","1","","","","","","",""
"","","","","","html-keyboard-response","8","27549","0.0-8.0","A37D6C13BEC34DB69E7F039AEE2FE2D4","019cf53b-9a0c-74e8-87c4-1a6faad8ac96","019cf509-e3f1-72d9-bf6b-e2f1118fdaab","","null","
                <div class=""stimulus-container"">
                    <img src=""images/instructions/movie_2.png"" class=""exp-image"">
                    <div class=""question-area""></div> 
                </div>","null","","","","","","","","",""
"","","","","","html-button-response","9","29273","0.0-9.0","A37D6C13BEC34DB69E7F039AEE2FE2D4","019cf53b-9a0c-74e8-87c4-1a6faad8ac96","019cf509-e3f1-72d9-bf6b-e2f1118fdaab","","1724","
                <div class=""stimulus-container"">
                    <img src=""images/instructions/movie_2.png"" class=""exp-image"">
                    <div class=""question-area"">
                        <p style=""font-size: 20px; font-weight: bold; margin: 0;"">Was there a person in this image?</p>
                    </div>
                </div>","0","example_question","2","","","","","","",""
"","","","","","html-keyboard-response","10","33280","0.0-10.0","A37D6C13BEC34DB69E7F039AEE2FE2D4","019cf53b-9a0c-74e8-87c4-1a6faad8ac96","019cf509-e3f1-72d9-bf6b-e2f1118fdaab","","null","
                <div class=""stimulus-container"">
                    <img src=""images/instructions/movie_3.png"" class=""exp-image"">
                    <div class=""question-area""></div> 
                </div>","null","","","","","","","","",""
"","","","","","html-button-response","11","33673","0.0-11.0","A37D6C13BEC34DB69E7F039AEE2FE2D4","019cf53b-9a0c-74e8-87c4-1a6faad8ac96","019cf509-e3f1-72d9-bf6b-e2f1118fdaab","","392","
                <div class=""stimulus-container"">
                    <img src=""images/instructions/movie_3.png"" class=""exp-image"">
                    <div class=""question-area"">
                        <p style=""font-size: 20px; font-weight: bold; margin: 0;"">Was there a person in this image?</p>
                    </div>
                </div>","0","example_question","3","","","","","","",""
"","","","","","html-keyboard-response","12","37688","0.0-12.0","A37D6C13BEC34DB69E7F039AEE2FE2D4","019cf53b-9a0c-74e8-87c4-1a6faad8ac96","019cf509-e3f1-72d9-bf6b-e2f1118fdaab","","null","
                <div class=""stimulus-container"">
                    <img src=""images/instructions/movie_4.png"" class=""exp-image"">
                    <div class=""question-area""></div> 
                </div>","null","","","","","","","","",""
"","","","","","html-button-response","13","38025","0.0-13.0","A37D6C13BEC34DB69E7F039AEE2FE2D4","019cf53b-9a0c-74e8-87c4-1a6faad8ac96","019cf509-e3f1-72d9-bf6b-e2f1118fdaab","","336","
                <div class=""stimulus-container"">
                    <img src=""images/instructions/movie_4.png"" class=""exp-image"">
                    <div class=""question-area"">
                        <p style=""font-size: 20px; font-weight: bold; margin: 0;"">Was there a person in this image?</p>
                    </div>
                </div>","0","example_question","4","","","","","","",""
"","","","","","instructions","14","39161","0.0-14.0","A37D6C13BEC34DB69E7F039AEE2FE2D4","019cf53b-9a0c-74e8-87c4-1a6faad8ac96","019cf509-e3f1-72d9-bf6b-e2f1118fdaab","[{""page_index"":0,""viewing_time"":1136}]","1136","","","","","","","","","","",""
"","","","","","instructions","15","45176","0.0-15.0","A37D6C13BEC34DB69E7F039AEE2FE2D4","019cf53b-9a0c-74e8-87c4-1a6faad8ac96","019cf509-e3f1-72d9-bf6b-e2f1118fdaab","[{""page_index"":0,""viewing_time"":6015}]","6015","","","","","","","","","","",""
"","","","","","html-keyboard-response","16","46182","0.0-16.0","A37D6C13BEC34DB69E7F039AEE2FE2D4","019cf53b-9a0c-74e8-87c4-1a6faad8ac96","019cf509-e3f1-72d9-bf6b-e2f1118fdaab","","null","<div style=""background-color: white; width: 100vw; height: 100vh;""></div>","null","","","","","","","","",""
"","","","","","html-keyboard-response","17","51186","0.0-17.0","A37D6C13BEC34DB69E7F039AEE2FE2D4","019cf53b-9a0c-74e8-87c4-1a6faad8ac96","019cf509-e3f1-72d9-bf6b-e2f1118fdaab","","null","
                <div class=""stimulus-container"">
                    <img src=""images/schematic_sequence/dinner_party_scheme/dinner_party_scheme_1.png"" class=""exp-image"">
                    <div class=""question-area""></div> 
                </div>","null","","","","","","","","",""
"","","","","","html-button-response","18","52024","0.0-18.0","A37D6C13BEC34DB69E7F039AEE2FE2D4","019cf53b-9a0c-74e8-87c4-1a6faad8ac96","019cf509-e3f1-72d9-bf6b-e2f1118fdaab","","837","
                <div class=""stimulus-container"">
                    <img src=""images/schematic_sequence/dinner_party_scheme/dinner_party_scheme_1.png"" class=""exp-image"">
                    <div class=""question-area"">
                        <p style=""font-size: 20px; font-weight: bold; margin: 0;"">Is there a person in this image?</p>
                    </div>
                </div>","0","main_experiment_trial","1","dinner_party_scheme","schematic_sequence","","","","",""
"","","","","","html-keyboard-response","19","57036","0.0-19.0","A37D6C13BEC34DB69E7F039AEE2FE2D4","019cf53b-9a0c-74e8-87c4-1a6faad8ac96","019cf509-e3f1-72d9-bf6b-e2f1118fdaab","","null","
                <div class=""stimulus-container"">
                    <img src=""images/schematic_sequence/dinner_party_scheme/dinner_party_scheme_2.png"" class=""exp-image"">
                    <div class=""question-area""></div> 
                </div>","null","","","","","","","","",""
"","","","","","html-button-response","20","57392","0.0-20.0","A37D6C13BEC34DB69E7F039AEE2FE2D4","019cf53b-9a0c-74e8-87c4-1a6faad8ac96","019cf509-e3f1-72d9-bf6b-e2f1118fdaab","","356","
                <div class=""stimulus-container"">
                    <img src=""images/schematic_sequence/dinner_party_scheme/dinner_party_scheme_2.png"" class=""exp-image"">
                    <div class=""question-area"">
                        <p style=""font-size: 20px; font-weight: bold; margin: 0;"">Is there a person in this image?</p>
                    </div>
                </div>","0","main_experiment_trial","2","dinner_party_scheme","schematic_sequence","","","","",""
"","","","","","html-keyboard-response","21","62405","0.0-21.0","A37D6C13BEC34DB69E7F039AEE2FE2D4","019cf53b-9a0c-74e8-87c4-1a6faad8ac96","019cf509-e3f1-72d9-bf6b-e2f1118fdaab","","null","
                <div class=""stimulus-container"">
                    <img src=""images/schematic_sequence/dinner_party_scheme/dinner_party_scheme_3.png"" class=""exp-image"">
                    <div class=""question-area""></div> 
                </div>","null","","","","","","","","",""
"","","","","","html-button-response","22","62800","0.0-22.0","A37D6C13BEC34DB69E7F039AEE2FE2D4","019cf53b-9a0c-74e8-87c4-1a6faad8ac96","019cf509-e3f1-72d9-bf6b-e2f1118fdaab","","395","
                <div class=""stimulus-container"">
                    <img src=""images/schematic_sequence/dinner_party_scheme/dinner_party_scheme_3.png"" class=""exp-image"">
                    <div class=""question-area"">
                        <p style=""font-size: 20px; font-weight: bold; margin: 0;"">Is there a person in this image?</p>
                    </div>
                </div>","0","main_experiment_trial","3","dinner_party_scheme","schematic_sequence","","","","",""
"","","","","","html-keyboard-response","23","67811","0.0-23.0","A37D6C13BEC34DB69E7F039AEE2FE2D4","019cf53b-9a0c-74e8-87c4-1a6faad8ac96","019cf509-e3f1-72d9-bf6b-e2f1118fdaab","","null","
                <div class=""stimulus-container"">
                    <img src=""images/schematic_sequence/dinner_party_scheme/dinner_party_scheme_4.png"" class=""exp-image"">
                    <div class=""question-area""></div> 
                </div>","null","","","","","","","","",""
"","","","","","html-button-response","24","68152","0.0-24.0","A37D6C13BEC34DB69E7F039AEE2FE2D4","019cf53b-9a0c-74e8-87c4-1a6faad8ac96","019cf509-e3f1-72d9-bf6b-e2f1118fdaab","","341","
                <div class=""stimulus-container"">
                    <img src=""images/schematic_sequence/dinner_party_scheme/dinner_party_scheme_4.png"" class=""exp-image"">
                    <div class=""question-area"">
                        <p style=""font-size: 20px; font-weight: bold; margin: 0;"">Is there a person in this image?</p>
                    </div>
                </div>","0","main_experiment_trial","4","dinner_party_scheme","schematic_sequence","","","","",""
"","","","","","html-keyboard-response","25","73165","0.0-25.0","A37D6C13BEC34DB69E7F039AEE2FE2D4","019cf53b-9a0c-74e8-87c4-1a6faad8ac96","019cf509-e3f1-72d9-bf6b-e2f1118fdaab","","null","
                <div class=""stimulus-container"">
                    <img src=""images/schematic_sequence/dinner_party_scheme/dinner_party_scheme_5.png"" class=""exp-image"">
                    <div class=""question-area""></div> 
                </div>","null","","","","","","","","",""
"","","","","","html-button-response","26","73489","0.0-26.0","A37D6C13BEC34DB69E7F039AEE2FE2D4","019cf53b-9a0c-74e8-87c4-1a6faad8ac96","019cf509-e3f1-72d9-bf6b-e2f1118fdaab","","323","
                <div class=""stimulus-container"">
                    <img src=""images/schematic_sequence/dinner_party_scheme/dinner_party_scheme_5.png"" class=""exp-image"">
                    <div class=""question-area"">
                        <p style=""font-size: 20px; font-weight: bold; margin: 0;"">Is there a person in this image?</p>
                    </div>
                </div>","0","main_experiment_trial","5","dinner_party_scheme","schematic_sequence","","","","",""
"","","","","","html-keyboard-response","27","78493","0.0-27.0","A37D6C13BEC34DB69E7F039AEE2FE2D4","019cf53b-9a0c-74e8-87c4-1a6faad8ac96","019cf509-e3f1-72d9-bf6b-e2f1118fdaab","","null","
                <div class=""stimulus-container"">
                    <img src=""images/schematic_sequence/dinner_party_scheme/dinner_party_scheme_6.png"" class=""exp-image"">
                    <div class=""question-area""></div> 
                </div>","null","","","","","","","","",""
"","","","","","html-button-response","28","78841","0.0-28.0","A37D6C13BEC34DB69E7F039AEE2FE2D4","019cf53b-9a0c-74e8-87c4-1a6faad8ac96","019cf509-e3f1-72d9-bf6b-e2f1118fdaab","","347","
                <div class=""stimulus-container"">
                    <img src=""images/schematic_sequence/dinner_party_scheme/dinner_party_scheme_6.png"" class=""exp-image"">
                    <div class=""question-area"">
                        <p style=""font-size: 20px; font-weight: bold; margin: 0;"">Is there a person in this image?</p>
                    </div>
                </div>","0","main_experiment_trial","6","dinner_party_scheme","schematic_sequence","","","","",""
"","","","","","html-keyboard-response","29","83845","0.0-29.0","A37D6C13BEC34DB69E7F039AEE2FE2D4","019cf53b-9a0c-74e8-87c4-1a6faad8ac96","019cf509-e3f1-72d9-bf6b-e2f1118fdaab","","null","
                <div class=""stimulus-container"">
                    <img src=""images/schematic_sequence/dinner_party_scheme/dinner_party_scheme_7.png"" class=""exp-image"">
                    <div class=""question-area""></div> 
                </div>","null","","","","","","","","",""
"","","","","","html-button-response","30","84177","0.0-30.0","A37D6C13BEC34DB69E7F039AEE2FE2D4","019cf53b-9a0c-74e8-87c4-1a6faad8ac96","019cf509-e3f1-72d9-bf6b-e2f1118fdaab","","331","
                <div class=""stimulus-container"">
                    <img src=""images/schematic_sequence/dinner_party_scheme/dinner_party_scheme_7.png"" class=""exp-image"">
                    <div class=""question-area"">
                        <p style=""font-size: 20px; font-weight: bold; margin: 0;"">Is there a person in this image?</p>
                    </div>
                </div>","0","main_experiment_trial","7","dinner_party_scheme","schematic_sequence","","","","",""
"","","","","","html-keyboard-response","31","89181","0.0-31.0","A37D6C13BEC34DB69E7F039AEE2FE2D4","019cf53b-9a0c-74e8-87c4-1a6faad8ac96","019cf509-e3f1-72d9-bf6b-e2f1118fdaab","","null","
                <div class=""stimulus-container"">
                    <img src=""images/schematic_sequence/dinner_party_scheme/dinner_party_scheme_8.png"" class=""exp-image"">
                    <div class=""question-area""></div> 
                </div>","null","","","","","","","","",""
"","","","","","html-button-response","32","89537","0.0-32.0","A37D6C13BEC34DB69E7F039AEE2FE2D4","019cf53b-9a0c-74e8-87c4-1a6faad8ac96","019cf509-e3f1-72d9-bf6b-e2f1118fdaab","","355","
                <div class=""stimulus-container"">
                    <img src=""images/schematic_sequence/dinner_party_scheme/dinner_party_scheme_8.png"" class=""exp-image"">
                    <div class=""question-area"">
                        <p style=""font-size: 20px; font-weight: bold; margin: 0;"">Is there a person in this image?</p>
                    </div>
                </div>","0","main_experiment_trial","8","dinner_party_scheme","schematic_sequence","","","","",""
"","","","","","html-keyboard-response","33","94543","0.0-33.0","A37D6C13BEC34DB69E7F039AEE2FE2D4","019cf53b-9a0c-74e8-87c4-1a6faad8ac96","019cf509-e3f1-72d9-bf6b-e2f1118fdaab","","null","
                <div class=""stimulus-container"">
                    <img src=""images/schematic_sequence/dinner_party_scheme/dinner_party_scheme_9.png"" class=""exp-image"">
                    <div class=""question-area""></div> 
                </div>","null","","","","","","","","",""
"","","","","","html-button-response","34","94921","0.0-34.0","A37D6C13BEC34DB69E7F039AEE2FE2D4","019cf53b-9a0c-74e8-87c4-1a6faad8ac96","019cf509-e3f1-72d9-bf6b-e2f1118fdaab","","377","
                <div class=""stimulus-container"">
                    <img src=""images/schematic_sequence/dinner_party_scheme/dinner_party_scheme_9.png"" class=""exp-image"">
                    <div class=""question-area"">
                        <p style=""font-size: 20px; font-weight: bold; margin: 0;"">Is there a person in this image?</p>
                    </div>
                </div>","0","main_experiment_trial","9","dinner_party_scheme","schematic_sequence","","","","",""
"","","","","","html-keyboard-response","35","99930","0.0-35.0","A37D6C13BEC34DB69E7F039AEE2FE2D4","019cf53b-9a0c-74e8-87c4-1a6faad8ac96","019cf509-e3f1-72d9-bf6b-e2f1118fdaab","","null","
                <div class=""stimulus-container"">
                    <img src=""images/schematic_sequence/dinner_party_scheme/dinner_party_scheme_ten.png"" class=""exp-image"">
                    <div class=""question-area""></div> 
                </div>","null","","","","","","","","",""
"","","","","","html-button-response","36","100248","0.0-36.0","A37D6C13BEC34DB69E7F039AEE2FE2D4","019cf53b-9a0c-74e8-87c4-1a6faad8ac96","019cf509-e3f1-72d9-bf6b-e2f1118fdaab","","317","
                <div class=""stimulus-container"">
                    <img src=""images/schematic_sequence/dinner_party_scheme/dinner_party_scheme_ten.png"" class=""exp-image"">
                    <div class=""question-area"">
                        <p style=""font-size: 20px; font-weight: bold; margin: 0;"">Is there a person in this image?</p>
                    </div>
                </div>","0","main_experiment_trial","ten","dinner_party_scheme","schematic_sequence","","","","",""
"","","","","","html-keyboard-response","37","101251","0.0-37.0","A37D6C13BEC34DB69E7F039AEE2FE2D4","019cf53b-9a0c-74e8-87c4-1a6faad8ac96","019cf509-e3f1-72d9-bf6b-e2f1118fdaab","","null","<div style=""background-color: white; width: 100vw; height: 100vh;""></div>","null","","","","","","","","",""
"","","","","","html-keyboard-response","38","106252","0.0-38.0","A37D6C13BEC34DB69E7F039AEE2FE2D4","019cf53b-9a0c-74e8-87c4-1a6faad8ac96","019cf509-e3f1-72d9-bf6b-e2f1118fdaab","","null","
                <div class=""stimulus-container"">
                    <img src=""images/causal_sequence/saving_a_cat_causal/saving_a_cat_causal_1.png"" class=""exp-image"">
                    <div class=""question-area""></div> 
                </div>","null","","","","","","","","",""
"","","","","","html-button-response","39","106768","0.0-39.0","A37D6C13BEC34DB69E7F039AEE2FE2D4","019cf53b-9a0c-74e8-87c4-1a6faad8ac96","019cf509-e3f1-72d9-bf6b-e2f1118fdaab","","516","
                <div class=""stimulus-container"">
                    <img src=""images/causal_sequence/saving_a_cat_causal/saving_a_cat_causal_1.png"" class=""exp-image"">
                    <div class=""question-area"">
                        <p style=""font-size: 20px; font-weight: bold; margin: 0;"">Is there a person in this image?</p>
                    </div>
                </div>","0","main_experiment_trial","1","saving_a_cat_causal","causal_sequence","","","","",""
"","","","","","html-keyboard-response","40","111770","0.0-40.0","A37D6C13BEC34DB69E7F039AEE2FE2D4","019cf53b-9a0c-74e8-87c4-1a6faad8ac96","019cf509-e3f1-72d9-bf6b-e2f1118fdaab","","null","
                <div class=""stimulus-container"">
                    <img src=""images/causal_sequence/saving_a_cat_causal/saving_a_cat_causal_2.png"" class=""exp-image"">
                    <div class=""question-area""></div> 
                </div>","null","","","","","","","","",""
"","","","","","html-button-response","41","112176","0.0-41.0","A37D6C13BEC34DB69E7F039AEE2FE2D4","019cf53b-9a0c-74e8-87c4-1a6faad8ac96","019cf509-e3f1-72d9-bf6b-e2f1118fdaab","","405","
                <div class=""stimulus-container"">
                    <img src=""images/causal_sequence/saving_a_cat_causal/saving_a_cat_causal_2.png"" class=""exp-image"">
                    <div class=""question-area"">
                        <p style=""font-size: 20px; font-weight: bold; margin: 0;"">Is there a person in this image?</p>
                    </div>
                </div>","0","main_experiment_trial","2","saving_a_cat_causal","causal_sequence","","","","",""
"","","","","","html-keyboard-response","42","117192","0.0-42.0","A37D6C13BEC34DB69E7F039AEE2FE2D4","019cf53b-9a0c-74e8-87c4-1a6faad8ac96","019cf509-e3f1-72d9-bf6b-e2f1118fdaab","","null","
                <div class=""stimulus-container"">
                    <img src=""images/causal_sequence/saving_a_cat_causal/saving_a_cat_causal_3.png"" class=""exp-image"">
                    <div class=""question-area""></div> 
                </div>","null","","","","","","","","",""
"","","","","","html-button-response","43","117632","0.0-43.0","A37D6C13BEC34DB69E7F039AEE2FE2D4","019cf53b-9a0c-74e8-87c4-1a6faad8ac96","019cf509-e3f1-72d9-bf6b-e2f1118fdaab","","439","
                <div class=""stimulus-container"">
                    <img src=""images/causal_sequence/saving_a_cat_causal/saving_a_cat_causal_3.png"" class=""exp-image"">
                    <div class=""question-area"">
                        <p style=""font-size: 20px; font-weight: bold; margin: 0;"">Is there a person in this image?</p>
                    </div>
                </div>","1","main_experiment_trial","3","saving_a_cat_causal","causal_sequence","","","","",""
"","","","","","html-keyboard-response","44","122648","0.0-44.0","A37D6C13BEC34DB69E7F039AEE2FE2D4","019cf53b-9a0c-74e8-87c4-1a6faad8ac96","019cf509-e3f1-72d9-bf6b-e2f1118fdaab","","null","
                <div class=""stimulus-container"">
                    <img src=""images/causal_sequence/saving_a_cat_causal/saving_a_cat_causal_4.png"" class=""exp-image"">
                    <div class=""question-area""></div> 
                </div>","null","","","","","","","","",""
"","","","","","html-button-response","45","123008","0.0-45.0","A37D6C13BEC34DB69E7F039AEE2FE2D4","019cf53b-9a0c-74e8-87c4-1a6faad8ac96","019cf509-e3f1-72d9-bf6b-e2f1118fdaab","","358","
                <div class=""stimulus-container"">
                    <img src=""images/causal_sequence/saving_a_cat_causal/saving_a_cat_causal_4.png"" class=""exp-image"">
                    <div class=""question-area"">
                        <p style=""font-size: 20px; font-weight: bold; margin: 0;"">Is there a person in this image?</p>
                    </div>
                </div>","0","main_experiment_trial","4","saving_a_cat_causal","causal_sequence","","","","",""
"","","","","","html-keyboard-response","46","128018","0.0-46.0","A37D6C13BEC34DB69E7F039AEE2FE2D4","019cf53b-9a0c-74e8-87c4-1a6faad8ac96","019cf509-e3f1-72d9-bf6b-e2f1118fdaab","","null","
                <div class=""stimulus-container"">
                    <img src=""images/causal_sequence/saving_a_cat_causal/saving_a_cat_causal_5.png"" class=""exp-image"">
                    <div class=""question-area""></div> 
                </div>","null","","","","","","","","",""
"","","","","","html-button-response","47","128472","0.0-47.0","A37D6C13BEC34DB69E7F039AEE2FE2D4","019cf53b-9a0c-74e8-87c4-1a6faad8ac96","019cf509-e3f1-72d9-bf6b-e2f1118fdaab","","453","
                <div class=""stimulus-container"">
                    <img src=""images/causal_sequence/saving_a_cat_causal/saving_a_cat_causal_5.png"" class=""exp-image"">
                    <div class=""question-area"">
                        <p style=""font-size: 20px; font-weight: bold; margin: 0;"">Is there a person in this image?</p>
                    </div>
                </div>","0","main_experiment_trial","5","saving_a_cat_causal","causal_sequence","","","","",""
"","","","","","html-keyboard-response","48","133480","0.0-48.0","A37D6C13BEC34DB69E7F039AEE2FE2D4","019cf53b-9a0c-74e8-87c4-1a6faad8ac96","019cf509-e3f1-72d9-bf6b-e2f1118fdaab","","null","
                <div class=""stimulus-container"">
                    <img src=""images/causal_sequence/saving_a_cat_causal/saving_a_cat_causal_6.png"" class=""exp-image"">
                    <div class=""question-area""></div> 
                </div>","null","","","","","","","","",""
"","","","","","html-button-response","49","133799","0.0-49.0","A37D6C13BEC34DB69E7F039AEE2FE2D4","019cf53b-9a0c-74e8-87c4-1a6faad8ac96","019cf509-e3f1-72d9-bf6b-e2f1118fdaab","","319","
                <div class=""stimulus-container"">
                    <img src=""images/causal_sequence/saving_a_cat_causal/saving_a_cat_causal_6.png"" class=""exp-image"">
                    <div class=""question-area"">
                        <p style=""font-size: 20px; font-weight: bold; margin: 0;"">Is there a person in this image?</p>
                    </div>
                </div>","0","main_experiment_trial","6","saving_a_cat_causal","causal_sequence","","","","",""
"","","","","","html-keyboard-response","50","138805","0.0-50.0","A37D6C13BEC34DB69E7F039AEE2FE2D4","019cf53b-9a0c-74e8-87c4-1a6faad8ac96","019cf509-e3f1-72d9-bf6b-e2f1118fdaab","","null","
                <div class=""stimulus-container"">
                    <img src=""images/causal_sequence/saving_a_cat_causal/saving_a_cat_causal_7.png"" class=""exp-image"">
                    <div class=""question-area""></div> 
                </div>","null","","","","","","","","",""
"","","","","","html-button-response","51","139168","0.0-51.0","A37D6C13BEC34DB69E7F039AEE2FE2D4","019cf53b-9a0c-74e8-87c4-1a6faad8ac96","019cf509-e3f1-72d9-bf6b-e2f1118fdaab","","362","
                <div class=""stimulus-container"">
                    <img src=""images/causal_sequence/saving_a_cat_causal/saving_a_cat_causal_7.png"" class=""exp-image"">
                    <div class=""question-area"">
                        <p style=""font-size: 20px; font-weight: bold; margin: 0;"">Is there a person in this image?</p>
                    </div>
                </div>","0","main_experiment_trial","7","saving_a_cat_causal","causal_sequence","","","","",""
"","","","","","html-keyboard-response","52","144180","0.0-52.0","A37D6C13BEC34DB69E7F039AEE2FE2D4","019cf53b-9a0c-74e8-87c4-1a6faad8ac96","019cf509-e3f1-72d9-bf6b-e2f1118fdaab","","null","
                <div class=""stimulus-container"">
                    <img src=""images/causal_sequence/saving_a_cat_causal/saving_a_cat_causal_8.png"" class=""exp-image"">
                    <div class=""question-area""></div> 
                </div>","null","","","","","","","","",""
"","","","","","html-button-response","53","144576","0.0-53.0","A37D6C13BEC34DB69E7F039AEE2FE2D4","019cf53b-9a0c-74e8-87c4-1a6faad8ac96","019cf509-e3f1-72d9-bf6b-e2f1118fdaab","","396","
                <div class=""stimulus-container"">
                    <img src=""images/causal_sequence/saving_a_cat_causal/saving_a_cat_causal_8.png"" class=""exp-image"">
                    <div class=""question-area"">
                        <p style=""font-size: 20px; font-weight: bold; margin: 0;"">Is there a person in this image?</p>
                    </div>
                </div>","0","main_experiment_trial","8","saving_a_cat_causal","causal_sequence","","","","",""
"","","","","","html-keyboard-response","54","149579","0.0-54.0","A37D6C13BEC34DB69E7F039AEE2FE2D4","019cf53b-9a0c-74e8-87c4-1a6faad8ac96","019cf509-e3f1-72d9-bf6b-e2f1118fdaab","","null","
                <div class=""stimulus-container"">
                    <img src=""images/causal_sequence/saving_a_cat_causal/saving_a_cat_causal_9.png"" class=""exp-image"">
                    <div class=""question-area""></div> 
                </div>","null","","","","","","","","",""
"","","","","","html-button-response","55","149976","0.0-55.0","A37D6C13BEC34DB69E7F039AEE2FE2D4","019cf53b-9a0c-74e8-87c4-1a6faad8ac96","019cf509-e3f1-72d9-bf6b-e2f1118fdaab","","397","
                <div class=""stimulus-container"">
                    <img src=""images/causal_sequence/saving_a_cat_causal/saving_a_cat_causal_9.png"" class=""exp-image"">
                    <div class=""question-area"">
                        <p style=""font-size: 20px; font-weight: bold; margin: 0;"">Is there a person in this image?</p>
                    </div>
                </div>","0","main_experiment_trial","9","saving_a_cat_causal","causal_sequence","","","","",""
"","","","","","html-keyboard-response","56","154978","0.0-56.0","A37D6C13BEC34DB69E7F039AEE2FE2D4","019cf53b-9a0c-74e8-87c4-1a6faad8ac96","019cf509-e3f1-72d9-bf6b-e2f1118fdaab","","null","
                <div class=""stimulus-container"">
                    <img src=""images/causal_sequence/saving_a_cat_causal/saving_a_cat_causal_ten.png"" class=""exp-image"">
                    <div class=""question-area""></div> 
                </div>","null","","","","","","","","",""
"","","","","","html-button-response","57","155464","0.0-57.0","A37D6C13BEC34DB69E7F039AEE2FE2D4","019cf53b-9a0c-74e8-87c4-1a6faad8ac96","019cf509-e3f1-72d9-bf6b-e2f1118fdaab","","485","
                <div class=""stimulus-container"">
                    <img src=""images/causal_sequence/saving_a_cat_causal/saving_a_cat_causal_ten.png"" class=""exp-image"">
                    <div class=""question-area"">
                        <p style=""font-size: 20px; font-weight: bold; margin: 0;"">Is there a person in this image?</p>
                    </div>
                </div>","0","main_experiment_trial","ten","saving_a_cat_causal","causal_sequence","","","","",""
"","","","","","html-keyboard-response","58","156472","0.0-58.0","A37D6C13BEC34DB69E7F039AEE2FE2D4","019cf53b-9a0c-74e8-87c4-1a6faad8ac96","019cf509-e3f1-72d9-bf6b-e2f1118fdaab","","null","<div style=""background-color: white; width: 100vw; height: 100vh;""></div>","null","","","","","","","","",""
"","","","","","html-keyboard-response","59","161479","0.0-59.0","A37D6C13BEC34DB69E7F039AEE2FE2D4","019cf53b-9a0c-74e8-87c4-1a6faad8ac96","019cf509-e3f1-72d9-bf6b-e2f1118fdaab","","null","
                <div class=""stimulus-container"">
                    <img src=""images/schematic_sequence/restaurant_scheme/restaurant_scheme_1.png"" class=""exp-image"">
                    <div class=""question-area""></div> 
                </div>","null","","","","","","","","",""
"","","","","","html-button-response","60","162143","0.0-60.0","A37D6C13BEC34DB69E7F039AEE2FE2D4","019cf53b-9a0c-74e8-87c4-1a6faad8ac96","019cf509-e3f1-72d9-bf6b-e2f1118fdaab","","664","
                <div class=""stimulus-container"">
                    <img src=""images/schematic_sequence/restaurant_scheme/restaurant_scheme_1.png"" class=""exp-image"">
                    <div class=""question-area"">
                        <p style=""font-size: 20px; font-weight: bold; margin: 0;"">Is there a person in this image?</p>
                    </div>
                </div>","0","main_experiment_trial","1","restaurant_scheme","schematic_sequence","","","","",""
"","","","","","html-keyboard-response","61","167154","0.0-61.0","A37D6C13BEC34DB69E7F039AEE2FE2D4","019cf53b-9a0c-74e8-87c4-1a6faad8ac96","019cf509-e3f1-72d9-bf6b-e2f1118fdaab","","null","
                <div class=""stimulus-container"">
                    <img src=""images/schematic_sequence/restaurant_scheme/restaurant_scheme_2.png"" class=""exp-image"">
                    <div class=""question-area""></div> 
                </div>","null","","","","","","","","",""
"","","","","","html-button-response","62","167527","0.0-62.0","A37D6C13BEC34DB69E7F039AEE2FE2D4","019cf53b-9a0c-74e8-87c4-1a6faad8ac96","019cf509-e3f1-72d9-bf6b-e2f1118fdaab","","372","
                <div class=""stimulus-container"">
                    <img src=""images/schematic_sequence/restaurant_scheme/restaurant_scheme_2.png"" class=""exp-image"">
                    <div class=""question-area"">
                        <p style=""font-size: 20px; font-weight: bold; margin: 0;"">Is there a person in this image?</p>
                    </div>
                </div>","0","main_experiment_trial","2","restaurant_scheme","schematic_sequence","","","","",""
"","","","","","html-keyboard-response","63","172541","0.0-63.0","A37D6C13BEC34DB69E7F039AEE2FE2D4","019cf53b-9a0c-74e8-87c4-1a6faad8ac96","019cf509-e3f1-72d9-bf6b-e2f1118fdaab","","null","
                <div class=""stimulus-container"">
                    <img src=""images/schematic_sequence/restaurant_scheme/restaurant_scheme_3.png"" class=""exp-image"">
                    <div class=""question-area""></div> 
                </div>","null","","","","","","","","",""
"","","","","","html-button-response","64","173072","0.0-64.0","A37D6C13BEC34DB69E7F039AEE2FE2D4","019cf53b-9a0c-74e8-87c4-1a6faad8ac96","019cf509-e3f1-72d9-bf6b-e2f1118fdaab","","530","
                <div class=""stimulus-container"">
                    <img src=""images/schematic_sequence/restaurant_scheme/restaurant_scheme_3.png"" class=""exp-image"">
                    <div class=""question-area"">
                        <p style=""font-size: 20px; font-weight: bold; margin: 0;"">Is there a person in this image?</p>
                    </div>
                </div>","0","main_experiment_trial","3","restaurant_scheme","schematic_sequence","","","","",""
"","","","","","html-keyboard-response","65","178076","0.0-65.0","A37D6C13BEC34DB69E7F039AEE2FE2D4","019cf53b-9a0c-74e8-87c4-1a6faad8ac96","019cf509-e3f1-72d9-bf6b-e2f1118fdaab","","null","
                <div class=""stimulus-container"">
                    <img src=""images/schematic_sequence/restaurant_scheme/restaurant_scheme_4.png"" class=""exp-image"">
                    <div class=""question-area""></div> 
                </div>","null","","","","","","","","",""
"","","","","","html-button-response","66","178656","0.0-66.0","A37D6C13BEC34DB69E7F039AEE2FE2D4","019cf53b-9a0c-74e8-87c4-1a6faad8ac96","019cf509-e3f1-72d9-bf6b-e2f1118fdaab","","579","
                <div class=""stimulus-container"">
                    <img src=""images/schematic_sequence/restaurant_scheme/restaurant_scheme_4.png"" class=""exp-image"">
                    <div class=""question-area"">
                        <p style=""font-size: 20px; font-weight: bold; margin: 0;"">Is there a person in this image?</p>
                    </div>
                </div>","0","main_experiment_trial","4","restaurant_scheme","schematic_sequence","","","","",""
"","","","","","html-keyboard-response","67","183663","0.0-67.0","A37D6C13BEC34DB69E7F039AEE2FE2D4","019cf53b-9a0c-74e8-87c4-1a6faad8ac96","019cf509-e3f1-72d9-bf6b-e2f1118fdaab","","null","
                <div class=""stimulus-container"">
                    <img src=""images/schematic_sequence/restaurant_scheme/restaurant_scheme_5.png"" class=""exp-image"">
                    <div class=""question-area""></div> 
                </div>","null","","","","","","","","",""
"","","","","","html-button-response","68","184152","0.0-68.0","A37D6C13BEC34DB69E7F039AEE2FE2D4","019cf53b-9a0c-74e8-87c4-1a6faad8ac96","019cf509-e3f1-72d9-bf6b-e2f1118fdaab","","488","
                <div class=""stimulus-container"">
                    <img src=""images/schematic_sequence/restaurant_scheme/restaurant_scheme_5.png"" class=""exp-image"">
                    <div class=""question-area"">
                        <p style=""font-size: 20px; font-weight: bold; margin: 0;"">Is there a person in this image?</p>
                    </div>
                </div>","0","main_experiment_trial","5","restaurant_scheme","schematic_sequence","","","","",""
"","","","","","html-keyboard-response","69","189154","0.0-69.0","A37D6C13BEC34DB69E7F039AEE2FE2D4","019cf53b-9a0c-74e8-87c4-1a6faad8ac96","019cf509-e3f1-72d9-bf6b-e2f1118fdaab","","null","
                <div class=""stimulus-container"">
                    <img src=""images/schematic_sequence/restaurant_scheme/restaurant_scheme_6.png"" class=""exp-image"">
                    <div class=""question-area""></div> 
                </div>","null","","","","","","","","",""
"","","","","","html-button-response","70","189784","0.0-70.0","A37D6C13BEC34DB69E7F039AEE2FE2D4","019cf53b-9a0c-74e8-87c4-1a6faad8ac96","019cf509-e3f1-72d9-bf6b-e2f1118fdaab","","629","
                <div class=""stimulus-container"">
                    <img src=""images/schematic_sequence/restaurant_scheme/restaurant_scheme_6.png"" class=""exp-image"">
                    <div class=""question-area"">
                        <p style=""font-size: 20px; font-weight: bold; margin: 0;"">Is there a person in this image?</p>
                    </div>
                </div>","1","main_experiment_trial","6","restaurant_scheme","schematic_sequence","","","","",""
"","","","","","html-keyboard-response","71","194790","0.0-71.0","A37D6C13BEC34DB69E7F039AEE2FE2D4","019cf53b-9a0c-74e8-87c4-1a6faad8ac96","019cf509-e3f1-72d9-bf6b-e2f1118fdaab","","null","
                <div class=""stimulus-container"">
                    <img src=""images/schematic_sequence/restaurant_scheme/restaurant_scheme_7.png"" class=""exp-image"">
                    <div class=""question-area""></div> 
                </div>","null","","","","","","","","",""
"","","","","","html-button-response","72","196688","0.0-72.0","A37D6C13BEC34DB69E7F039AEE2FE2D4","019cf53b-9a0c-74e8-87c4-1a6faad8ac96","019cf509-e3f1-72d9-bf6b-e2f1118fdaab","","1897","
                <div class=""stimulus-container"">
                    <img src=""images/schematic_sequence/restaurant_scheme/restaurant_scheme_7.png"" class=""exp-image"">
                    <div class=""question-area"">
                        <p style=""font-size: 20px; font-weight: bold; margin: 0;"">Is there a person in this image?</p>
                    </div>
                </div>","1","main_experiment_trial","7","restaurant_scheme","schematic_sequence","","","","",""
"","","","","","html-keyboard-response","73","201696","0.0-73.0","A37D6C13BEC34DB69E7F039AEE2FE2D4","019cf53b-9a0c-74e8-87c4-1a6faad8ac96","019cf509-e3f1-72d9-bf6b-e2f1118fdaab","","null","
                <div class=""stimulus-container"">
                    <img src=""images/schematic_sequence/restaurant_scheme/restaurant_scheme_8.png"" class=""exp-image"">
                    <div class=""question-area""></div> 
                </div>","null","","","","","","","","",""
"","","","","","html-button-response","74","202088","0.0-74.0","A37D6C13BEC34DB69E7F039AEE2FE2D4","019cf53b-9a0c-74e8-87c4-1a6faad8ac96","019cf509-e3f1-72d9-bf6b-e2f1118fdaab","","391","
                <div class=""stimulus-container"">
                    <img src=""images/schematic_sequence/restaurant_scheme/restaurant_scheme_8.png"" class=""exp-image"">
                    <div class=""question-area"">
                        <p style=""font-size: 20px; font-weight: bold; margin: 0;"">Is there a person in this image?</p>
                    </div>
                </div>","1","main_experiment_trial","8","restaurant_scheme","schematic_sequence","","","","",""
"","","","","","html-keyboard-response","75","207095","0.0-75.0","A37D6C13BEC34DB69E7F039AEE2FE2D4","019cf53b-9a0c-74e8-87c4-1a6faad8ac96","019cf509-e3f1-72d9-bf6b-e2f1118fdaab","","null","
                <div class=""stimulus-container"">
                    <img src=""images/schematic_sequence/restaurant_scheme/restaurant_scheme_9.png"" class=""exp-image"">
                    <div class=""question-area""></div> 
                </div>","null","","","","","","","","",""
"","","","","","html-button-response","76","207544","0.0-76.0","A37D6C13BEC34DB69E7F039AEE2FE2D4","019cf53b-9a0c-74e8-87c4-1a6faad8ac96","019cf509-e3f1-72d9-bf6b-e2f1118fdaab","","449","
                <div class=""stimulus-container"">
                    <img src=""images/schematic_sequence/restaurant_scheme/restaurant_scheme_9.png"" class=""exp-image"">
                    <div class=""question-area"">
                        <p style=""font-size: 20px; font-weight: bold; margin: 0;"">Is there a person in this image?</p>
                    </div>
                </div>","0","main_experiment_trial","9","restaurant_scheme","schematic_sequence","","","","",""
"","","","","","html-keyboard-response","77","212557","0.0-77.0","A37D6C13BEC34DB69E7F039AEE2FE2D4","019cf53b-9a0c-74e8-87c4-1a6faad8ac96","019cf509-e3f1-72d9-bf6b-e2f1118fdaab","","null","
                <div class=""stimulus-container"">
                    <img src=""images/schematic_sequence/restaurant_scheme/restaurant_scheme_ten.png"" class=""exp-image"">
                    <div class=""question-area""></div> 
                </div>","null","","","","","","","","",""
"","","","","","html-button-response","78","213535","0.0-78.0","A37D6C13BEC34DB69E7F039AEE2FE2D4","019cf53b-9a0c-74e8-87c4-1a6faad8ac96","019cf509-e3f1-72d9-bf6b-e2f1118fdaab","","977","
                <div class=""stimulus-container"">
                    <img src=""images/schematic_sequence/restaurant_scheme/restaurant_scheme_ten.png"" class=""exp-image"">
                    <div class=""question-area"">
                        <p style=""font-size: 20px; font-weight: bold; margin: 0;"">Is there a person in this image?</p>
                    </div>
                </div>","0","main_experiment_trial","ten","restaurant_scheme","schematic_sequence","","","","",""
"","","","","","html-keyboard-response","79","214542","0.0-79.0","A37D6C13BEC34DB69E7F039AEE2FE2D4","019cf53b-9a0c-74e8-87c4-1a6faad8ac96","019cf509-e3f1-72d9-bf6b-e2f1118fdaab","","null","<div style=""background-color: white; width: 100vw; height: 100vh;""></div>","null","","","","","","","","",""
"","","","","","html-keyboard-response","80","219546","0.0-80.0","A37D6C13BEC34DB69E7F039AEE2FE2D4","019cf53b-9a0c-74e8-87c4-1a6faad8ac96","019cf509-e3f1-72d9-bf6b-e2f1118fdaab","","null","
                <div class=""stimulus-container"">
                    <img src=""images/causal_sequence/package_causal/package_causal_1.png"" class=""exp-image"">
                    <div class=""question-area""></div> 
                </div>","null","","","","","","","","",""
"","","","","","html-button-response","81","219975","0.0-81.0","A37D6C13BEC34DB69E7F039AEE2FE2D4","019cf53b-9a0c-74e8-87c4-1a6faad8ac96","019cf509-e3f1-72d9-bf6b-e2f1118fdaab","","429","
                <div class=""stimulus-container"">
                    <img src=""images/causal_sequence/package_causal/package_causal_1.png"" class=""exp-image"">
                    <div class=""question-area"">
                        <p style=""font-size: 20px; font-weight: bold; margin: 0;"">Is there a person in this image?</p>
                    </div>
                </div>","0","main_experiment_trial","1","package_causal","causal_sequence","","","","",""
"","","","","","html-keyboard-response","82","224990","0.0-82.0","A37D6C13BEC34DB69E7F039AEE2FE2D4","019cf53b-9a0c-74e8-87c4-1a6faad8ac96","019cf509-e3f1-72d9-bf6b-e2f1118fdaab","","null","
                <div class=""stimulus-container"">
                    <img src=""images/causal_sequence/package_causal/package_causal_2.png"" class=""exp-image"">
                    <div class=""question-area""></div> 
                </div>","null","","","","","","","","",""
"","","","","","html-button-response","83","225367","0.0-83.0","A37D6C13BEC34DB69E7F039AEE2FE2D4","019cf53b-9a0c-74e8-87c4-1a6faad8ac96","019cf509-e3f1-72d9-bf6b-e2f1118fdaab","","376","
                <div class=""stimulus-container"">
                    <img src=""images/causal_sequence/package_causal/package_causal_2.png"" class=""exp-image"">
                    <div class=""question-area"">
                        <p style=""font-size: 20px; font-weight: bold; margin: 0;"">Is there a person in this image?</p>
                    </div>
                </div>","0","main_experiment_trial","2","package_causal","causal_sequence","","","","",""
"","","","","","html-keyboard-response","84","230376","0.0-84.0","A37D6C13BEC34DB69E7F039AEE2FE2D4","019cf53b-9a0c-74e8-87c4-1a6faad8ac96","019cf509-e3f1-72d9-bf6b-e2f1118fdaab","","null","
                <div class=""stimulus-container"">
                    <img src=""images/causal_sequence/package_causal/package_causal_3.png"" class=""exp-image"">
                    <div class=""question-area""></div> 
                </div>","null","","","","","","","","",""
"","","","","","html-button-response","85","230975","0.0-85.0","A37D6C13BEC34DB69E7F039AEE2FE2D4","019cf53b-9a0c-74e8-87c4-1a6faad8ac96","019cf509-e3f1-72d9-bf6b-e2f1118fdaab","","598","
                <div class=""stimulus-container"">
                    <img src=""images/causal_sequence/package_causal/package_causal_3.png"" class=""exp-image"">
                    <div class=""question-area"">
                        <p style=""font-size: 20px; font-weight: bold; margin: 0;"">Is there a person in this image?</p>
                    </div>
                </div>","0","main_experiment_trial","3","package_causal","causal_sequence","","","","",""
"","","","","","html-keyboard-response","86","235983","0.0-86.0","A37D6C13BEC34DB69E7F039AEE2FE2D4","019cf53b-9a0c-74e8-87c4-1a6faad8ac96","019cf509-e3f1-72d9-bf6b-e2f1118fdaab","","null","
                <div class=""stimulus-container"">
                    <img src=""images/causal_sequence/package_causal/package_causal_4.png"" class=""exp-image"">
                    <div class=""question-area""></div> 
                </div>","null","","","","","","","","",""
"","","","","","html-button-response","87","236415","0.0-87.0","A37D6C13BEC34DB69E7F039AEE2FE2D4","019cf53b-9a0c-74e8-87c4-1a6faad8ac96","019cf509-e3f1-72d9-bf6b-e2f1118fdaab","","432","
                <div class=""stimulus-container"">
                    <img src=""images/causal_sequence/package_causal/package_causal_4.png"" class=""exp-image"">
                    <div class=""question-area"">
                        <p style=""font-size: 20px; font-weight: bold; margin: 0;"">Is there a person in this image?</p>
                    </div>
                </div>","1","main_experiment_trial","4","package_causal","causal_sequence","","","","",""
"","","","","","html-keyboard-response","88","241424","0.0-88.0","A37D6C13BEC34DB69E7F039AEE2FE2D4","019cf53b-9a0c-74e8-87c4-1a6faad8ac96","019cf509-e3f1-72d9-bf6b-e2f1118fdaab","","null","
                <div class=""stimulus-container"">
                    <img src=""images/causal_sequence/package_causal/package_causal_5.png"" class=""exp-image"">
                    <div class=""question-area""></div> 
                </div>","null","","","","","","","","",""
"","","","","","html-button-response","89","241791","0.0-89.0","A37D6C13BEC34DB69E7F039AEE2FE2D4","019cf53b-9a0c-74e8-87c4-1a6faad8ac96","019cf509-e3f1-72d9-bf6b-e2f1118fdaab","","366","
                <div class=""stimulus-container"">
                    <img src=""images/causal_sequence/package_causal/package_causal_5.png"" class=""exp-image"">
                    <div class=""question-area"">
                        <p style=""font-size: 20px; font-weight: bold; margin: 0;"">Is there a person in this image?</p>
                    </div>
                </div>","0","main_experiment_trial","5","package_causal","causal_sequence","","","","",""
"","","","","","html-keyboard-response","90","246797","0.0-90.0","A37D6C13BEC34DB69E7F039AEE2FE2D4","019cf53b-9a0c-74e8-87c4-1a6faad8ac96","019cf509-e3f1-72d9-bf6b-e2f1118fdaab","","null","
                <div class=""stimulus-container"">
                    <img src=""images/causal_sequence/package_causal/package_causal_6.png"" class=""exp-image"">
                    <div class=""question-area""></div> 
                </div>","null","","","","","","","","",""
"","","","","","html-button-response","91","247199","0.0-91.0","A37D6C13BEC34DB69E7F039AEE2FE2D4","019cf53b-9a0c-74e8-87c4-1a6faad8ac96","019cf509-e3f1-72d9-bf6b-e2f1118fdaab","","401","
                <div class=""stimulus-container"">
                    <img src=""images/causal_sequence/package_causal/package_causal_6.png"" class=""exp-image"">
                    <div class=""question-area"">
                        <p style=""font-size: 20px; font-weight: bold; margin: 0;"">Is there a person in this image?</p>
                    </div>
                </div>","0","main_experiment_trial","6","package_causal","causal_sequence","","","","",""
"","","","","","html-keyboard-response","92","252201","0.0-92.0","A37D6C13BEC34DB69E7F039AEE2FE2D4","019cf53b-9a0c-74e8-87c4-1a6faad8ac96","019cf509-e3f1-72d9-bf6b-e2f1118fdaab","","null","
                <div class=""stimulus-container"">
                    <img src=""images/causal_sequence/package_causal/package_causal_7.png"" class=""exp-image"">
                    <div class=""question-area""></div> 
                </div>","null","","","","","","","","",""
"","","","","","html-button-response","93","252543","0.0-93.0","A37D6C13BEC34DB69E7F039AEE2FE2D4","019cf53b-9a0c-74e8-87c4-1a6faad8ac96","019cf509-e3f1-72d9-bf6b-e2f1118fdaab","","341","
                <div class=""stimulus-container"">
                    <img src=""images/causal_sequence/package_causal/package_causal_7.png"" class=""exp-image"">
                    <div class=""question-area"">
                        <p style=""font-size: 20px; font-weight: bold; margin: 0;"">Is there a person in this image?</p>
                    </div>
                </div>","0","main_experiment_trial","7","package_causal","causal_sequence","","","","",""
"","","","","","html-keyboard-response","94","257553","0.0-94.0","A37D6C13BEC34DB69E7F039AEE2FE2D4","019cf53b-9a0c-74e8-87c4-1a6faad8ac96","019cf509-e3f1-72d9-bf6b-e2f1118fdaab","","null","
                <div class=""stimulus-container"">
                    <img src=""images/causal_sequence/package_causal/package_causal_8.png"" class=""exp-image"">
                    <div class=""question-area""></div> 
                </div>","null","","","","","","","","",""
"","","","","","html-button-response","95","257943","0.0-95.0","A37D6C13BEC34DB69E7F039AEE2FE2D4","019cf53b-9a0c-74e8-87c4-1a6faad8ac96","019cf509-e3f1-72d9-bf6b-e2f1118fdaab","","390","
                <div class=""stimulus-container"">
                    <img src=""images/causal_sequence/package_causal/package_causal_8.png"" class=""exp-image"">
                    <div class=""question-area"">
                        <p style=""font-size: 20px; font-weight: bold; margin: 0;"">Is there a person in this image?</p>
                    </div>
                </div>","0","main_experiment_trial","8","package_causal","causal_sequence","","","","",""
"","","","","","html-keyboard-response","96","262954","0.0-96.0","A37D6C13BEC34DB69E7F039AEE2FE2D4","019cf53b-9a0c-74e8-87c4-1a6faad8ac96","019cf509-e3f1-72d9-bf6b-e2f1118fdaab","","null","
                <div class=""stimulus-container"">
                    <img src=""images/causal_sequence/package_causal/package_causal_9.png"" class=""exp-image"">
                    <div class=""question-area""></div> 
                </div>","null","","","","","","","","",""
"","","","","","html-button-response","97","263366","0.0-97.0","A37D6C13BEC34DB69E7F039AEE2FE2D4","019cf53b-9a0c-74e8-87c4-1a6faad8ac96","019cf509-e3f1-72d9-bf6b-e2f1118fdaab","","412","
                <div class=""stimulus-container"">
                    <img src=""images/causal_sequence/package_causal/package_causal_9.png"" class=""exp-image"">
                    <div class=""question-area"">
                        <p style=""font-size: 20px; font-weight: bold; margin: 0;"">Is there a person in this image?</p>
                    </div>
                </div>","0","main_experiment_trial","9","package_causal","causal_sequence","","","","",""
"","","","","","html-keyboard-response","98","268368","0.0-98.0","A37D6C13BEC34DB69E7F039AEE2FE2D4","019cf53b-9a0c-74e8-87c4-1a6faad8ac96","019cf509-e3f1-72d9-bf6b-e2f1118fdaab","","null","
                <div class=""stimulus-container"">
                    <img src=""images/causal_sequence/package_causal/package_causal_ten.png"" class=""exp-image"">
                    <div class=""question-area""></div> 
                </div>","null","","","","","","","","",""
"","","","","","html-button-response","99","268711","0.0-99.0","A37D6C13BEC34DB69E7F039AEE2FE2D4","019cf53b-9a0c-74e8-87c4-1a6faad8ac96","019cf509-e3f1-72d9-bf6b-e2f1118fdaab","","343","
                <div class=""stimulus-container"">
                    <img src=""images/causal_sequence/package_causal/package_causal_ten.png"" class=""exp-image"">
                    <div class=""question-area"">
                        <p style=""font-size: 20px; font-weight: bold; margin: 0;"">Is there a person in this image?</p>
                    </div>
                </div>","0","main_experiment_trial","ten","package_causal","causal_sequence","","","","",""
"","","","","","html-keyboard-response","100","269720","0.0-100.0","A37D6C13BEC34DB69E7F039AEE2FE2D4","019cf53b-9a0c-74e8-87c4-1a6faad8ac96","019cf509-e3f1-72d9-bf6b-e2f1118fdaab","","null","<div style=""background-color: white; width: 100vw; height: 100vh;""></div>","null","","","","","","","","",""
"","","","","","html-keyboard-response","101","274733","0.0-101.0","A37D6C13BEC34DB69E7F039AEE2FE2D4","019cf53b-9a0c-74e8-87c4-1a6faad8ac96","019cf509-e3f1-72d9-bf6b-e2f1118fdaab","","null","
                <div class=""stimulus-container"">
                    <img src=""images/causal_sequence/the_performance_causal/the_performance_causal_1.png"" class=""exp-image"">
                    <div class=""question-area""></div> 
                </div>","null","","","","","","","","",""
"","","","","","html-button-response","102","275151","0.0-102.0","A37D6C13BEC34DB69E7F039AEE2FE2D4","019cf53b-9a0c-74e8-87c4-1a6faad8ac96","019cf509-e3f1-72d9-bf6b-e2f1118fdaab","","418","
                <div class=""stimulus-container"">
                    <img src=""images/causal_sequence/the_performance_causal/the_performance_causal_1.png"" class=""exp-image"">
                    <div class=""question-area"">
                        <p style=""font-size: 20px; font-weight: bold; margin: 0;"">Is there a person in this image?</p>
                    </div>
                </div>","0","main_experiment_trial","1","the_performance_causal","causal_sequence","","","","",""
"","","","","","html-keyboard-response","103","280165","0.0-103.0","A37D6C13BEC34DB69E7F039AEE2FE2D4","019cf53b-9a0c-74e8-87c4-1a6faad8ac96","019cf509-e3f1-72d9-bf6b-e2f1118fdaab","","null","
                <div class=""stimulus-container"">
                    <img src=""images/causal_sequence/the_performance_causal/the_performance_causal_2.png"" class=""exp-image"">
                    <div class=""question-area""></div> 
                </div>","null","","","","","","","","",""
"","","","","","html-button-response","104","280606","0.0-104.0","A37D6C13BEC34DB69E7F039AEE2FE2D4","019cf53b-9a0c-74e8-87c4-1a6faad8ac96","019cf509-e3f1-72d9-bf6b-e2f1118fdaab","","440","
                <div class=""stimulus-container"">
                    <img src=""images/causal_sequence/the_performance_causal/the_performance_causal_2.png"" class=""exp-image"">
                    <div class=""question-area"">
                        <p style=""font-size: 20px; font-weight: bold; margin: 0;"">Is there a person in this image?</p>
                    </div>
                </div>","0","main_experiment_trial","2","the_performance_causal","causal_sequence","","","","",""
"","","","","","html-keyboard-response","105","285620","0.0-105.0","A37D6C13BEC34DB69E7F039AEE2FE2D4","019cf53b-9a0c-74e8-87c4-1a6faad8ac96","019cf509-e3f1-72d9-bf6b-e2f1118fdaab","","null","
                <div class=""stimulus-container"">
                    <img src=""images/causal_sequence/the_performance_causal/the_performance_causal_3.png"" class=""exp-image"">
                    <div class=""question-area""></div> 
                </div>","null","","","","","","","","",""
"","","","","","html-button-response","106","287566","0.0-106.0","A37D6C13BEC34DB69E7F039AEE2FE2D4","019cf53b-9a0c-74e8-87c4-1a6faad8ac96","019cf509-e3f1-72d9-bf6b-e2f1118fdaab","","1946","
                <div class=""stimulus-container"">
                    <img src=""images/causal_sequence/the_performance_causal/the_performance_causal_3.png"" class=""exp-image"">
                    <div class=""question-area"">
                        <p style=""font-size: 20px; font-weight: bold; margin: 0;"">Is there a person in this image?</p>
                    </div>
                </div>","0","main_experiment_trial","3","the_performance_causal","causal_sequence","","","","",""
"","","","","","html-keyboard-response","107","292579","0.0-107.0","A37D6C13BEC34DB69E7F039AEE2FE2D4","019cf53b-9a0c-74e8-87c4-1a6faad8ac96","019cf509-e3f1-72d9-bf6b-e2f1118fdaab","","null","
                <div class=""stimulus-container"">
                    <img src=""images/causal_sequence/the_performance_causal/the_performance_causal_4.png"" class=""exp-image"">
                    <div class=""question-area""></div> 
                </div>","null","","","","","","","","",""
"","","","","","html-button-response","108","293014","0.0-108.0","A37D6C13BEC34DB69E7F039AEE2FE2D4","019cf53b-9a0c-74e8-87c4-1a6faad8ac96","019cf509-e3f1-72d9-bf6b-e2f1118fdaab","","435","
                <div class=""stimulus-container"">
                    <img src=""images/causal_sequence/the_performance_causal/the_performance_causal_4.png"" class=""exp-image"">
                    <div class=""question-area"">
                        <p style=""font-size: 20px; font-weight: bold; margin: 0;"">Is there a person in this image?</p>
                    </div>
                </div>","0","main_experiment_trial","4","the_performance_causal","causal_sequence","","","","",""
"","","","","","html-keyboard-response","109","298018","0.0-109.0","A37D6C13BEC34DB69E7F039AEE2FE2D4","019cf53b-9a0c-74e8-87c4-1a6faad8ac96","019cf509-e3f1-72d9-bf6b-e2f1118fdaab","","null","
                <div class=""stimulus-container"">
                    <img src=""images/causal_sequence/the_performance_causal/the_performance_causal_5.png"" class=""exp-image"">
                    <div class=""question-area""></div> 
                </div>","null","","","","","","","","",""
"","","","","","html-button-response","110","298318","0.0-110.0","A37D6C13BEC34DB69E7F039AEE2FE2D4","019cf53b-9a0c-74e8-87c4-1a6faad8ac96","019cf509-e3f1-72d9-bf6b-e2f1118fdaab","","299","
                <div class=""stimulus-container"">
                    <img src=""images/causal_sequence/the_performance_causal/the_performance_causal_5.png"" class=""exp-image"">
                    <div class=""question-area"">
                        <p style=""font-size: 20px; font-weight: bold; margin: 0;"">Is there a person in this image?</p>
                    </div>
                </div>","0","main_experiment_trial","5","the_performance_causal","causal_sequence","","","","",""
"","","","","","html-keyboard-response","111","303331","0.0-111.0","A37D6C13BEC34DB69E7F039AEE2FE2D4","019cf53b-9a0c-74e8-87c4-1a6faad8ac96","019cf509-e3f1-72d9-bf6b-e2f1118fdaab","","null","
                <div class=""stimulus-container"">
                    <img src=""images/causal_sequence/the_performance_causal/the_performance_causal_6.png"" class=""exp-image"">
                    <div class=""question-area""></div> 
                </div>","null","","","","","","","","",""
"","","","","","html-button-response","112","303687","0.0-112.0","A37D6C13BEC34DB69E7F039AEE2FE2D4","019cf53b-9a0c-74e8-87c4-1a6faad8ac96","019cf509-e3f1-72d9-bf6b-e2f1118fdaab","","355","
                <div class=""stimulus-container"">
                    <img src=""images/causal_sequence/the_performance_causal/the_performance_causal_6.png"" class=""exp-image"">
                    <div class=""question-area"">
                        <p style=""font-size: 20px; font-weight: bold; margin: 0;"">Is there a person in this image?</p>
                    </div>
                </div>","0","main_experiment_trial","6","the_performance_causal","causal_sequence","","","","",""
"","","","","","html-keyboard-response","113","308691","0.0-113.0","A37D6C13BEC34DB69E7F039AEE2FE2D4","019cf53b-9a0c-74e8-87c4-1a6faad8ac96","019cf509-e3f1-72d9-bf6b-e2f1118fdaab","","null","
                <div class=""stimulus-container"">
                    <img src=""images/causal_sequence/the_performance_causal/the_performance_causal_7.png"" class=""exp-image"">
                    <div class=""question-area""></div> 
                </div>","null","","","","","","","","",""
"","","","","","html-button-response","114","309071","0.0-114.0","A37D6C13BEC34DB69E7F039AEE2FE2D4","019cf53b-9a0c-74e8-87c4-1a6faad8ac96","019cf509-e3f1-72d9-bf6b-e2f1118fdaab","","380","
                <div class=""stimulus-container"">
                    <img src=""images/causal_sequence/the_performance_causal/the_performance_causal_7.png"" class=""exp-image"">
                    <div class=""question-area"">
                        <p style=""font-size: 20px; font-weight: bold; margin: 0;"">Is there a person in this image?</p>
                    </div>
                </div>","0","main_experiment_trial","7","the_performance_causal","causal_sequence","","","","",""
"","","","","","html-keyboard-response","115","314077","0.0-115.0","A37D6C13BEC34DB69E7F039AEE2FE2D4","019cf53b-9a0c-74e8-87c4-1a6faad8ac96","019cf509-e3f1-72d9-bf6b-e2f1118fdaab","","null","
                <div class=""stimulus-container"">
                    <img src=""images/causal_sequence/the_performance_causal/the_performance_causal_8.png"" class=""exp-image"">
                    <div class=""question-area""></div> 
                </div>","null","","","","","","","","",""
"","","","","","html-button-response","116","314415","0.0-116.0","A37D6C13BEC34DB69E7F039AEE2FE2D4","019cf53b-9a0c-74e8-87c4-1a6faad8ac96","019cf509-e3f1-72d9-bf6b-e2f1118fdaab","","337","
                <div class=""stimulus-container"">
                    <img src=""images/causal_sequence/the_performance_causal/the_performance_causal_8.png"" class=""exp-image"">
                    <div class=""question-area"">
                        <p style=""font-size: 20px; font-weight: bold; margin: 0;"">Is there a person in this image?</p>
                    </div>
                </div>","0","main_experiment_trial","8","the_performance_causal","causal_sequence","","","","",""
"","","","","","html-keyboard-response","117","319422","0.0-117.0","A37D6C13BEC34DB69E7F039AEE2FE2D4","019cf53b-9a0c-74e8-87c4-1a6faad8ac96","019cf509-e3f1-72d9-bf6b-e2f1118fdaab","","null","
                <div class=""stimulus-container"">
                    <img src=""images/causal_sequence/the_performance_causal/the_performance_causal_9.png"" class=""exp-image"">
                    <div class=""question-area""></div> 
                </div>","null","","","","","","","","",""
"","","","","","html-button-response","118","319870","0.0-118.0","A37D6C13BEC34DB69E7F039AEE2FE2D4","019cf53b-9a0c-74e8-87c4-1a6faad8ac96","019cf509-e3f1-72d9-bf6b-e2f1118fdaab","","448","
                <div class=""stimulus-container"">
                    <img src=""images/causal_sequence/the_performance_causal/the_performance_causal_9.png"" class=""exp-image"">
                    <div class=""question-area"">
                        <p style=""font-size: 20px; font-weight: bold; margin: 0;"">Is there a person in this image?</p>
                    </div>
                </div>","0","main_experiment_trial","9","the_performance_causal","causal_sequence","","","","",""
"","","","","","html-keyboard-response","119","324877","0.0-119.0","A37D6C13BEC34DB69E7F039AEE2FE2D4","019cf53b-9a0c-74e8-87c4-1a6faad8ac96","019cf509-e3f1-72d9-bf6b-e2f1118fdaab","","null","
                <div class=""stimulus-container"">
                    <img src=""images/causal_sequence/the_performance_causal/the_performance_causal_ten.png"" class=""exp-image"">
                    <div class=""question-area""></div> 
                </div>","null","","","","","","","","",""
"","","","","","html-button-response","120","325238","0.0-120.0","A37D6C13BEC34DB69E7F039AEE2FE2D4","019cf53b-9a0c-74e8-87c4-1a6faad8ac96","019cf509-e3f1-72d9-bf6b-e2f1118fdaab","","361","
                <div class=""stimulus-container"">
                    <img src=""images/causal_sequence/the_performance_causal/the_performance_causal_ten.png"" class=""exp-image"">
                    <div class=""question-area"">
                        <p style=""font-size: 20px; font-weight: bold; margin: 0;"">Is there a person in this image?</p>
                    </div>
                </div>","0","main_experiment_trial","ten","the_performance_causal","causal_sequence","","","","",""
"","","","","","html-keyboard-response","121","326253","0.0-121.0","A37D6C13BEC34DB69E7F039AEE2FE2D4","019cf53b-9a0c-74e8-87c4-1a6faad8ac96","019cf509-e3f1-72d9-bf6b-e2f1118fdaab","","null","<div style=""background-color: white; width: 100vw; height: 100vh;""></div>","null","","","","","","","","",""
"","","","","","html-keyboard-response","122","331268","0.0-122.0","A37D6C13BEC34DB69E7F039AEE2FE2D4","019cf53b-9a0c-74e8-87c4-1a6faad8ac96","019cf509-e3f1-72d9-bf6b-e2f1118fdaab","","null","
                <div class=""stimulus-container"">
                    <img src=""images/schematic_sequence/flight_scheme/flight_scheme_1.png"" class=""exp-image"">
                    <div class=""question-area""></div> 
                </div>","null","","","","","","","","",""
"","","","","","html-button-response","123","331663","0.0-123.0","A37D6C13BEC34DB69E7F039AEE2FE2D4","019cf53b-9a0c-74e8-87c4-1a6faad8ac96","019cf509-e3f1-72d9-bf6b-e2f1118fdaab","","394","
                <div class=""stimulus-container"">
                    <img src=""images/schematic_sequence/flight_scheme/flight_scheme_1.png"" class=""exp-image"">
                    <div class=""question-area"">
                        <p style=""font-size: 20px; font-weight: bold; margin: 0;"">Is there a person in this image?</p>
                    </div>
                </div>","0","main_experiment_trial","1","flight_scheme","schematic_sequence","","","","",""
"","","","","","html-keyboard-response","124","336671","0.0-124.0","A37D6C13BEC34DB69E7F039AEE2FE2D4","019cf53b-9a0c-74e8-87c4-1a6faad8ac96","019cf509-e3f1-72d9-bf6b-e2f1118fdaab","","null","
                <div class=""stimulus-container"">
                    <img src=""images/schematic_sequence/flight_scheme/flight_scheme_2.png"" class=""exp-image"">
                    <div class=""question-area""></div> 
                </div>","null","","","","","","","","",""
"","","","","","html-button-response","125","337038","0.0-125.0","A37D6C13BEC34DB69E7F039AEE2FE2D4","019cf53b-9a0c-74e8-87c4-1a6faad8ac96","019cf509-e3f1-72d9-bf6b-e2f1118fdaab","","367","
                <div class=""stimulus-container"">
                    <img src=""images/schematic_sequence/flight_scheme/flight_scheme_2.png"" class=""exp-image"">
                    <div class=""question-area"">
                        <p style=""font-size: 20px; font-weight: bold; margin: 0;"">Is there a person in this image?</p>
                    </div>
                </div>","1","main_experiment_trial","2","flight_scheme","schematic_sequence","","","","",""
"","","","","","html-keyboard-response","126","342042","0.0-126.0","A37D6C13BEC34DB69E7F039AEE2FE2D4","019cf53b-9a0c-74e8-87c4-1a6faad8ac96","019cf509-e3f1-72d9-bf6b-e2f1118fdaab","","null","
                <div class=""stimulus-container"">
                    <img src=""images/schematic_sequence/flight_scheme/flight_scheme_3.png"" class=""exp-image"">
                    <div class=""question-area""></div> 
                </div>","null","","","","","","","","",""
"","","","","","html-button-response","127","342390","0.0-127.0","A37D6C13BEC34DB69E7F039AEE2FE2D4","019cf53b-9a0c-74e8-87c4-1a6faad8ac96","019cf509-e3f1-72d9-bf6b-e2f1118fdaab","","347","
                <div class=""stimulus-container"">
                    <img src=""images/schematic_sequence/flight_scheme/flight_scheme_3.png"" class=""exp-image"">
                    <div class=""question-area"">
                        <p style=""font-size: 20px; font-weight: bold; margin: 0;"">Is there a person in this image?</p>
                    </div>
                </div>","0","main_experiment_trial","3","flight_scheme","schematic_sequence","","","","",""
"","","","","","html-keyboard-response","128","347404","0.0-128.0","A37D6C13BEC34DB69E7F039AEE2FE2D4","019cf53b-9a0c-74e8-87c4-1a6faad8ac96","019cf509-e3f1-72d9-bf6b-e2f1118fdaab","","null","
                <div class=""stimulus-container"">
                    <img src=""images/schematic_sequence/flight_scheme/flight_scheme_4.png"" class=""exp-image"">
                    <div class=""question-area""></div> 
                </div>","null","","","","","","","","",""
"","","","","","html-button-response","129","347774","0.0-129.0","A37D6C13BEC34DB69E7F039AEE2FE2D4","019cf53b-9a0c-74e8-87c4-1a6faad8ac96","019cf509-e3f1-72d9-bf6b-e2f1118fdaab","","369","
                <div class=""stimulus-container"">
                    <img src=""images/schematic_sequence/flight_scheme/flight_scheme_4.png"" class=""exp-image"">
                    <div class=""question-area"">
                        <p style=""font-size: 20px; font-weight: bold; margin: 0;"">Is there a person in this image?</p>
                    </div>
                </div>","0","main_experiment_trial","4","flight_scheme","schematic_sequence","","","","",""
"","","","","","html-keyboard-response","130","352782","0.0-130.0","A37D6C13BEC34DB69E7F039AEE2FE2D4","019cf53b-9a0c-74e8-87c4-1a6faad8ac96","019cf509-e3f1-72d9-bf6b-e2f1118fdaab","","null","
                <div class=""stimulus-container"">
                    <img src=""images/schematic_sequence/flight_scheme/flight_scheme_5.png"" class=""exp-image"">
                    <div class=""question-area""></div> 
                </div>","null","","","","","","","","",""
"","","","","","html-button-response","131","353126","0.0-131.0","A37D6C13BEC34DB69E7F039AEE2FE2D4","019cf53b-9a0c-74e8-87c4-1a6faad8ac96","019cf509-e3f1-72d9-bf6b-e2f1118fdaab","","344","
                <div class=""stimulus-container"">
                    <img src=""images/schematic_sequence/flight_scheme/flight_scheme_5.png"" class=""exp-image"">
                    <div class=""question-area"">
                        <p style=""font-size: 20px; font-weight: bold; margin: 0;"">Is there a person in this image?</p>
                    </div>
                </div>","0","main_experiment_trial","5","flight_scheme","schematic_sequence","","","","",""
"","","","","","html-keyboard-response","132","358138","0.0-132.0","A37D6C13BEC34DB69E7F039AEE2FE2D4","019cf53b-9a0c-74e8-87c4-1a6faad8ac96","019cf509-e3f1-72d9-bf6b-e2f1118fdaab","","null","
                <div class=""stimulus-container"">
                    <img src=""images/schematic_sequence/flight_scheme/flight_scheme_6.png"" class=""exp-image"">
                    <div class=""question-area""></div> 
                </div>","null","","","","","","","","",""
"","","","","","html-button-response","133","358462","0.0-133.0","A37D6C13BEC34DB69E7F039AEE2FE2D4","019cf53b-9a0c-74e8-87c4-1a6faad8ac96","019cf509-e3f1-72d9-bf6b-e2f1118fdaab","","324","
                <div class=""stimulus-container"">
                    <img src=""images/schematic_sequence/flight_scheme/flight_scheme_6.png"" class=""exp-image"">
                    <div class=""question-area"">
                        <p style=""font-size: 20px; font-weight: bold; margin: 0;"">Is there a person in this image?</p>
                    </div>
                </div>","1","main_experiment_trial","6","flight_scheme","schematic_sequence","","","","",""
"","","","","","html-keyboard-response","134","363468","0.0-134.0","A37D6C13BEC34DB69E7F039AEE2FE2D4","019cf53b-9a0c-74e8-87c4-1a6faad8ac96","019cf509-e3f1-72d9-bf6b-e2f1118fdaab","","null","
                <div class=""stimulus-container"">
                    <img src=""images/schematic_sequence/flight_scheme/flight_scheme_7.png"" class=""exp-image"">
                    <div class=""question-area""></div> 
                </div>","null","","","","","","","","",""
"","","","","","html-button-response","135","364046","0.0-135.0","A37D6C13BEC34DB69E7F039AEE2FE2D4","019cf53b-9a0c-74e8-87c4-1a6faad8ac96","019cf509-e3f1-72d9-bf6b-e2f1118fdaab","","578","
                <div class=""stimulus-container"">
                    <img src=""images/schematic_sequence/flight_scheme/flight_scheme_7.png"" class=""exp-image"">
                    <div class=""question-area"">
                        <p style=""font-size: 20px; font-weight: bold; margin: 0;"">Is there a person in this image?</p>
                    </div>
                </div>","1","main_experiment_trial","7","flight_scheme","schematic_sequence","","","","",""
"","","","","","html-keyboard-response","136","369061","0.0-136.0","A37D6C13BEC34DB69E7F039AEE2FE2D4","019cf53b-9a0c-74e8-87c4-1a6faad8ac96","019cf509-e3f1-72d9-bf6b-e2f1118fdaab","","null","
                <div class=""stimulus-container"">
                    <img src=""images/schematic_sequence/flight_scheme/flight_scheme_8.png"" class=""exp-image"">
                    <div class=""question-area""></div> 
                </div>","null","","","","","","","","",""
"","","","","","html-button-response","137","369470","0.0-137.0","A37D6C13BEC34DB69E7F039AEE2FE2D4","019cf53b-9a0c-74e8-87c4-1a6faad8ac96","019cf509-e3f1-72d9-bf6b-e2f1118fdaab","","408","
                <div class=""stimulus-container"">
                    <img src=""images/schematic_sequence/flight_scheme/flight_scheme_8.png"" class=""exp-image"">
                    <div class=""question-area"">
                        <p style=""font-size: 20px; font-weight: bold; margin: 0;"">Is there a person in this image?</p>
                    </div>
                </div>","1","main_experiment_trial","8","flight_scheme","schematic_sequence","","","","",""
"","","","","","html-keyboard-response","138","374474","0.0-138.0","A37D6C13BEC34DB69E7F039AEE2FE2D4","019cf53b-9a0c-74e8-87c4-1a6faad8ac96","019cf509-e3f1-72d9-bf6b-e2f1118fdaab","","null","
                <div class=""stimulus-container"">
                    <img src=""images/schematic_sequence/flight_scheme/flight_scheme_9.png"" class=""exp-image"">
                    <div class=""question-area""></div> 
                </div>","null","","","","","","","","",""
"","","","","","html-button-response","139","374878","0.0-139.0","A37D6C13BEC34DB69E7F039AEE2FE2D4","019cf53b-9a0c-74e8-87c4-1a6faad8ac96","019cf509-e3f1-72d9-bf6b-e2f1118fdaab","","404","
                <div class=""stimulus-container"">
                    <img src=""images/schematic_sequence/flight_scheme/flight_scheme_9.png"" class=""exp-image"">
                    <div class=""question-area"">
                        <p style=""font-size: 20px; font-weight: bold; margin: 0;"">Is there a person in this image?</p>
                    </div>
                </div>","0","main_experiment_trial","9","flight_scheme","schematic_sequence","","","","",""
"","","","","","html-keyboard-response","140","379894","0.0-140.0","A37D6C13BEC34DB69E7F039AEE2FE2D4","019cf53b-9a0c-74e8-87c4-1a6faad8ac96","019cf509-e3f1-72d9-bf6b-e2f1118fdaab","","null","
                <div class=""stimulus-container"">
                    <img src=""images/schematic_sequence/flight_scheme/flight_scheme_ten.png"" class=""exp-image"">
                    <div class=""question-area""></div> 
                </div>","null","","","","","","","","",""
"","","","","","html-button-response","141","380238","0.0-141.0","A37D6C13BEC34DB69E7F039AEE2FE2D4","019cf53b-9a0c-74e8-87c4-1a6faad8ac96","019cf509-e3f1-72d9-bf6b-e2f1118fdaab","","343","
                <div class=""stimulus-container"">
                    <img src=""images/schematic_sequence/flight_scheme/flight_scheme_ten.png"" class=""exp-image"">
                    <div class=""question-area"">
                        <p style=""font-size: 20px; font-weight: bold; margin: 0;"">Is there a person in this image?</p>
                    </div>
                </div>","0","main_experiment_trial","ten","flight_scheme","schematic_sequence","","","","",""
"","","","","","html-keyboard-response","142","381242","0.0-142.0","A37D6C13BEC34DB69E7F039AEE2FE2D4","019cf53b-9a0c-74e8-87c4-1a6faad8ac96","019cf509-e3f1-72d9-bf6b-e2f1118fdaab","","null","<div style=""background-color: white; width: 100vw; height: 100vh;""></div>","null","","","","","","","","",""
"","","","","","html-keyboard-response","143","386243","0.0-143.0","A37D6C13BEC34DB69E7F039AEE2FE2D4","019cf53b-9a0c-74e8-87c4-1a6faad8ac96","019cf509-e3f1-72d9-bf6b-e2f1118fdaab","","null","
                <div class=""stimulus-container"">
                    <img src=""images/schematic_sequence/interview_scheme/interview_scheme_1.png"" class=""exp-image"">
                    <div class=""question-area""></div> 
                </div>","null","","","","","","","","",""
"","","","","","html-button-response","144","386982","0.0-144.0","A37D6C13BEC34DB69E7F039AEE2FE2D4","019cf53b-9a0c-74e8-87c4-1a6faad8ac96","019cf509-e3f1-72d9-bf6b-e2f1118fdaab","","738","
                <div class=""stimulus-container"">
                    <img src=""images/schematic_sequence/interview_scheme/interview_scheme_1.png"" class=""exp-image"">
                    <div class=""question-area"">
                        <p style=""font-size: 20px; font-weight: bold; margin: 0;"">Is there a person in this image?</p>
                    </div>
                </div>","1","main_experiment_trial","1","interview_scheme","schematic_sequence","","","","",""
"","","","","","html-keyboard-response","145","391988","0.0-145.0","A37D6C13BEC34DB69E7F039AEE2FE2D4","019cf53b-9a0c-74e8-87c4-1a6faad8ac96","019cf509-e3f1-72d9-bf6b-e2f1118fdaab","","null","
                <div class=""stimulus-container"">
                    <img src=""images/schematic_sequence/interview_scheme/interview_scheme_2.png"" class=""exp-image"">
                    <div class=""question-area""></div> 
                </div>","null","","","","","","","","",""
"","","","","","html-button-response","146","392373","0.0-146.0","A37D6C13BEC34DB69E7F039AEE2FE2D4","019cf53b-9a0c-74e8-87c4-1a6faad8ac96","019cf509-e3f1-72d9-bf6b-e2f1118fdaab","","385","
                <div class=""stimulus-container"">
                    <img src=""images/schematic_sequence/interview_scheme/interview_scheme_2.png"" class=""exp-image"">
                    <div class=""question-area"">
                        <p style=""font-size: 20px; font-weight: bold; margin: 0;"">Is there a person in this image?</p>
                    </div>
                </div>","0","main_experiment_trial","2","interview_scheme","schematic_sequence","","","","",""
"","","","","","html-keyboard-response","147","397380","0.0-147.0","A37D6C13BEC34DB69E7F039AEE2FE2D4","019cf53b-9a0c-74e8-87c4-1a6faad8ac96","019cf509-e3f1-72d9-bf6b-e2f1118fdaab","","null","
                <div class=""stimulus-container"">
                    <img src=""images/schematic_sequence/interview_scheme/interview_scheme_3.png"" class=""exp-image"">
                    <div class=""question-area""></div> 
                </div>","null","","","","","","","","",""
"","","","","","html-button-response","148","397757","0.0-148.0","A37D6C13BEC34DB69E7F039AEE2FE2D4","019cf53b-9a0c-74e8-87c4-1a6faad8ac96","019cf509-e3f1-72d9-bf6b-e2f1118fdaab","","377","
                <div class=""stimulus-container"">
                    <img src=""images/schematic_sequence/interview_scheme/interview_scheme_3.png"" class=""exp-image"">
                    <div class=""question-area"">
                        <p style=""font-size: 20px; font-weight: bold; margin: 0;"">Is there a person in this image?</p>
                    </div>
                </div>","1","main_experiment_trial","3","interview_scheme","schematic_sequence","","","","",""
"","","","","","html-keyboard-response","149","402761","0.0-149.0","A37D6C13BEC34DB69E7F039AEE2FE2D4","019cf53b-9a0c-74e8-87c4-1a6faad8ac96","019cf509-e3f1-72d9-bf6b-e2f1118fdaab","","null","
                <div class=""stimulus-container"">
                    <img src=""images/schematic_sequence/interview_scheme/interview_scheme_4.png"" class=""exp-image"">
                    <div class=""question-area""></div> 
                </div>","null","","","","","","","","",""
"","","","","","html-button-response","150","403533","0.0-150.0","A37D6C13BEC34DB69E7F039AEE2FE2D4","019cf53b-9a0c-74e8-87c4-1a6faad8ac96","019cf509-e3f1-72d9-bf6b-e2f1118fdaab","","772","
                <div class=""stimulus-container"">
                    <img src=""images/schematic_sequence/interview_scheme/interview_scheme_4.png"" class=""exp-image"">
                    <div class=""question-area"">
                        <p style=""font-size: 20px; font-weight: bold; margin: 0;"">Is there a person in this image?</p>
                    </div>
                </div>","1","main_experiment_trial","4","interview_scheme","schematic_sequence","","","","",""
"","","","","","html-keyboard-response","151","408536","0.0-151.0","A37D6C13BEC34DB69E7F039AEE2FE2D4","019cf53b-9a0c-74e8-87c4-1a6faad8ac96","019cf509-e3f1-72d9-bf6b-e2f1118fdaab","","null","
                <div class=""stimulus-container"">
                    <img src=""images/schematic_sequence/interview_scheme/interview_scheme_5.png"" class=""exp-image"">
                    <div class=""question-area""></div> 
                </div>","null","","","","","","","","",""
"","","","","","html-button-response","152","409022","0.0-152.0","A37D6C13BEC34DB69E7F039AEE2FE2D4","019cf53b-9a0c-74e8-87c4-1a6faad8ac96","019cf509-e3f1-72d9-bf6b-e2f1118fdaab","","485","
                <div class=""stimulus-container"">
                    <img src=""images/schematic_sequence/interview_scheme/interview_scheme_5.png"" class=""exp-image"">
                    <div class=""question-area"">
                        <p style=""font-size: 20px; font-weight: bold; margin: 0;"">Is there a person in this image?</p>
                    </div>
                </div>","0","main_experiment_trial","5","interview_scheme","schematic_sequence","","","","",""
"","","","","","html-keyboard-response","153","414029","0.0-153.0","A37D6C13BEC34DB69E7F039AEE2FE2D4","019cf53b-9a0c-74e8-87c4-1a6faad8ac96","019cf509-e3f1-72d9-bf6b-e2f1118fdaab","","null","
                <div class=""stimulus-container"">
                    <img src=""images/schematic_sequence/interview_scheme/interview_scheme_6.png"" class=""exp-image"">
                    <div class=""question-area""></div> 
                </div>","null","","","","","","","","",""
"","","","","","html-button-response","154","414406","0.0-154.0","A37D6C13BEC34DB69E7F039AEE2FE2D4","019cf53b-9a0c-74e8-87c4-1a6faad8ac96","019cf509-e3f1-72d9-bf6b-e2f1118fdaab","","376","
                <div class=""stimulus-container"">
                    <img src=""images/schematic_sequence/interview_scheme/interview_scheme_6.png"" class=""exp-image"">
                    <div class=""question-area"">
                        <p style=""font-size: 20px; font-weight: bold; margin: 0;"">Is there a person in this image?</p>
                    </div>
                </div>","0","main_experiment_trial","6","interview_scheme","schematic_sequence","","","","",""
"","","","","","html-keyboard-response","155","419423","0.0-155.0","A37D6C13BEC34DB69E7F039AEE2FE2D4","019cf53b-9a0c-74e8-87c4-1a6faad8ac96","019cf509-e3f1-72d9-bf6b-e2f1118fdaab","","null","
                <div class=""stimulus-container"">
                    <img src=""images/schematic_sequence/interview_scheme/interview_scheme_7.png"" class=""exp-image"">
                    <div class=""question-area""></div> 
                </div>","null","","","","","","","","",""
"","","","","","html-button-response","156","419861","0.0-156.0","A37D6C13BEC34DB69E7F039AEE2FE2D4","019cf53b-9a0c-74e8-87c4-1a6faad8ac96","019cf509-e3f1-72d9-bf6b-e2f1118fdaab","","438","
                <div class=""stimulus-container"">
                    <img src=""images/schematic_sequence/interview_scheme/interview_scheme_7.png"" class=""exp-image"">
                    <div class=""question-area"">
                        <p style=""font-size: 20px; font-weight: bold; margin: 0;"">Is there a person in this image?</p>
                    </div>
                </div>","0","main_experiment_trial","7","interview_scheme","schematic_sequence","","","","",""
"","","","","","html-keyboard-response","157","424876","0.0-157.0","A37D6C13BEC34DB69E7F039AEE2FE2D4","019cf53b-9a0c-74e8-87c4-1a6faad8ac96","019cf509-e3f1-72d9-bf6b-e2f1118fdaab","","null","
                <div class=""stimulus-container"">
                    <img src=""images/schematic_sequence/interview_scheme/interview_scheme_8.png"" class=""exp-image"">
                    <div class=""question-area""></div> 
                </div>","null","","","","","","","","",""
"","","","","","html-button-response","158","425310","0.0-158.0","A37D6C13BEC34DB69E7F039AEE2FE2D4","019cf53b-9a0c-74e8-87c4-1a6faad8ac96","019cf509-e3f1-72d9-bf6b-e2f1118fdaab","","433","
                <div class=""stimulus-container"">
                    <img src=""images/schematic_sequence/interview_scheme/interview_scheme_8.png"" class=""exp-image"">
                    <div class=""question-area"">
                        <p style=""font-size: 20px; font-weight: bold; margin: 0;"">Is there a person in this image?</p>
                    </div>
                </div>","0","main_experiment_trial","8","interview_scheme","schematic_sequence","","","","",""
"","","","","","html-keyboard-response","159","430325","0.0-159.0","A37D6C13BEC34DB69E7F039AEE2FE2D4","019cf53b-9a0c-74e8-87c4-1a6faad8ac96","019cf509-e3f1-72d9-bf6b-e2f1118fdaab","","null","
                <div class=""stimulus-container"">
                    <img src=""images/schematic_sequence/interview_scheme/interview_scheme_9.png"" class=""exp-image"">
                    <div class=""question-area""></div> 
                </div>","null","","","","","","","","",""
"","","","","","html-button-response","160","430789","0.0-160.0","A37D6C13BEC34DB69E7F039AEE2FE2D4","019cf53b-9a0c-74e8-87c4-1a6faad8ac96","019cf509-e3f1-72d9-bf6b-e2f1118fdaab","","463","
                <div class=""stimulus-container"">
                    <img src=""images/schematic_sequence/interview_scheme/interview_scheme_9.png"" class=""exp-image"">
                    <div class=""question-area"">
                        <p style=""font-size: 20px; font-weight: bold; margin: 0;"">Is there a person in this image?</p>
                    </div>
                </div>","0","main_experiment_trial","9","interview_scheme","schematic_sequence","","","","",""
"","","","","","html-keyboard-response","161","435795","0.0-161.0","A37D6C13BEC34DB69E7F039AEE2FE2D4","019cf53b-9a0c-74e8-87c4-1a6faad8ac96","019cf509-e3f1-72d9-bf6b-e2f1118fdaab","","null","
                <div class=""stimulus-container"">
                    <img src=""images/schematic_sequence/interview_scheme/interview_scheme_ten.png"" class=""exp-image"">
                    <div class=""question-area""></div> 
                </div>","null","","","","","","","","",""
"","","","","","html-button-response","162","436246","0.0-162.0","A37D6C13BEC34DB69E7F039AEE2FE2D4","019cf53b-9a0c-74e8-87c4-1a6faad8ac96","019cf509-e3f1-72d9-bf6b-e2f1118fdaab","","451","
                <div class=""stimulus-container"">
                    <img src=""images/schematic_sequence/interview_scheme/interview_scheme_ten.png"" class=""exp-image"">
                    <div class=""question-area"">
                        <p style=""font-size: 20px; font-weight: bold; margin: 0;"">Is there a person in this image?</p>
                    </div>
                </div>","0","main_experiment_trial","ten","interview_scheme","schematic_sequence","","","","",""
"","","","","","html-keyboard-response","163","437251","0.0-163.0","A37D6C13BEC34DB69E7F039AEE2FE2D4","019cf53b-9a0c-74e8-87c4-1a6faad8ac96","019cf509-e3f1-72d9-bf6b-e2f1118fdaab","","null","<div style=""background-color: white; width: 100vw; height: 100vh;""></div>","null","","","","","","","","",""
"","","","","","html-keyboard-response","164","442265","0.0-164.0","A37D6C13BEC34DB69E7F039AEE2FE2D4","019cf53b-9a0c-74e8-87c4-1a6faad8ac96","019cf509-e3f1-72d9-bf6b-e2f1118fdaab","","null","
                <div class=""stimulus-container"">
                    <img src=""images/causal_sequence/museum_causal/museum_causal_1.png"" class=""exp-image"">
                    <div class=""question-area""></div> 
                </div>","null","","","","","","","","",""
"","","","","","html-button-response","165","442773","0.0-165.0","A37D6C13BEC34DB69E7F039AEE2FE2D4","019cf53b-9a0c-74e8-87c4-1a6faad8ac96","019cf509-e3f1-72d9-bf6b-e2f1118fdaab","","508","
                <div class=""stimulus-container"">
                    <img src=""images/causal_sequence/museum_causal/museum_causal_1.png"" class=""exp-image"">
                    <div class=""question-area"">
                        <p style=""font-size: 20px; font-weight: bold; margin: 0;"">Is there a person in this image?</p>
                    </div>
                </div>","0","main_experiment_trial","1","museum_causal","causal_sequence","","","","",""
"","","","","","html-keyboard-response","166","447786","0.0-166.0","A37D6C13BEC34DB69E7F039AEE2FE2D4","019cf53b-9a0c-74e8-87c4-1a6faad8ac96","019cf509-e3f1-72d9-bf6b-e2f1118fdaab","","null","
                <div class=""stimulus-container"">
                    <img src=""images/causal_sequence/museum_causal/museum_causal_2.png"" class=""exp-image"">
                    <div class=""question-area""></div> 
                </div>","null","","","","","","","","",""
"","","","","","html-button-response","167","448405","0.0-167.0","A37D6C13BEC34DB69E7F039AEE2FE2D4","019cf53b-9a0c-74e8-87c4-1a6faad8ac96","019cf509-e3f1-72d9-bf6b-e2f1118fdaab","","619","
                <div class=""stimulus-container"">
                    <img src=""images/causal_sequence/museum_causal/museum_causal_2.png"" class=""exp-image"">
                    <div class=""question-area"">
                        <p style=""font-size: 20px; font-weight: bold; margin: 0;"">Is there a person in this image?</p>
                    </div>
                </div>","1","main_experiment_trial","2","museum_causal","causal_sequence","","","","",""
"","","","","","html-keyboard-response","168","453421","0.0-168.0","A37D6C13BEC34DB69E7F039AEE2FE2D4","019cf53b-9a0c-74e8-87c4-1a6faad8ac96","019cf509-e3f1-72d9-bf6b-e2f1118fdaab","","null","
                <div class=""stimulus-container"">
                    <img src=""images/causal_sequence/museum_causal/museum_causal_3.png"" class=""exp-image"">
                    <div class=""question-area""></div> 
                </div>","null","","","","","","","","",""
"","","","","","html-button-response","169","453829","0.0-169.0","A37D6C13BEC34DB69E7F039AEE2FE2D4","019cf53b-9a0c-74e8-87c4-1a6faad8ac96","019cf509-e3f1-72d9-bf6b-e2f1118fdaab","","408","
                <div class=""stimulus-container"">
                    <img src=""images/causal_sequence/museum_causal/museum_causal_3.png"" class=""exp-image"">
                    <div class=""question-area"">
                        <p style=""font-size: 20px; font-weight: bold; margin: 0;"">Is there a person in this image?</p>
                    </div>
                </div>","0","main_experiment_trial","3","museum_causal","causal_sequence","","","","",""
"","","","","","html-keyboard-response","170","458833","0.0-170.0","A37D6C13BEC34DB69E7F039AEE2FE2D4","019cf53b-9a0c-74e8-87c4-1a6faad8ac96","019cf509-e3f1-72d9-bf6b-e2f1118fdaab","","null","
                <div class=""stimulus-container"">
                    <img src=""images/causal_sequence/museum_causal/museum_causal_4.png"" class=""exp-image"">
                    <div class=""question-area""></div> 
                </div>","null","","","","","","","","",""
"","","","","","html-button-response","171","459173","0.0-171.0","A37D6C13BEC34DB69E7F039AEE2FE2D4","019cf53b-9a0c-74e8-87c4-1a6faad8ac96","019cf509-e3f1-72d9-bf6b-e2f1118fdaab","","339","
                <div class=""stimulus-container"">
                    <img src=""images/causal_sequence/museum_causal/museum_causal_4.png"" class=""exp-image"">
                    <div class=""question-area"">
                        <p style=""font-size: 20px; font-weight: bold; margin: 0;"">Is there a person in this image?</p>
                    </div>
                </div>","1","main_experiment_trial","4","museum_causal","causal_sequence","","","","",""
"","","","","","html-keyboard-response","172","464184","0.0-172.0","A37D6C13BEC34DB69E7F039AEE2FE2D4","019cf53b-9a0c-74e8-87c4-1a6faad8ac96","019cf509-e3f1-72d9-bf6b-e2f1118fdaab","","null","
                <div class=""stimulus-container"">
                    <img src=""images/causal_sequence/museum_causal/museum_causal_5.png"" class=""exp-image"">
                    <div class=""question-area""></div> 
                </div>","null","","","","","","","","",""
"","","","","","html-button-response","173","465045","0.0-173.0","A37D6C13BEC34DB69E7F039AEE2FE2D4","019cf53b-9a0c-74e8-87c4-1a6faad8ac96","019cf509-e3f1-72d9-bf6b-e2f1118fdaab","","861","
                <div class=""stimulus-container"">
                    <img src=""images/causal_sequence/museum_causal/museum_causal_5.png"" class=""exp-image"">
                    <div class=""question-area"">
                        <p style=""font-size: 20px; font-weight: bold; margin: 0;"">Is there a person in this image?</p>
                    </div>
                </div>","0","main_experiment_trial","5","museum_causal","causal_sequence","","","","",""
"","","","","","html-keyboard-response","174","470053","0.0-174.0","A37D6C13BEC34DB69E7F039AEE2FE2D4","019cf53b-9a0c-74e8-87c4-1a6faad8ac96","019cf509-e3f1-72d9-bf6b-e2f1118fdaab","","null","
                <div class=""stimulus-container"">
                    <img src=""images/causal_sequence/museum_causal/museum_causal_6.png"" class=""exp-image"">
                    <div class=""question-area""></div> 
                </div>","null","","","","","","","","",""
"","","","","","html-button-response","175","470493","0.0-175.0","A37D6C13BEC34DB69E7F039AEE2FE2D4","019cf53b-9a0c-74e8-87c4-1a6faad8ac96","019cf509-e3f1-72d9-bf6b-e2f1118fdaab","","439","
                <div class=""stimulus-container"">
                    <img src=""images/causal_sequence/museum_causal/museum_causal_6.png"" class=""exp-image"">
                    <div class=""question-area"">
                        <p style=""font-size: 20px; font-weight: bold; margin: 0;"">Is there a person in this image?</p>
                    </div>
                </div>","0","main_experiment_trial","6","museum_causal","causal_sequence","","","","",""
"","","","","","html-keyboard-response","176","475498","0.0-176.0","A37D6C13BEC34DB69E7F039AEE2FE2D4","019cf53b-9a0c-74e8-87c4-1a6faad8ac96","019cf509-e3f1-72d9-bf6b-e2f1118fdaab","","null","
                <div class=""stimulus-container"">
                    <img src=""images/causal_sequence/museum_causal/museum_causal_7.png"" class=""exp-image"">
                    <div class=""question-area""></div> 
                </div>","null","","","","","","","","",""
"","","","","","html-button-response","177","475893","0.0-177.0","A37D6C13BEC34DB69E7F039AEE2FE2D4","019cf53b-9a0c-74e8-87c4-1a6faad8ac96","019cf509-e3f1-72d9-bf6b-e2f1118fdaab","","394","
                <div class=""stimulus-container"">
                    <img src=""images/causal_sequence/museum_causal/museum_causal_7.png"" class=""exp-image"">
                    <div class=""question-area"">
                        <p style=""font-size: 20px; font-weight: bold; margin: 0;"">Is there a person in this image?</p>
                    </div>
                </div>","1","main_experiment_trial","7","museum_causal","causal_sequence","","","","",""
"","","","","","html-keyboard-response","178","480906","0.0-178.0","A37D6C13BEC34DB69E7F039AEE2FE2D4","019cf53b-9a0c-74e8-87c4-1a6faad8ac96","019cf509-e3f1-72d9-bf6b-e2f1118fdaab","","null","
                <div class=""stimulus-container"">
                    <img src=""images/causal_sequence/museum_causal/museum_causal_8.png"" class=""exp-image"">
                    <div class=""question-area""></div> 
                </div>","null","","","","","","","","",""
"","","","","","html-button-response","179","481277","0.0-179.0","A37D6C13BEC34DB69E7F039AEE2FE2D4","019cf53b-9a0c-74e8-87c4-1a6faad8ac96","019cf509-e3f1-72d9-bf6b-e2f1118fdaab","","370","
                <div class=""stimulus-container"">
                    <img src=""images/causal_sequence/museum_causal/museum_causal_8.png"" class=""exp-image"">
                    <div class=""question-area"">
                        <p style=""font-size: 20px; font-weight: bold; margin: 0;"">Is there a person in this image?</p>
                    </div>
                </div>","0","main_experiment_trial","8","museum_causal","causal_sequence","","","","",""
"","","","","","html-keyboard-response","180","486286","0.0-180.0","A37D6C13BEC34DB69E7F039AEE2FE2D4","019cf53b-9a0c-74e8-87c4-1a6faad8ac96","019cf509-e3f1-72d9-bf6b-e2f1118fdaab","","null","
                <div class=""stimulus-container"">
                    <img src=""images/causal_sequence/museum_causal/museum_causal_9.png"" class=""exp-image"">
                    <div class=""question-area""></div> 
                </div>","null","","","","","","","","",""
"","","","","","html-button-response","181","486701","0.0-181.0","A37D6C13BEC34DB69E7F039AEE2FE2D4","019cf53b-9a0c-74e8-87c4-1a6faad8ac96","019cf509-e3f1-72d9-bf6b-e2f1118fdaab","","414","
                <div class=""stimulus-container"">
                    <img src=""images/causal_sequence/museum_causal/museum_causal_9.png"" class=""exp-image"">
                    <div class=""question-area"">
                        <p style=""font-size: 20px; font-weight: bold; margin: 0;"">Is there a person in this image?</p>
                    </div>
                </div>","1","main_experiment_trial","9","museum_causal","causal_sequence","","","","",""
"","","","","","html-keyboard-response","182","491710","0.0-182.0","A37D6C13BEC34DB69E7F039AEE2FE2D4","019cf53b-9a0c-74e8-87c4-1a6faad8ac96","019cf509-e3f1-72d9-bf6b-e2f1118fdaab","","null","
                <div class=""stimulus-container"">
                    <img src=""images/causal_sequence/museum_causal/museum_causal_ten.png"" class=""exp-image"">
                    <div class=""question-area""></div> 
                </div>","null","","","","","","","","",""
