"success","timeout","failed_images","failed_audio","failed_video","trial_type","trial_index","time_elapsed","internal_node_id","subject_id","study_id","session_id","view_history","rt","stimulus","response","task","image_index","folder","sequence_type","valuable_image_index","reward_type","correct_choice","chosen_image_index","target_X"
"true","false","[]","[]","[]","preload","0","864","0.0-0.0","97A46BAC56584159927D0D98CAEED672","019cf810-4a11-766d-8bb7-bfd1f13a3146","019cf80d-4266-7117-8a51-54e13c84aca4","","","","","","","","","","","","",""
"","","","","","instructions","1","3292","0.0-1.0","97A46BAC56584159927D0D98CAEED672","019cf810-4a11-766d-8bb7-bfd1f13a3146","019cf80d-4266-7117-8a51-54e13c84aca4","[{""page_index"":0,""viewing_time"":2428}]","2429","","","","","","","","","","",""
"","","","","","instructions","2","6095","0.0-2.0","97A46BAC56584159927D0D98CAEED672","019cf810-4a11-766d-8bb7-bfd1f13a3146","019cf80d-4266-7117-8a51-54e13c84aca4","[{""page_index"":0,""viewing_time"":2802}]","2802","","","","","","","","","","",""
"true","","","","","fullscreen","3","16699","0.0-3.0","97A46BAC56584159927D0D98CAEED672","019cf810-4a11-766d-8bb7-bfd1f13a3146","019cf80d-4266-7117-8a51-54e13c84aca4","","9600","","","","","","","","","","",""
"","","","","","instructions","4","17778","0.0-4.0","97A46BAC56584159927D0D98CAEED672","019cf810-4a11-766d-8bb7-bfd1f13a3146","019cf80d-4266-7117-8a51-54e13c84aca4","[{""page_index"":0,""viewing_time"":1079}]","1079","","","","","","","","","","",""
"","","","","","instructions","5","22517","0.0-5.0","97A46BAC56584159927D0D98CAEED672","019cf810-4a11-766d-8bb7-bfd1f13a3146","019cf80d-4266-7117-8a51-54e13c84aca4","[{""page_index"":0,""viewing_time"":4738}]","4738","","","","","","","","","","",""
"","","","","","html-keyboard-response","6","26518","0.0-6.0","97A46BAC56584159927D0D98CAEED672","019cf810-4a11-766d-8bb7-bfd1f13a3146","019cf80d-4266-7117-8a51-54e13c84aca4","","null","
                <div class=""stimulus-container"">
                    <img src=""images/instructions/movie_1.png"" class=""exp-image"">
                    <div class=""question-area""></div> 
                </div>","null","","","","","","","","",""
"","","","","","html-button-response","7","26961","0.0-7.0","97A46BAC56584159927D0D98CAEED672","019cf810-4a11-766d-8bb7-bfd1f13a3146","019cf80d-4266-7117-8a51-54e13c84aca4","","441","
                <div class=""stimulus-container"">
                    <img src=""images/instructions/movie_1.png"" class=""exp-image"">
                    <div class=""question-area"">
                        <p style=""font-size: 20px; font-weight: bold; margin: 0;"">Was there a person in this image?</p>
                    </div>
                </div>","0","example_question","1","","","","","","",""
"","","","","","html-keyboard-response","8","30963","0.0-8.0","97A46BAC56584159927D0D98CAEED672","019cf810-4a11-766d-8bb7-bfd1f13a3146","019cf80d-4266-7117-8a51-54e13c84aca4","","null","
                <div class=""stimulus-container"">
                    <img src=""images/instructions/movie_2.png"" class=""exp-image"">
                    <div class=""question-area""></div> 
                </div>","null","","","","","","","","",""
"","","","","","html-button-response","9","31758","0.0-9.0","97A46BAC56584159927D0D98CAEED672","019cf810-4a11-766d-8bb7-bfd1f13a3146","019cf80d-4266-7117-8a51-54e13c84aca4","","794","
                <div class=""stimulus-container"">
                    <img src=""images/instructions/movie_2.png"" class=""exp-image"">
                    <div class=""question-area"">
                        <p style=""font-size: 20px; font-weight: bold; margin: 0;"">Was there a person in this image?</p>
                    </div>
                </div>","0","example_question","2","","","","","","",""
"","","","","","html-keyboard-response","10","35760","0.0-10.0","97A46BAC56584159927D0D98CAEED672","019cf810-4a11-766d-8bb7-bfd1f13a3146","019cf80d-4266-7117-8a51-54e13c84aca4","","null","
                <div class=""stimulus-container"">
                    <img src=""images/instructions/movie_3.png"" class=""exp-image"">
                    <div class=""question-area""></div> 
                </div>","null","","","","","","","","",""
"","","","","","html-button-response","11","36216","0.0-11.0","97A46BAC56584159927D0D98CAEED672","019cf810-4a11-766d-8bb7-bfd1f13a3146","019cf80d-4266-7117-8a51-54e13c84aca4","","456","
                <div class=""stimulus-container"">
                    <img src=""images/instructions/movie_3.png"" class=""exp-image"">
                    <div class=""question-area"">
                        <p style=""font-size: 20px; font-weight: bold; margin: 0;"">Was there a person in this image?</p>
                    </div>
                </div>","0","example_question","3","","","","","","",""
"","","","","","html-keyboard-response","12","40219","0.0-12.0","97A46BAC56584159927D0D98CAEED672","019cf810-4a11-766d-8bb7-bfd1f13a3146","019cf80d-4266-7117-8a51-54e13c84aca4","","null","
                <div class=""stimulus-container"">
                    <img src=""images/instructions/movie_4.png"" class=""exp-image"">
                    <div class=""question-area""></div> 
                </div>","null","","","","","","","","",""
"","","","","","html-button-response","13","40627","0.0-13.0","97A46BAC56584159927D0D98CAEED672","019cf810-4a11-766d-8bb7-bfd1f13a3146","019cf80d-4266-7117-8a51-54e13c84aca4","","407","
                <div class=""stimulus-container"">
                    <img src=""images/instructions/movie_4.png"" class=""exp-image"">
                    <div class=""question-area"">
                        <p style=""font-size: 20px; font-weight: bold; margin: 0;"">Was there a person in this image?</p>
                    </div>
                </div>","0","example_question","4","","","","","","",""
"","","","","","instructions","14","42995","0.0-14.0","97A46BAC56584159927D0D98CAEED672","019cf810-4a11-766d-8bb7-bfd1f13a3146","019cf80d-4266-7117-8a51-54e13c84aca4","[{""page_index"":0,""viewing_time"":2367}]","2367","","","","","","","","","","",""
"","","","","","instructions","15","43817","0.0-15.0","97A46BAC56584159927D0D98CAEED672","019cf810-4a11-766d-8bb7-bfd1f13a3146","019cf80d-4266-7117-8a51-54e13c84aca4","[{""page_index"":0,""viewing_time"":822}]","823","","","","","","","","","","",""
"","","","","","html-keyboard-response","16","44820","0.0-16.0","97A46BAC56584159927D0D98CAEED672","019cf810-4a11-766d-8bb7-bfd1f13a3146","019cf80d-4266-7117-8a51-54e13c84aca4","","null","<div style=""background-color: white; width: 100vw; height: 100vh;""></div>","null","","","","","","","","",""
"","","","","","html-keyboard-response","17","49822","0.0-17.0","97A46BAC56584159927D0D98CAEED672","019cf810-4a11-766d-8bb7-bfd1f13a3146","019cf80d-4266-7117-8a51-54e13c84aca4","","null","
                <div class=""stimulus-container"">
                    <img src=""images/semantic_sequence/creative_activities_semantic/creative_activities_semantic_1.png"" class=""exp-image"">
                    <div class=""question-area""></div> 
                </div>","null","","","","","","","","",""
"","","","","","html-button-response","18","51244","0.0-18.0","97A46BAC56584159927D0D98CAEED672","019cf810-4a11-766d-8bb7-bfd1f13a3146","019cf80d-4266-7117-8a51-54e13c84aca4","","1421","
                <div class=""stimulus-container"">
                    <img src=""images/semantic_sequence/creative_activities_semantic/creative_activities_semantic_1.png"" class=""exp-image"">
                    <div class=""question-area"">
                        <p style=""font-size: 20px; font-weight: bold; margin: 0;"">Is there a person in this image?</p>
                    </div>
                </div>","0","main_experiment_trial","1","creative_activities_semantic","semantic_sequence","","","","",""
"","","","","","html-keyboard-response","19","56246","0.0-19.0","97A46BAC56584159927D0D98CAEED672","019cf810-4a11-766d-8bb7-bfd1f13a3146","019cf80d-4266-7117-8a51-54e13c84aca4","","null","
                <div class=""stimulus-container"">
                    <img src=""images/semantic_sequence/creative_activities_semantic/creative_activities_semantic_2.png"" class=""exp-image"">
                    <div class=""question-area""></div> 
                </div>","null","","","","","","","","",""
"","","","","","html-button-response","20","57150","0.0-20.0","97A46BAC56584159927D0D98CAEED672","019cf810-4a11-766d-8bb7-bfd1f13a3146","019cf80d-4266-7117-8a51-54e13c84aca4","","903","
                <div class=""stimulus-container"">
                    <img src=""images/semantic_sequence/creative_activities_semantic/creative_activities_semantic_2.png"" class=""exp-image"">
                    <div class=""question-area"">
                        <p style=""font-size: 20px; font-weight: bold; margin: 0;"">Is there a person in this image?</p>
                    </div>
                </div>","0","main_experiment_trial","2","creative_activities_semantic","semantic_sequence","","","","",""
"","","","","","html-keyboard-response","21","62153","0.0-21.0","97A46BAC56584159927D0D98CAEED672","019cf810-4a11-766d-8bb7-bfd1f13a3146","019cf80d-4266-7117-8a51-54e13c84aca4","","null","
                <div class=""stimulus-container"">
                    <img src=""images/semantic_sequence/creative_activities_semantic/creative_activities_semantic_3.png"" class=""exp-image"">
                    <div class=""question-area""></div> 
                </div>","null","","","","","","","","",""
"","","","","","html-button-response","22","62706","0.0-22.0","97A46BAC56584159927D0D98CAEED672","019cf810-4a11-766d-8bb7-bfd1f13a3146","019cf80d-4266-7117-8a51-54e13c84aca4","","552","
                <div class=""stimulus-container"">
                    <img src=""images/semantic_sequence/creative_activities_semantic/creative_activities_semantic_3.png"" class=""exp-image"">
                    <div class=""question-area"">
                        <p style=""font-size: 20px; font-weight: bold; margin: 0;"">Is there a person in this image?</p>
                    </div>
                </div>","0","main_experiment_trial","3","creative_activities_semantic","semantic_sequence","","","","",""
"","","","","","html-keyboard-response","23","67708","0.0-23.0","97A46BAC56584159927D0D98CAEED672","019cf810-4a11-766d-8bb7-bfd1f13a3146","019cf80d-4266-7117-8a51-54e13c84aca4","","null","
                <div class=""stimulus-container"">
                    <img src=""images/semantic_sequence/creative_activities_semantic/creative_activities_semantic_4.png"" class=""exp-image"">
                    <div class=""question-area""></div> 
                </div>","null","","","","","","","","",""
"","","","","","html-button-response","24","68429","0.0-24.0","97A46BAC56584159927D0D98CAEED672","019cf810-4a11-766d-8bb7-bfd1f13a3146","019cf80d-4266-7117-8a51-54e13c84aca4","","719","
                <div class=""stimulus-container"">
                    <img src=""images/semantic_sequence/creative_activities_semantic/creative_activities_semantic_4.png"" class=""exp-image"">
                    <div class=""question-area"">
                        <p style=""font-size: 20px; font-weight: bold; margin: 0;"">Is there a person in this image?</p>
                    </div>
                </div>","0","main_experiment_trial","4","creative_activities_semantic","semantic_sequence","","","","",""
"","","","","","html-keyboard-response","25","73431","0.0-25.0","97A46BAC56584159927D0D98CAEED672","019cf810-4a11-766d-8bb7-bfd1f13a3146","019cf80d-4266-7117-8a51-54e13c84aca4","","null","
                <div class=""stimulus-container"">
                    <img src=""images/semantic_sequence/creative_activities_semantic/creative_activities_semantic_5.png"" class=""exp-image"">
                    <div class=""question-area""></div> 
                </div>","null","","","","","","","","",""
"","","","","","html-button-response","26","73940","0.0-26.0","97A46BAC56584159927D0D98CAEED672","019cf810-4a11-766d-8bb7-bfd1f13a3146","019cf80d-4266-7117-8a51-54e13c84aca4","","508","
                <div class=""stimulus-container"">
                    <img src=""images/semantic_sequence/creative_activities_semantic/creative_activities_semantic_5.png"" class=""exp-image"">
                    <div class=""question-area"">
                        <p style=""font-size: 20px; font-weight: bold; margin: 0;"">Is there a person in this image?</p>
                    </div>
                </div>","0","main_experiment_trial","5","creative_activities_semantic","semantic_sequence","","","","",""
"","","","","","html-keyboard-response","27","78942","0.0-27.0","97A46BAC56584159927D0D98CAEED672","019cf810-4a11-766d-8bb7-bfd1f13a3146","019cf80d-4266-7117-8a51-54e13c84aca4","","null","
                <div class=""stimulus-container"">
                    <img src=""images/semantic_sequence/creative_activities_semantic/creative_activities_semantic_6.png"" class=""exp-image"">
                    <div class=""question-area""></div> 
                </div>","null","","","","","","","","",""
"","","","","","html-button-response","28","79608","0.0-28.0","97A46BAC56584159927D0D98CAEED672","019cf810-4a11-766d-8bb7-bfd1f13a3146","019cf80d-4266-7117-8a51-54e13c84aca4","","665","
                <div class=""stimulus-container"">
                    <img src=""images/semantic_sequence/creative_activities_semantic/creative_activities_semantic_6.png"" class=""exp-image"">
                    <div class=""question-area"">
                        <p style=""font-size: 20px; font-weight: bold; margin: 0;"">Is there a person in this image?</p>
                    </div>
                </div>","0","main_experiment_trial","6","creative_activities_semantic","semantic_sequence","","","","",""
"","","","","","html-keyboard-response","29","84611","0.0-29.0","97A46BAC56584159927D0D98CAEED672","019cf810-4a11-766d-8bb7-bfd1f13a3146","019cf80d-4266-7117-8a51-54e13c84aca4","","null","
                <div class=""stimulus-container"">
                    <img src=""images/semantic_sequence/creative_activities_semantic/creative_activities_semantic_7.png"" class=""exp-image"">
                    <div class=""question-area""></div> 
                </div>","null","","","","","","","","",""
"","","","","","html-button-response","30","85445","0.0-30.0","97A46BAC56584159927D0D98CAEED672","019cf810-4a11-766d-8bb7-bfd1f13a3146","019cf80d-4266-7117-8a51-54e13c84aca4","","834","
                <div class=""stimulus-container"">
                    <img src=""images/semantic_sequence/creative_activities_semantic/creative_activities_semantic_7.png"" class=""exp-image"">
                    <div class=""question-area"">
                        <p style=""font-size: 20px; font-weight: bold; margin: 0;"">Is there a person in this image?</p>
                    </div>
                </div>","0","main_experiment_trial","7","creative_activities_semantic","semantic_sequence","","","","",""
"","","","","","html-keyboard-response","31","90447","0.0-31.0","97A46BAC56584159927D0D98CAEED672","019cf810-4a11-766d-8bb7-bfd1f13a3146","019cf80d-4266-7117-8a51-54e13c84aca4","","null","
                <div class=""stimulus-container"">
                    <img src=""images/semantic_sequence/creative_activities_semantic/creative_activities_semantic_8.png"" class=""exp-image"">
                    <div class=""question-area""></div> 
                </div>","null","","","","","","","","",""
"","","","","","html-button-response","32","91515","0.0-32.0","97A46BAC56584159927D0D98CAEED672","019cf810-4a11-766d-8bb7-bfd1f13a3146","019cf80d-4266-7117-8a51-54e13c84aca4","","1066","
                <div class=""stimulus-container"">
                    <img src=""images/semantic_sequence/creative_activities_semantic/creative_activities_semantic_8.png"" class=""exp-image"">
                    <div class=""question-area"">
                        <p style=""font-size: 20px; font-weight: bold; margin: 0;"">Is there a person in this image?</p>
                    </div>
                </div>","0","main_experiment_trial","8","creative_activities_semantic","semantic_sequence","","","","",""
"","","","","","html-keyboard-response","33","96517","0.0-33.0","97A46BAC56584159927D0D98CAEED672","019cf810-4a11-766d-8bb7-bfd1f13a3146","019cf80d-4266-7117-8a51-54e13c84aca4","","null","
                <div class=""stimulus-container"">
                    <img src=""images/semantic_sequence/creative_activities_semantic/creative_activities_semantic_9.png"" class=""exp-image"">
                    <div class=""question-area""></div> 
                </div>","null","","","","","","","","",""
"","","","","","html-button-response","34","97090","0.0-34.0","97A46BAC56584159927D0D98CAEED672","019cf810-4a11-766d-8bb7-bfd1f13a3146","019cf80d-4266-7117-8a51-54e13c84aca4","","572","
                <div class=""stimulus-container"">
                    <img src=""images/semantic_sequence/creative_activities_semantic/creative_activities_semantic_9.png"" class=""exp-image"">
                    <div class=""question-area"">
                        <p style=""font-size: 20px; font-weight: bold; margin: 0;"">Is there a person in this image?</p>
                    </div>
                </div>","0","main_experiment_trial","9","creative_activities_semantic","semantic_sequence","","","","",""
"","","","","","html-keyboard-response","35","102092","0.0-35.0","97A46BAC56584159927D0D98CAEED672","019cf810-4a11-766d-8bb7-bfd1f13a3146","019cf80d-4266-7117-8a51-54e13c84aca4","","null","
                <div class=""stimulus-container"">
                    <img src=""images/semantic_sequence/creative_activities_semantic/creative_activities_semantic_ten.png"" class=""exp-image"">
                    <div class=""question-area""></div> 
                </div>","null","","","","","","","","",""
"","","","","","html-button-response","36","102723","0.0-36.0","97A46BAC56584159927D0D98CAEED672","019cf810-4a11-766d-8bb7-bfd1f13a3146","019cf80d-4266-7117-8a51-54e13c84aca4","","629","
                <div class=""stimulus-container"">
                    <img src=""images/semantic_sequence/creative_activities_semantic/creative_activities_semantic_ten.png"" class=""exp-image"">
                    <div class=""question-area"">
                        <p style=""font-size: 20px; font-weight: bold; margin: 0;"">Is there a person in this image?</p>
                    </div>
                </div>","0","main_experiment_trial","ten","creative_activities_semantic","semantic_sequence","","","","",""
"","","","","","html-keyboard-response","37","103724","0.0-37.0","97A46BAC56584159927D0D98CAEED672","019cf810-4a11-766d-8bb7-bfd1f13a3146","019cf80d-4266-7117-8a51-54e13c84aca4","","null","<div style=""background-color: white; width: 100vw; height: 100vh;""></div>","null","","","","","","","","",""
"","","","","","html-keyboard-response","38","108727","0.0-38.0","97A46BAC56584159927D0D98CAEED672","019cf810-4a11-766d-8bb7-bfd1f13a3146","019cf80d-4266-7117-8a51-54e13c84aca4","","null","
                <div class=""stimulus-container"">
                    <img src=""images/semantic_sequence/cat_care_semantic/cat_care_semantic_1.png"" class=""exp-image"">
                    <div class=""question-area""></div> 
                </div>","null","","","","","","","","",""
"","","","","","html-button-response","39","109220","0.0-39.0","97A46BAC56584159927D0D98CAEED672","019cf810-4a11-766d-8bb7-bfd1f13a3146","019cf80d-4266-7117-8a51-54e13c84aca4","","491","
                <div class=""stimulus-container"">
                    <img src=""images/semantic_sequence/cat_care_semantic/cat_care_semantic_1.png"" class=""exp-image"">
                    <div class=""question-area"">
                        <p style=""font-size: 20px; font-weight: bold; margin: 0;"">Is there a person in this image?</p>
                    </div>
                </div>","0","main_experiment_trial","1","cat_care_semantic","semantic_sequence","","","","",""
"","","","","","html-keyboard-response","40","114223","0.0-40.0","97A46BAC56584159927D0D98CAEED672","019cf810-4a11-766d-8bb7-bfd1f13a3146","019cf80d-4266-7117-8a51-54e13c84aca4","","null","
                <div class=""stimulus-container"">
                    <img src=""images/semantic_sequence/cat_care_semantic/cat_care_semantic_2.png"" class=""exp-image"">
                    <div class=""question-area""></div> 
                </div>","null","","","","","","","","",""
"","","","","","html-button-response","41","115398","0.0-41.0","97A46BAC56584159927D0D98CAEED672","019cf810-4a11-766d-8bb7-bfd1f13a3146","019cf80d-4266-7117-8a51-54e13c84aca4","","1173","
                <div class=""stimulus-container"">
                    <img src=""images/semantic_sequence/cat_care_semantic/cat_care_semantic_2.png"" class=""exp-image"">
                    <div class=""question-area"">
                        <p style=""font-size: 20px; font-weight: bold; margin: 0;"">Is there a person in this image?</p>
                    </div>
                </div>","0","main_experiment_trial","2","cat_care_semantic","semantic_sequence","","","","",""
"","","","","","html-keyboard-response","42","120400","0.0-42.0","97A46BAC56584159927D0D98CAEED672","019cf810-4a11-766d-8bb7-bfd1f13a3146","019cf80d-4266-7117-8a51-54e13c84aca4","","null","
                <div class=""stimulus-container"">
                    <img src=""images/semantic_sequence/cat_care_semantic/cat_care_semantic_3.png"" class=""exp-image"">
                    <div class=""question-area""></div> 
                </div>","null","","","","","","","","",""
"","","","","","html-button-response","43","120681","0.0-43.0","97A46BAC56584159927D0D98CAEED672","019cf810-4a11-766d-8bb7-bfd1f13a3146","019cf80d-4266-7117-8a51-54e13c84aca4","","280","
                <div class=""stimulus-container"">
                    <img src=""images/semantic_sequence/cat_care_semantic/cat_care_semantic_3.png"" class=""exp-image"">
                    <div class=""question-area"">
                        <p style=""font-size: 20px; font-weight: bold; margin: 0;"">Is there a person in this image?</p>
                    </div>
                </div>","0","main_experiment_trial","3","cat_care_semantic","semantic_sequence","","","","",""
"","","","","","html-keyboard-response","44","125683","0.0-44.0","97A46BAC56584159927D0D98CAEED672","019cf810-4a11-766d-8bb7-bfd1f13a3146","019cf80d-4266-7117-8a51-54e13c84aca4","","null","
                <div class=""stimulus-container"">
                    <img src=""images/semantic_sequence/cat_care_semantic/cat_care_semantic_4.png"" class=""exp-image"">
                    <div class=""question-area""></div> 
                </div>","null","","","","","","","","",""
"","","","","","html-button-response","45","126233","0.0-45.0","97A46BAC56584159927D0D98CAEED672","019cf810-4a11-766d-8bb7-bfd1f13a3146","019cf80d-4266-7117-8a51-54e13c84aca4","","548","
                <div class=""stimulus-container"">
                    <img src=""images/semantic_sequence/cat_care_semantic/cat_care_semantic_4.png"" class=""exp-image"">
                    <div class=""question-area"">
                        <p style=""font-size: 20px; font-weight: bold; margin: 0;"">Is there a person in this image?</p>
                    </div>
                </div>","0","main_experiment_trial","4","cat_care_semantic","semantic_sequence","","","","",""
"","","","","","html-keyboard-response","46","131234","0.0-46.0","97A46BAC56584159927D0D98CAEED672","019cf810-4a11-766d-8bb7-bfd1f13a3146","019cf80d-4266-7117-8a51-54e13c84aca4","","null","
                <div class=""stimulus-container"">
                    <img src=""images/semantic_sequence/cat_care_semantic/cat_care_semantic_5.png"" class=""exp-image"">
                    <div class=""question-area""></div> 
                </div>","null","","","","","","","","",""
"","","","","","html-button-response","47","131966","0.0-47.0","97A46BAC56584159927D0D98CAEED672","019cf810-4a11-766d-8bb7-bfd1f13a3146","019cf80d-4266-7117-8a51-54e13c84aca4","","730","
                <div class=""stimulus-container"">
                    <img src=""images/semantic_sequence/cat_care_semantic/cat_care_semantic_5.png"" class=""exp-image"">
                    <div class=""question-area"">
                        <p style=""font-size: 20px; font-weight: bold; margin: 0;"">Is there a person in this image?</p>
                    </div>
                </div>","0","main_experiment_trial","5","cat_care_semantic","semantic_sequence","","","","",""
"","","","","","html-keyboard-response","48","136968","0.0-48.0","97A46BAC56584159927D0D98CAEED672","019cf810-4a11-766d-8bb7-bfd1f13a3146","019cf80d-4266-7117-8a51-54e13c84aca4","","null","
                <div class=""stimulus-container"">
                    <img src=""images/semantic_sequence/cat_care_semantic/cat_care_semantic_6.png"" class=""exp-image"">
                    <div class=""question-area""></div> 
                </div>","null","","","","","","","","",""
"","","","","","html-button-response","49","139972","0.0-49.0","97A46BAC56584159927D0D98CAEED672","019cf810-4a11-766d-8bb7-bfd1f13a3146","019cf80d-4266-7117-8a51-54e13c84aca4","","null","
                <div class=""stimulus-container"">
                    <img src=""images/semantic_sequence/cat_care_semantic/cat_care_semantic_6.png"" class=""exp-image"">
                    <div class=""question-area"">
                        <p style=""font-size: 20px; font-weight: bold; margin: 0;"">Is there a person in this image?</p>
                    </div>
                </div>","null","main_experiment_trial","6","cat_care_semantic","semantic_sequence","","","","",""
"","","","","","html-keyboard-response","50","144975","0.0-50.0","97A46BAC56584159927D0D98CAEED672","019cf810-4a11-766d-8bb7-bfd1f13a3146","019cf80d-4266-7117-8a51-54e13c84aca4","","null","
                <div class=""stimulus-container"">
                    <img src=""images/semantic_sequence/cat_care_semantic/cat_care_semantic_7.png"" class=""exp-image"">
                    <div class=""question-area""></div> 
                </div>","null","","","","","","","","",""
"","","","","","html-button-response","51","146008","0.0-51.0","97A46BAC56584159927D0D98CAEED672","019cf810-4a11-766d-8bb7-bfd1f13a3146","019cf80d-4266-7117-8a51-54e13c84aca4","","1032","
                <div class=""stimulus-container"">
                    <img src=""images/semantic_sequence/cat_care_semantic/cat_care_semantic_7.png"" class=""exp-image"">
                    <div class=""question-area"">
                        <p style=""font-size: 20px; font-weight: bold; margin: 0;"">Is there a person in this image?</p>
                    </div>
                </div>","0","main_experiment_trial","7","cat_care_semantic","semantic_sequence","","","","",""
"","","","","","html-keyboard-response","52","151011","0.0-52.0","97A46BAC56584159927D0D98CAEED672","019cf810-4a11-766d-8bb7-bfd1f13a3146","019cf80d-4266-7117-8a51-54e13c84aca4","","null","
                <div class=""stimulus-container"">
                    <img src=""images/semantic_sequence/cat_care_semantic/cat_care_semantic_8.png"" class=""exp-image"">
                    <div class=""question-area""></div> 
                </div>","null","","","","","","","","",""
"","","","","","html-button-response","53","153259","0.0-53.0","97A46BAC56584159927D0D98CAEED672","019cf810-4a11-766d-8bb7-bfd1f13a3146","019cf80d-4266-7117-8a51-54e13c84aca4","","2247","
                <div class=""stimulus-container"">
                    <img src=""images/semantic_sequence/cat_care_semantic/cat_care_semantic_8.png"" class=""exp-image"">
                    <div class=""question-area"">
                        <p style=""font-size: 20px; font-weight: bold; margin: 0;"">Is there a person in this image?</p>
                    </div>
                </div>","0","main_experiment_trial","8","cat_care_semantic","semantic_sequence","","","","",""
"","","","","","html-keyboard-response","54","158261","0.0-54.0","97A46BAC56584159927D0D98CAEED672","019cf810-4a11-766d-8bb7-bfd1f13a3146","019cf80d-4266-7117-8a51-54e13c84aca4","","null","
                <div class=""stimulus-container"">
                    <img src=""images/semantic_sequence/cat_care_semantic/cat_care_semantic_9.png"" class=""exp-image"">
                    <div class=""question-area""></div> 
                </div>","null","","","","","","","","",""
"","","","","","html-button-response","55","159533","0.0-55.0","97A46BAC56584159927D0D98CAEED672","019cf810-4a11-766d-8bb7-bfd1f13a3146","019cf80d-4266-7117-8a51-54e13c84aca4","","1271","
                <div class=""stimulus-container"">
                    <img src=""images/semantic_sequence/cat_care_semantic/cat_care_semantic_9.png"" class=""exp-image"">
                    <div class=""question-area"">
                        <p style=""font-size: 20px; font-weight: bold; margin: 0;"">Is there a person in this image?</p>
                    </div>
                </div>","0","main_experiment_trial","9","cat_care_semantic","semantic_sequence","","","","",""
"","","","","","html-keyboard-response","56","164536","0.0-56.0","97A46BAC56584159927D0D98CAEED672","019cf810-4a11-766d-8bb7-bfd1f13a3146","019cf80d-4266-7117-8a51-54e13c84aca4","","null","
                <div class=""stimulus-container"">
                    <img src=""images/semantic_sequence/cat_care_semantic/cat_care_semantic_ten.png"" class=""exp-image"">
                    <div class=""question-area""></div> 
                </div>","null","","","","","","","","",""
"","","","","","html-button-response","57","165298","0.0-57.0","97A46BAC56584159927D0D98CAEED672","019cf810-4a11-766d-8bb7-bfd1f13a3146","019cf80d-4266-7117-8a51-54e13c84aca4","","761","
                <div class=""stimulus-container"">
                    <img src=""images/semantic_sequence/cat_care_semantic/cat_care_semantic_ten.png"" class=""exp-image"">
                    <div class=""question-area"">
                        <p style=""font-size: 20px; font-weight: bold; margin: 0;"">Is there a person in this image?</p>
                    </div>
                </div>","1","main_experiment_trial","ten","cat_care_semantic","semantic_sequence","","","","",""
"","","","","","html-keyboard-response","58","166299","0.0-58.0","97A46BAC56584159927D0D98CAEED672","019cf810-4a11-766d-8bb7-bfd1f13a3146","019cf80d-4266-7117-8a51-54e13c84aca4","","null","<div style=""background-color: white; width: 100vw; height: 100vh;""></div>","null","","","","","","","","",""
"","","","","","html-keyboard-response","59","171301","0.0-59.0","97A46BAC56584159927D0D98CAEED672","019cf810-4a11-766d-8bb7-bfd1f13a3146","019cf80d-4266-7117-8a51-54e13c84aca4","","null","
                <div class=""stimulus-container"">
                    <img src=""images/schematic_sequence/restaurant_scheme/restaurant_scheme_1.png"" class=""exp-image"">
                    <div class=""question-area""></div> 
                </div>","null","","","","","","","","",""
"","","","","","html-button-response","60","171915","0.0-60.0","97A46BAC56584159927D0D98CAEED672","019cf810-4a11-766d-8bb7-bfd1f13a3146","019cf80d-4266-7117-8a51-54e13c84aca4","","613","
                <div class=""stimulus-container"">
                    <img src=""images/schematic_sequence/restaurant_scheme/restaurant_scheme_1.png"" class=""exp-image"">
                    <div class=""question-area"">
                        <p style=""font-size: 20px; font-weight: bold; margin: 0;"">Is there a person in this image?</p>
                    </div>
                </div>","0","main_experiment_trial","1","restaurant_scheme","schematic_sequence","","","","",""
"","","","","","html-keyboard-response","61","176918","0.0-61.0","97A46BAC56584159927D0D98CAEED672","019cf810-4a11-766d-8bb7-bfd1f13a3146","019cf80d-4266-7117-8a51-54e13c84aca4","","null","
                <div class=""stimulus-container"">
                    <img src=""images/schematic_sequence/restaurant_scheme/restaurant_scheme_2.png"" class=""exp-image"">
                    <div class=""question-area""></div> 
                </div>","null","","","","","","","","",""
"","","","","","html-button-response","62","177923","0.0-62.0","97A46BAC56584159927D0D98CAEED672","019cf810-4a11-766d-8bb7-bfd1f13a3146","019cf80d-4266-7117-8a51-54e13c84aca4","","1004","
                <div class=""stimulus-container"">
                    <img src=""images/schematic_sequence/restaurant_scheme/restaurant_scheme_2.png"" class=""exp-image"">
                    <div class=""question-area"">
                        <p style=""font-size: 20px; font-weight: bold; margin: 0;"">Is there a person in this image?</p>
                    </div>
                </div>","1","main_experiment_trial","2","restaurant_scheme","schematic_sequence","","","","",""
"","","","","","html-keyboard-response","63","182926","0.0-63.0","97A46BAC56584159927D0D98CAEED672","019cf810-4a11-766d-8bb7-bfd1f13a3146","019cf80d-4266-7117-8a51-54e13c84aca4","","null","
                <div class=""stimulus-container"">
                    <img src=""images/schematic_sequence/restaurant_scheme/restaurant_scheme_3.png"" class=""exp-image"">
                    <div class=""question-area""></div> 
                </div>","null","","","","","","","","",""
"","","","","","html-button-response","64","185064","0.0-64.0","97A46BAC56584159927D0D98CAEED672","019cf810-4a11-766d-8bb7-bfd1f13a3146","019cf80d-4266-7117-8a51-54e13c84aca4","","2136","
                <div class=""stimulus-container"">
                    <img src=""images/schematic_sequence/restaurant_scheme/restaurant_scheme_3.png"" class=""exp-image"">
                    <div class=""question-area"">
                        <p style=""font-size: 20px; font-weight: bold; margin: 0;"">Is there a person in this image?</p>
                    </div>
                </div>","1","main_experiment_trial","3","restaurant_scheme","schematic_sequence","","","","",""
"","","","","","html-keyboard-response","65","190066","0.0-65.0","97A46BAC56584159927D0D98CAEED672","019cf810-4a11-766d-8bb7-bfd1f13a3146","019cf80d-4266-7117-8a51-54e13c84aca4","","null","
                <div class=""stimulus-container"">
                    <img src=""images/schematic_sequence/restaurant_scheme/restaurant_scheme_4.png"" class=""exp-image"">
                    <div class=""question-area""></div> 
                </div>","null","","","","","","","","",""
"","","","","","html-button-response","66","191007","0.0-66.0","97A46BAC56584159927D0D98CAEED672","019cf810-4a11-766d-8bb7-bfd1f13a3146","019cf80d-4266-7117-8a51-54e13c84aca4","","941","
                <div class=""stimulus-container"">
                    <img src=""images/schematic_sequence/restaurant_scheme/restaurant_scheme_4.png"" class=""exp-image"">
                    <div class=""question-area"">
                        <p style=""font-size: 20px; font-weight: bold; margin: 0;"">Is there a person in this image?</p>
                    </div>
                </div>","0","main_experiment_trial","4","restaurant_scheme","schematic_sequence","","","","",""
"","","","","","html-keyboard-response","67","196009","0.0-67.0","97A46BAC56584159927D0D98CAEED672","019cf810-4a11-766d-8bb7-bfd1f13a3146","019cf80d-4266-7117-8a51-54e13c84aca4","","null","
                <div class=""stimulus-container"">
                    <img src=""images/schematic_sequence/restaurant_scheme/restaurant_scheme_5.png"" class=""exp-image"">
                    <div class=""question-area""></div> 
                </div>","null","","","","","","","","",""
"","","","","","html-button-response","68","197027","0.0-68.0","97A46BAC56584159927D0D98CAEED672","019cf810-4a11-766d-8bb7-bfd1f13a3146","019cf80d-4266-7117-8a51-54e13c84aca4","","1016","
                <div class=""stimulus-container"">
                    <img src=""images/schematic_sequence/restaurant_scheme/restaurant_scheme_5.png"" class=""exp-image"">
                    <div class=""question-area"">
                        <p style=""font-size: 20px; font-weight: bold; margin: 0;"">Is there a person in this image?</p>
                    </div>
                </div>","0","main_experiment_trial","5","restaurant_scheme","schematic_sequence","","","","",""
"","","","","","html-keyboard-response","69","202030","0.0-69.0","97A46BAC56584159927D0D98CAEED672","019cf810-4a11-766d-8bb7-bfd1f13a3146","019cf80d-4266-7117-8a51-54e13c84aca4","","null","
                <div class=""stimulus-container"">
                    <img src=""images/schematic_sequence/restaurant_scheme/restaurant_scheme_6.png"" class=""exp-image"">
                    <div class=""question-area""></div> 
                </div>","null","","","","","","","","",""
"","","","","","html-button-response","70","203450","0.0-70.0","97A46BAC56584159927D0D98CAEED672","019cf810-4a11-766d-8bb7-bfd1f13a3146","019cf80d-4266-7117-8a51-54e13c84aca4","","1419","
                <div class=""stimulus-container"">
                    <img src=""images/schematic_sequence/restaurant_scheme/restaurant_scheme_6.png"" class=""exp-image"">
                    <div class=""question-area"">
                        <p style=""font-size: 20px; font-weight: bold; margin: 0;"">Is there a person in this image?</p>
                    </div>
                </div>","1","main_experiment_trial","6","restaurant_scheme","schematic_sequence","","","","",""
"","","","","","html-keyboard-response","71","208453","0.0-71.0","97A46BAC56584159927D0D98CAEED672","019cf810-4a11-766d-8bb7-bfd1f13a3146","019cf80d-4266-7117-8a51-54e13c84aca4","","null","
                <div class=""stimulus-container"">
                    <img src=""images/schematic_sequence/restaurant_scheme/restaurant_scheme_7.png"" class=""exp-image"">
                    <div class=""question-area""></div> 
                </div>","null","","","","","","","","",""
"","","","","","html-button-response","72","210081","0.0-72.0","97A46BAC56584159927D0D98CAEED672","019cf810-4a11-766d-8bb7-bfd1f13a3146","019cf80d-4266-7117-8a51-54e13c84aca4","","1627","
                <div class=""stimulus-container"">
                    <img src=""images/schematic_sequence/restaurant_scheme/restaurant_scheme_7.png"" class=""exp-image"">
                    <div class=""question-area"">
                        <p style=""font-size: 20px; font-weight: bold; margin: 0;"">Is there a person in this image?</p>
                    </div>
                </div>","1","main_experiment_trial","7","restaurant_scheme","schematic_sequence","","","","",""
"","","","","","html-keyboard-response","73","215084","0.0-73.0","97A46BAC56584159927D0D98CAEED672","019cf810-4a11-766d-8bb7-bfd1f13a3146","019cf80d-4266-7117-8a51-54e13c84aca4","","null","
                <div class=""stimulus-container"">
                    <img src=""images/schematic_sequence/restaurant_scheme/restaurant_scheme_8.png"" class=""exp-image"">
                    <div class=""question-area""></div> 
                </div>","null","","","","","","","","",""
"","","","","","html-button-response","74","216568","0.0-74.0","97A46BAC56584159927D0D98CAEED672","019cf810-4a11-766d-8bb7-bfd1f13a3146","019cf80d-4266-7117-8a51-54e13c84aca4","","1483","
                <div class=""stimulus-container"">
                    <img src=""images/schematic_sequence/restaurant_scheme/restaurant_scheme_8.png"" class=""exp-image"">
                    <div class=""question-area"">
                        <p style=""font-size: 20px; font-weight: bold; margin: 0;"">Is there a person in this image?</p>
                    </div>
                </div>","1","main_experiment_trial","8","restaurant_scheme","schematic_sequence","","","","",""
"","","","","","html-keyboard-response","75","221569","0.0-75.0","97A46BAC56584159927D0D98CAEED672","019cf810-4a11-766d-8bb7-bfd1f13a3146","019cf80d-4266-7117-8a51-54e13c84aca4","","null","
                <div class=""stimulus-container"">
                    <img src=""images/schematic_sequence/restaurant_scheme/restaurant_scheme_9.png"" class=""exp-image"">
                    <div class=""question-area""></div> 
                </div>","null","","","","","","","","",""
"","","","","","html-button-response","76","222344","0.0-76.0","97A46BAC56584159927D0D98CAEED672","019cf810-4a11-766d-8bb7-bfd1f13a3146","019cf80d-4266-7117-8a51-54e13c84aca4","","774","
                <div class=""stimulus-container"">
                    <img src=""images/schematic_sequence/restaurant_scheme/restaurant_scheme_9.png"" class=""exp-image"">
                    <div class=""question-area"">
                        <p style=""font-size: 20px; font-weight: bold; margin: 0;"">Is there a person in this image?</p>
                    </div>
                </div>","0","main_experiment_trial","9","restaurant_scheme","schematic_sequence","","","","",""
"","","","","","html-keyboard-response","77","227346","0.0-77.0","97A46BAC56584159927D0D98CAEED672","019cf810-4a11-766d-8bb7-bfd1f13a3146","019cf80d-4266-7117-8a51-54e13c84aca4","","null","
                <div class=""stimulus-container"">
                    <img src=""images/schematic_sequence/restaurant_scheme/restaurant_scheme_ten.png"" class=""exp-image"">
                    <div class=""question-area""></div> 
                </div>","null","","","","","","","","",""
"","","","","","html-button-response","78","229085","0.0-78.0","97A46BAC56584159927D0D98CAEED672","019cf810-4a11-766d-8bb7-bfd1f13a3146","019cf80d-4266-7117-8a51-54e13c84aca4","","1738","
                <div class=""stimulus-container"">
                    <img src=""images/schematic_sequence/restaurant_scheme/restaurant_scheme_ten.png"" class=""exp-image"">
                    <div class=""question-area"">
                        <p style=""font-size: 20px; font-weight: bold; margin: 0;"">Is there a person in this image?</p>
                    </div>
                </div>","0","main_experiment_trial","ten","restaurant_scheme","schematic_sequence","","","","",""
"","","","","","html-keyboard-response","79","230087","0.0-79.0","97A46BAC56584159927D0D98CAEED672","019cf810-4a11-766d-8bb7-bfd1f13a3146","019cf80d-4266-7117-8a51-54e13c84aca4","","null","<div style=""background-color: white; width: 100vw; height: 100vh;""></div>","null","","","","","","","","",""
"","","","","","html-keyboard-response","80","235088","0.0-80.0","97A46BAC56584159927D0D98CAEED672","019cf810-4a11-766d-8bb7-bfd1f13a3146","019cf80d-4266-7117-8a51-54e13c84aca4","","null","
                <div class=""stimulus-container"">
                    <img src=""images/semantic_sequence/kitchen_operations_semantic/kitchen_operations_semantic_1.png"" class=""exp-image"">
                    <div class=""question-area""></div> 
                </div>","null","","","","","","","","",""
"","","","","","html-button-response","81","235786","0.0-81.0","97A46BAC56584159927D0D98CAEED672","019cf810-4a11-766d-8bb7-bfd1f13a3146","019cf80d-4266-7117-8a51-54e13c84aca4","","697","
                <div class=""stimulus-container"">
                    <img src=""images/semantic_sequence/kitchen_operations_semantic/kitchen_operations_semantic_1.png"" class=""exp-image"">
                    <div class=""question-area"">
                        <p style=""font-size: 20px; font-weight: bold; margin: 0;"">Is there a person in this image?</p>
                    </div>
                </div>","0","main_experiment_trial","1","kitchen_operations_semantic","semantic_sequence","","","","",""
"","","","","","html-keyboard-response","82","240787","0.0-82.0","97A46BAC56584159927D0D98CAEED672","019cf810-4a11-766d-8bb7-bfd1f13a3146","019cf80d-4266-7117-8a51-54e13c84aca4","","null","
                <div class=""stimulus-container"">
                    <img src=""images/semantic_sequence/kitchen_operations_semantic/kitchen_operations_semantic_2.png"" class=""exp-image"">
                    <div class=""question-area""></div> 
                </div>","null","","","","","","","","",""
"","","","","","html-button-response","83","241455","0.0-83.0","97A46BAC56584159927D0D98CAEED672","019cf810-4a11-766d-8bb7-bfd1f13a3146","019cf80d-4266-7117-8a51-54e13c84aca4","","667","
                <div class=""stimulus-container"">
                    <img src=""images/semantic_sequence/kitchen_operations_semantic/kitchen_operations_semantic_2.png"" class=""exp-image"">
                    <div class=""question-area"">
                        <p style=""font-size: 20px; font-weight: bold; margin: 0;"">Is there a person in this image?</p>
                    </div>
                </div>","0","main_experiment_trial","2","kitchen_operations_semantic","semantic_sequence","","","","",""
"","","","","","html-keyboard-response","84","246457","0.0-84.0","97A46BAC56584159927D0D98CAEED672","019cf810-4a11-766d-8bb7-bfd1f13a3146","019cf80d-4266-7117-8a51-54e13c84aca4","","null","
                <div class=""stimulus-container"">
                    <img src=""images/semantic_sequence/kitchen_operations_semantic/kitchen_operations_semantic_3.png"" class=""exp-image"">
                    <div class=""question-area""></div> 
                </div>","null","","","","","","","","",""
"","","","","","html-button-response","85","247154","0.0-85.0","97A46BAC56584159927D0D98CAEED672","019cf810-4a11-766d-8bb7-bfd1f13a3146","019cf80d-4266-7117-8a51-54e13c84aca4","","696","
                <div class=""stimulus-container"">
                    <img src=""images/semantic_sequence/kitchen_operations_semantic/kitchen_operations_semantic_3.png"" class=""exp-image"">
                    <div class=""question-area"">
                        <p style=""font-size: 20px; font-weight: bold; margin: 0;"">Is there a person in this image?</p>
                    </div>
                </div>","0","main_experiment_trial","3","kitchen_operations_semantic","semantic_sequence","","","","",""
"","","","","","html-keyboard-response","86","252156","0.0-86.0","97A46BAC56584159927D0D98CAEED672","019cf810-4a11-766d-8bb7-bfd1f13a3146","019cf80d-4266-7117-8a51-54e13c84aca4","","null","
                <div class=""stimulus-container"">
                    <img src=""images/semantic_sequence/kitchen_operations_semantic/kitchen_operations_semantic_4.png"" class=""exp-image"">
                    <div class=""question-area""></div> 
                </div>","null","","","","","","","","",""
"","","","","","html-button-response","87","252908","0.0-87.0","97A46BAC56584159927D0D98CAEED672","019cf810-4a11-766d-8bb7-bfd1f13a3146","019cf80d-4266-7117-8a51-54e13c84aca4","","751","
                <div class=""stimulus-container"">
                    <img src=""images/semantic_sequence/kitchen_operations_semantic/kitchen_operations_semantic_4.png"" class=""exp-image"">
                    <div class=""question-area"">
                        <p style=""font-size: 20px; font-weight: bold; margin: 0;"">Is there a person in this image?</p>
                    </div>
                </div>","0","main_experiment_trial","4","kitchen_operations_semantic","semantic_sequence","","","","",""
"","","","","","html-keyboard-response","88","257911","0.0-88.0","97A46BAC56584159927D0D98CAEED672","019cf810-4a11-766d-8bb7-bfd1f13a3146","019cf80d-4266-7117-8a51-54e13c84aca4","","null","
                <div class=""stimulus-container"">
                    <img src=""images/semantic_sequence/kitchen_operations_semantic/kitchen_operations_semantic_5.png"" class=""exp-image"">
                    <div class=""question-area""></div> 
                </div>","null","","","","","","","","",""
"","","","","","html-button-response","89","258941","0.0-89.0","97A46BAC56584159927D0D98CAEED672","019cf810-4a11-766d-8bb7-bfd1f13a3146","019cf80d-4266-7117-8a51-54e13c84aca4","","1028","
                <div class=""stimulus-container"">
                    <img src=""images/semantic_sequence/kitchen_operations_semantic/kitchen_operations_semantic_5.png"" class=""exp-image"">
                    <div class=""question-area"">
                        <p style=""font-size: 20px; font-weight: bold; margin: 0;"">Is there a person in this image?</p>
                    </div>
                </div>","0","main_experiment_trial","5","kitchen_operations_semantic","semantic_sequence","","","","",""
"","","","","","html-keyboard-response","90","263943","0.0-90.0","97A46BAC56584159927D0D98CAEED672","019cf810-4a11-766d-8bb7-bfd1f13a3146","019cf80d-4266-7117-8a51-54e13c84aca4","","null","
                <div class=""stimulus-container"">
                    <img src=""images/semantic_sequence/kitchen_operations_semantic/kitchen_operations_semantic_6.png"" class=""exp-image"">
                    <div class=""question-area""></div> 
                </div>","null","","","","","","","","",""
"","","","","","html-button-response","91","264356","0.0-91.0","97A46BAC56584159927D0D98CAEED672","019cf810-4a11-766d-8bb7-bfd1f13a3146","019cf80d-4266-7117-8a51-54e13c84aca4","","412","
                <div class=""stimulus-container"">
                    <img src=""images/semantic_sequence/kitchen_operations_semantic/kitchen_operations_semantic_6.png"" class=""exp-image"">
                    <div class=""question-area"">
                        <p style=""font-size: 20px; font-weight: bold; margin: 0;"">Is there a person in this image?</p>
                    </div>
                </div>","0","main_experiment_trial","6","kitchen_operations_semantic","semantic_sequence","","","","",""
"","","","","","html-keyboard-response","92","269358","0.0-92.0","97A46BAC56584159927D0D98CAEED672","019cf810-4a11-766d-8bb7-bfd1f13a3146","019cf80d-4266-7117-8a51-54e13c84aca4","","null","
                <div class=""stimulus-container"">
                    <img src=""images/semantic_sequence/kitchen_operations_semantic/kitchen_operations_semantic_7.png"" class=""exp-image"">
                    <div class=""question-area""></div> 
                </div>","null","","","","","","","","",""
"","","","","","html-button-response","93","270018","0.0-93.0","97A46BAC56584159927D0D98CAEED672","019cf810-4a11-766d-8bb7-bfd1f13a3146","019cf80d-4266-7117-8a51-54e13c84aca4","","659","
                <div class=""stimulus-container"">
                    <img src=""images/semantic_sequence/kitchen_operations_semantic/kitchen_operations_semantic_7.png"" class=""exp-image"">
                    <div class=""question-area"">
                        <p style=""font-size: 20px; font-weight: bold; margin: 0;"">Is there a person in this image?</p>
                    </div>
                </div>","0","main_experiment_trial","7","kitchen_operations_semantic","semantic_sequence","","","","",""
"","","","","","html-keyboard-response","94","275020","0.0-94.0","97A46BAC56584159927D0D98CAEED672","019cf810-4a11-766d-8bb7-bfd1f13a3146","019cf80d-4266-7117-8a51-54e13c84aca4","","null","
                <div class=""stimulus-container"">
                    <img src=""images/semantic_sequence/kitchen_operations_semantic/kitchen_operations_semantic_8.png"" class=""exp-image"">
                    <div class=""question-area""></div> 
                </div>","null","","","","","","","","",""
"","","","","","html-button-response","95","276354","0.0-95.0","97A46BAC56584159927D0D98CAEED672","019cf810-4a11-766d-8bb7-bfd1f13a3146","019cf80d-4266-7117-8a51-54e13c84aca4","","1334","
                <div class=""stimulus-container"">
                    <img src=""images/semantic_sequence/kitchen_operations_semantic/kitchen_operations_semantic_8.png"" class=""exp-image"">
                    <div class=""question-area"">
                        <p style=""font-size: 20px; font-weight: bold; margin: 0;"">Is there a person in this image?</p>
                    </div>
                </div>","0","main_experiment_trial","8","kitchen_operations_semantic","semantic_sequence","","","","",""
"","","","","","html-keyboard-response","96","281356","0.0-96.0","97A46BAC56584159927D0D98CAEED672","019cf810-4a11-766d-8bb7-bfd1f13a3146","019cf80d-4266-7117-8a51-54e13c84aca4","","null","
                <div class=""stimulus-container"">
                    <img src=""images/semantic_sequence/kitchen_operations_semantic/kitchen_operations_semantic_9.png"" class=""exp-image"">
                    <div class=""question-area""></div> 
                </div>","null","","","","","","","","",""
"","","","","","html-button-response","97","282180","0.0-97.0","97A46BAC56584159927D0D98CAEED672","019cf810-4a11-766d-8bb7-bfd1f13a3146","019cf80d-4266-7117-8a51-54e13c84aca4","","823","
                <div class=""stimulus-container"">
                    <img src=""images/semantic_sequence/kitchen_operations_semantic/kitchen_operations_semantic_9.png"" class=""exp-image"">
                    <div class=""question-area"">
                        <p style=""font-size: 20px; font-weight: bold; margin: 0;"">Is there a person in this image?</p>
                    </div>
                </div>","0","main_experiment_trial","9","kitchen_operations_semantic","semantic_sequence","","","","",""
"","","","","","html-keyboard-response","98","287182","0.0-98.0","97A46BAC56584159927D0D98CAEED672","019cf810-4a11-766d-8bb7-bfd1f13a3146","019cf80d-4266-7117-8a51-54e13c84aca4","","null","
                <div class=""stimulus-container"">
                    <img src=""images/semantic_sequence/kitchen_operations_semantic/kitchen_operations_semantic_ten.png"" class=""exp-image"">
                    <div class=""question-area""></div> 
                </div>","null","","","","","","","","",""
"","","","","","html-button-response","99","287975","0.0-99.0","97A46BAC56584159927D0D98CAEED672","019cf810-4a11-766d-8bb7-bfd1f13a3146","019cf80d-4266-7117-8a51-54e13c84aca4","","790","
                <div class=""stimulus-container"">
                    <img src=""images/semantic_sequence/kitchen_operations_semantic/kitchen_operations_semantic_ten.png"" class=""exp-image"">
                    <div class=""question-area"">
                        <p style=""font-size: 20px; font-weight: bold; margin: 0;"">Is there a person in this image?</p>
                    </div>
                </div>","0","main_experiment_trial","ten","kitchen_operations_semantic","semantic_sequence","","","","",""
"","","","","","html-keyboard-response","100","288975","0.0-100.0","97A46BAC56584159927D0D98CAEED672","019cf810-4a11-766d-8bb7-bfd1f13a3146","019cf80d-4266-7117-8a51-54e13c84aca4","","null","<div style=""background-color: white; width: 100vw; height: 100vh;""></div>","null","","","","","","","","",""
"","","","","","html-keyboard-response","101","293978","0.0-101.0","97A46BAC56584159927D0D98CAEED672","019cf810-4a11-766d-8bb7-bfd1f13a3146","019cf80d-4266-7117-8a51-54e13c84aca4","","null","
                <div class=""stimulus-container"">
                    <img src=""images/schematic_sequence/hotel_scheme/hotel_scheme_1.png"" class=""exp-image"">
                    <div class=""question-area""></div> 
                </div>","null","","","","","","","","",""
"","","","","","html-button-response","102","295945","0.0-102.0","97A46BAC56584159927D0D98CAEED672","019cf810-4a11-766d-8bb7-bfd1f13a3146","019cf80d-4266-7117-8a51-54e13c84aca4","","1964","
                <div class=""stimulus-container"">
                    <img src=""images/schematic_sequence/hotel_scheme/hotel_scheme_1.png"" class=""exp-image"">
                    <div class=""question-area"">
                        <p style=""font-size: 20px; font-weight: bold; margin: 0;"">Is there a person in this image?</p>
                    </div>
                </div>","1","main_experiment_trial","1","hotel_scheme","schematic_sequence","","","","",""
"","","","","","html-keyboard-response","103","300947","0.0-103.0","97A46BAC56584159927D0D98CAEED672","019cf810-4a11-766d-8bb7-bfd1f13a3146","019cf80d-4266-7117-8a51-54e13c84aca4","","null","
                <div class=""stimulus-container"">
                    <img src=""images/schematic_sequence/hotel_scheme/hotel_scheme_2.png"" class=""exp-image"">
                    <div class=""question-area""></div> 
                </div>","null","","","","","","","","",""
"","","","","","html-button-response","104","302778","0.0-104.0","97A46BAC56584159927D0D98CAEED672","019cf810-4a11-766d-8bb7-bfd1f13a3146","019cf80d-4266-7117-8a51-54e13c84aca4","","1829","
                <div class=""stimulus-container"">
                    <img src=""images/schematic_sequence/hotel_scheme/hotel_scheme_2.png"" class=""exp-image"">
                    <div class=""question-area"">
                        <p style=""font-size: 20px; font-weight: bold; margin: 0;"">Is there a person in this image?</p>
                    </div>
                </div>","0","main_experiment_trial","2","hotel_scheme","schematic_sequence","","","","",""
"","","","","","html-keyboard-response","105","307780","0.0-105.0","97A46BAC56584159927D0D98CAEED672","019cf810-4a11-766d-8bb7-bfd1f13a3146","019cf80d-4266-7117-8a51-54e13c84aca4","","null","
                <div class=""stimulus-container"">
                    <img src=""images/schematic_sequence/hotel_scheme/hotel_scheme_3.png"" class=""exp-image"">
                    <div class=""question-area""></div> 
                </div>","null","","","","","","","","",""
"","","","","","html-button-response","106","308662","0.0-106.0","97A46BAC56584159927D0D98CAEED672","019cf810-4a11-766d-8bb7-bfd1f13a3146","019cf80d-4266-7117-8a51-54e13c84aca4","","881","
                <div class=""stimulus-container"">
                    <img src=""images/schematic_sequence/hotel_scheme/hotel_scheme_3.png"" class=""exp-image"">
                    <div class=""question-area"">
                        <p style=""font-size: 20px; font-weight: bold; margin: 0;"">Is there a person in this image?</p>
                    </div>
                </div>","0","main_experiment_trial","3","hotel_scheme","schematic_sequence","","","","",""
"","","","","","html-keyboard-response","107","313664","0.0-107.0","97A46BAC56584159927D0D98CAEED672","019cf810-4a11-766d-8bb7-bfd1f13a3146","019cf80d-4266-7117-8a51-54e13c84aca4","","null","
                <div class=""stimulus-container"">
                    <img src=""images/schematic_sequence/hotel_scheme/hotel_scheme_4.png"" class=""exp-image"">
                    <div class=""question-area""></div> 
                </div>","null","","","","","","","","",""
"","","","","","html-button-response","108","315190","0.0-108.0","97A46BAC56584159927D0D98CAEED672","019cf810-4a11-766d-8bb7-bfd1f13a3146","019cf80d-4266-7117-8a51-54e13c84aca4","","1525","
                <div class=""stimulus-container"">
                    <img src=""images/schematic_sequence/hotel_scheme/hotel_scheme_4.png"" class=""exp-image"">
                    <div class=""question-area"">
                        <p style=""font-size: 20px; font-weight: bold; margin: 0;"">Is there a person in this image?</p>
                    </div>
                </div>","1","main_experiment_trial","4","hotel_scheme","schematic_sequence","","","","",""
"","","","","","html-keyboard-response","109","320191","0.0-109.0","97A46BAC56584159927D0D98CAEED672","019cf810-4a11-766d-8bb7-bfd1f13a3146","019cf80d-4266-7117-8a51-54e13c84aca4","","null","
                <div class=""stimulus-container"">
                    <img src=""images/schematic_sequence/hotel_scheme/hotel_scheme_5.png"" class=""exp-image"">
                    <div class=""question-area""></div> 
                </div>","null","","","","","","","","",""
"","","","","","html-button-response","110","320904","0.0-110.0","97A46BAC56584159927D0D98CAEED672","019cf810-4a11-766d-8bb7-bfd1f13a3146","019cf80d-4266-7117-8a51-54e13c84aca4","","712","
                <div class=""stimulus-container"">
                    <img src=""images/schematic_sequence/hotel_scheme/hotel_scheme_5.png"" class=""exp-image"">
                    <div class=""question-area"">
                        <p style=""font-size: 20px; font-weight: bold; margin: 0;"">Is there a person in this image?</p>
                    </div>
                </div>","0","main_experiment_trial","5","hotel_scheme","schematic_sequence","","","","",""
"","","","","","html-keyboard-response","111","325906","0.0-111.0","97A46BAC56584159927D0D98CAEED672","019cf810-4a11-766d-8bb7-bfd1f13a3146","019cf80d-4266-7117-8a51-54e13c84aca4","","null","
                <div class=""stimulus-container"">
                    <img src=""images/schematic_sequence/hotel_scheme/hotel_scheme_6.png"" class=""exp-image"">
                    <div class=""question-area""></div> 
                </div>","null","","","","","","","","",""
"","","","","","html-button-response","112","326782","0.0-112.0","97A46BAC56584159927D0D98CAEED672","019cf810-4a11-766d-8bb7-bfd1f13a3146","019cf80d-4266-7117-8a51-54e13c84aca4","","875","
                <div class=""stimulus-container"">
                    <img src=""images/schematic_sequence/hotel_scheme/hotel_scheme_6.png"" class=""exp-image"">
                    <div class=""question-area"">
                        <p style=""font-size: 20px; font-weight: bold; margin: 0;"">Is there a person in this image?</p>
                    </div>
                </div>","0","main_experiment_trial","6","hotel_scheme","schematic_sequence","","","","",""
"","","","","","html-keyboard-response","113","331785","0.0-113.0","97A46BAC56584159927D0D98CAEED672","019cf810-4a11-766d-8bb7-bfd1f13a3146","019cf80d-4266-7117-8a51-54e13c84aca4","","null","
                <div class=""stimulus-container"">
                    <img src=""images/schematic_sequence/hotel_scheme/hotel_scheme_7.png"" class=""exp-image"">
                    <div class=""question-area""></div> 
                </div>","null","","","","","","","","",""
"","","","","","html-button-response","114","333563","0.0-114.0","97A46BAC56584159927D0D98CAEED672","019cf810-4a11-766d-8bb7-bfd1f13a3146","019cf80d-4266-7117-8a51-54e13c84aca4","","1776","
                <div class=""stimulus-container"">
                    <img src=""images/schematic_sequence/hotel_scheme/hotel_scheme_7.png"" class=""exp-image"">
                    <div class=""question-area"">
                        <p style=""font-size: 20px; font-weight: bold; margin: 0;"">Is there a person in this image?</p>
                    </div>
                </div>","0","main_experiment_trial","7","hotel_scheme","schematic_sequence","","","","",""
"","","","","","html-keyboard-response","115","338565","0.0-115.0","97A46BAC56584159927D0D98CAEED672","019cf810-4a11-766d-8bb7-bfd1f13a3146","019cf80d-4266-7117-8a51-54e13c84aca4","","null","
                <div class=""stimulus-container"">
                    <img src=""images/schematic_sequence/hotel_scheme/hotel_scheme_8.png"" class=""exp-image"">
                    <div class=""question-area""></div> 
                </div>","null","","","","","","","","",""
"","","","","","html-button-response","116","340628","0.0-116.0","97A46BAC56584159927D0D98CAEED672","019cf810-4a11-766d-8bb7-bfd1f13a3146","019cf80d-4266-7117-8a51-54e13c84aca4","","2062","
                <div class=""stimulus-container"">
                    <img src=""images/schematic_sequence/hotel_scheme/hotel_scheme_8.png"" class=""exp-image"">
                    <div class=""question-area"">
                        <p style=""font-size: 20px; font-weight: bold; margin: 0;"">Is there a person in this image?</p>
                    </div>
                </div>","0","main_experiment_trial","8","hotel_scheme","schematic_sequence","","","","",""
"","","","","","html-keyboard-response","117","345630","0.0-117.0","97A46BAC56584159927D0D98CAEED672","019cf810-4a11-766d-8bb7-bfd1f13a3146","019cf80d-4266-7117-8a51-54e13c84aca4","","null","
                <div class=""stimulus-container"">
                    <img src=""images/schematic_sequence/hotel_scheme/hotel_scheme_9.png"" class=""exp-image"">
                    <div class=""question-area""></div> 
                </div>","null","","","","","","","","",""
"","","","","","html-button-response","118","347014","0.0-118.0","97A46BAC56584159927D0D98CAEED672","019cf810-4a11-766d-8bb7-bfd1f13a3146","019cf80d-4266-7117-8a51-54e13c84aca4","","1382","
                <div class=""stimulus-container"">
                    <img src=""images/schematic_sequence/hotel_scheme/hotel_scheme_9.png"" class=""exp-image"">
                    <div class=""question-area"">
                        <p style=""font-size: 20px; font-weight: bold; margin: 0;"">Is there a person in this image?</p>
                    </div>
                </div>","0","main_experiment_trial","9","hotel_scheme","schematic_sequence","","","","",""
"","","","","","html-keyboard-response","119","352016","0.0-119.0","97A46BAC56584159927D0D98CAEED672","019cf810-4a11-766d-8bb7-bfd1f13a3146","019cf80d-4266-7117-8a51-54e13c84aca4","","null","
                <div class=""stimulus-container"">
                    <img src=""images/schematic_sequence/hotel_scheme/hotel_scheme_ten.png"" class=""exp-image"">
                    <div class=""question-area""></div> 
                </div>","null","","","","","","","","",""
"","","","","","html-button-response","120","353485","0.0-120.0","97A46BAC56584159927D0D98CAEED672","019cf810-4a11-766d-8bb7-bfd1f13a3146","019cf80d-4266-7117-8a51-54e13c84aca4","","1468","
                <div class=""stimulus-container"">
                    <img src=""images/schematic_sequence/hotel_scheme/hotel_scheme_ten.png"" class=""exp-image"">
                    <div class=""question-area"">
                        <p style=""font-size: 20px; font-weight: bold; margin: 0;"">Is there a person in this image?</p>
                    </div>
                </div>","0","main_experiment_trial","ten","hotel_scheme","schematic_sequence","","","","",""
"","","","","","html-keyboard-response","121","354486","0.0-121.0","97A46BAC56584159927D0D98CAEED672","019cf810-4a11-766d-8bb7-bfd1f13a3146","019cf80d-4266-7117-8a51-54e13c84aca4","","null","<div style=""background-color: white; width: 100vw; height: 100vh;""></div>","null","","","","","","","","",""
"","","","","","html-keyboard-response","122","359488","0.0-122.0","97A46BAC56584159927D0D98CAEED672","019cf810-4a11-766d-8bb7-bfd1f13a3146","019cf80d-4266-7117-8a51-54e13c84aca4","","null","
                <div class=""stimulus-container"">
                    <img src=""images/semantic_sequence/exploring_nature_semantic/exploring_nature_semantic_1.png"" class=""exp-image"">
                    <div class=""question-area""></div> 
                </div>","null","","","","","","","","",""
"","","","","","html-button-response","123","360029","0.0-123.0","97A46BAC56584159927D0D98CAEED672","019cf810-4a11-766d-8bb7-bfd1f13a3146","019cf80d-4266-7117-8a51-54e13c84aca4","","540","
                <div class=""stimulus-container"">
                    <img src=""images/semantic_sequence/exploring_nature_semantic/exploring_nature_semantic_1.png"" class=""exp-image"">
                    <div class=""question-area"">
                        <p style=""font-size: 20px; font-weight: bold; margin: 0;"">Is there a person in this image?</p>
                    </div>
                </div>","0","main_experiment_trial","1","exploring_nature_semantic","semantic_sequence","","","","",""
"","","","","","html-keyboard-response","124","365031","0.0-124.0","97A46BAC56584159927D0D98CAEED672","019cf810-4a11-766d-8bb7-bfd1f13a3146","019cf80d-4266-7117-8a51-54e13c84aca4","","null","
                <div class=""stimulus-container"">
                    <img src=""images/semantic_sequence/exploring_nature_semantic/exploring_nature_semantic_2.png"" class=""exp-image"">
                    <div class=""question-area""></div> 
                </div>","null","","","","","","","","",""
"","","","","","html-button-response","125","368033","0.0-125.0","97A46BAC56584159927D0D98CAEED672","019cf810-4a11-766d-8bb7-bfd1f13a3146","019cf80d-4266-7117-8a51-54e13c84aca4","","null","
                <div class=""stimulus-container"">
                    <img src=""images/semantic_sequence/exploring_nature_semantic/exploring_nature_semantic_2.png"" class=""exp-image"">
                    <div class=""question-area"">
                        <p style=""font-size: 20px; font-weight: bold; margin: 0;"">Is there a person in this image?</p>
                    </div>
                </div>","null","main_experiment_trial","2","exploring_nature_semantic","semantic_sequence","","","","",""
"","","","","","html-keyboard-response","126","373035","0.0-126.0","97A46BAC56584159927D0D98CAEED672","019cf810-4a11-766d-8bb7-bfd1f13a3146","019cf80d-4266-7117-8a51-54e13c84aca4","","null","
                <div class=""stimulus-container"">
                    <img src=""images/semantic_sequence/exploring_nature_semantic/exploring_nature_semantic_3.png"" class=""exp-image"">
                    <div class=""question-area""></div> 
                </div>","null","","","","","","","","",""
"","","","","","html-button-response","127","373755","0.0-127.0","97A46BAC56584159927D0D98CAEED672","019cf810-4a11-766d-8bb7-bfd1f13a3146","019cf80d-4266-7117-8a51-54e13c84aca4","","719","
                <div class=""stimulus-container"">
                    <img src=""images/semantic_sequence/exploring_nature_semantic/exploring_nature_semantic_3.png"" class=""exp-image"">
                    <div class=""question-area"">
                        <p style=""font-size: 20px; font-weight: bold; margin: 0;"">Is there a person in this image?</p>
                    </div>
                </div>","0","main_experiment_trial","3","exploring_nature_semantic","semantic_sequence","","","","",""
"","","","","","html-keyboard-response","128","378758","0.0-128.0","97A46BAC56584159927D0D98CAEED672","019cf810-4a11-766d-8bb7-bfd1f13a3146","019cf80d-4266-7117-8a51-54e13c84aca4","","null","
                <div class=""stimulus-container"">
                    <img src=""images/semantic_sequence/exploring_nature_semantic/exploring_nature_semantic_4.png"" class=""exp-image"">
                    <div class=""question-area""></div> 
                </div>","null","","","","","","","","",""
"","","","","","html-button-response","129","379390","0.0-129.0","97A46BAC56584159927D0D98CAEED672","019cf810-4a11-766d-8bb7-bfd1f13a3146","019cf80d-4266-7117-8a51-54e13c84aca4","","631","
                <div class=""stimulus-container"">
                    <img src=""images/semantic_sequence/exploring_nature_semantic/exploring_nature_semantic_4.png"" class=""exp-image"">
                    <div class=""question-area"">
                        <p style=""font-size: 20px; font-weight: bold; margin: 0;"">Is there a person in this image?</p>
                    </div>
                </div>","0","main_experiment_trial","4","exploring_nature_semantic","semantic_sequence","","","","",""
"","","","","","html-keyboard-response","130","384392","0.0-130.0","97A46BAC56584159927D0D98CAEED672","019cf810-4a11-766d-8bb7-bfd1f13a3146","019cf80d-4266-7117-8a51-54e13c84aca4","","null","
                <div class=""stimulus-container"">
                    <img src=""images/semantic_sequence/exploring_nature_semantic/exploring_nature_semantic_5.png"" class=""exp-image"">
                    <div class=""question-area""></div> 
                </div>","null","","","","","","","","",""
"","","","","","html-button-response","131","386286","0.0-131.0","97A46BAC56584159927D0D98CAEED672","019cf810-4a11-766d-8bb7-bfd1f13a3146","019cf80d-4266-7117-8a51-54e13c84aca4","","1893","
                <div class=""stimulus-container"">
                    <img src=""images/semantic_sequence/exploring_nature_semantic/exploring_nature_semantic_5.png"" class=""exp-image"">
                    <div class=""question-area"">
                        <p style=""font-size: 20px; font-weight: bold; margin: 0;"">Is there a person in this image?</p>
                    </div>
                </div>","0","main_experiment_trial","5","exploring_nature_semantic","semantic_sequence","","","","",""
"","","","","","html-keyboard-response","132","391289","0.0-132.0","97A46BAC56584159927D0D98CAEED672","019cf810-4a11-766d-8bb7-bfd1f13a3146","019cf80d-4266-7117-8a51-54e13c84aca4","","null","
                <div class=""stimulus-container"">
                    <img src=""images/semantic_sequence/exploring_nature_semantic/exploring_nature_semantic_6.png"" class=""exp-image"">
                    <div class=""question-area""></div> 
                </div>","null","","","","","","","","",""
"","","","","","html-button-response","133","392966","0.0-133.0","97A46BAC56584159927D0D98CAEED672","019cf810-4a11-766d-8bb7-bfd1f13a3146","019cf80d-4266-7117-8a51-54e13c84aca4","","1675","
                <div class=""stimulus-container"">
                    <img src=""images/semantic_sequence/exploring_nature_semantic/exploring_nature_semantic_6.png"" class=""exp-image"">
                    <div class=""question-area"">
                        <p style=""font-size: 20px; font-weight: bold; margin: 0;"">Is there a person in this image?</p>
                    </div>
                </div>","0","main_experiment_trial","6","exploring_nature_semantic","semantic_sequence","","","","",""
"","","","","","html-keyboard-response","134","397968","0.0-134.0","97A46BAC56584159927D0D98CAEED672","019cf810-4a11-766d-8bb7-bfd1f13a3146","019cf80d-4266-7117-8a51-54e13c84aca4","","null","
                <div class=""stimulus-container"">
                    <img src=""images/semantic_sequence/exploring_nature_semantic/exploring_nature_semantic_7.png"" class=""exp-image"">
                    <div class=""question-area""></div> 
                </div>","null","","","","","","","","",""
"","","","","","html-button-response","135","399923","0.0-135.0","97A46BAC56584159927D0D98CAEED672","019cf810-4a11-766d-8bb7-bfd1f13a3146","019cf80d-4266-7117-8a51-54e13c84aca4","","1953","
                <div class=""stimulus-container"">
                    <img src=""images/semantic_sequence/exploring_nature_semantic/exploring_nature_semantic_7.png"" class=""exp-image"">
                    <div class=""question-area"">
                        <p style=""font-size: 20px; font-weight: bold; margin: 0;"">Is there a person in this image?</p>
                    </div>
                </div>","0","main_experiment_trial","7","exploring_nature_semantic","semantic_sequence","","","","",""
"","","","","","html-keyboard-response","136","404925","0.0-136.0","97A46BAC56584159927D0D98CAEED672","019cf810-4a11-766d-8bb7-bfd1f13a3146","019cf80d-4266-7117-8a51-54e13c84aca4","","null","
                <div class=""stimulus-container"">
                    <img src=""images/semantic_sequence/exploring_nature_semantic/exploring_nature_semantic_8.png"" class=""exp-image"">
                    <div class=""question-area""></div> 
                </div>","null","","","","","","","","",""
"","","","","","html-button-response","137","405643","0.0-137.0","97A46BAC56584159927D0D98CAEED672","019cf810-4a11-766d-8bb7-bfd1f13a3146","019cf80d-4266-7117-8a51-54e13c84aca4","","717","
                <div class=""stimulus-container"">
                    <img src=""images/semantic_sequence/exploring_nature_semantic/exploring_nature_semantic_8.png"" class=""exp-image"">
                    <div class=""question-area"">
                        <p style=""font-size: 20px; font-weight: bold; margin: 0;"">Is there a person in this image?</p>
                    </div>
                </div>","0","main_experiment_trial","8","exploring_nature_semantic","semantic_sequence","","","","",""
"","","","","","html-keyboard-response","138","410646","0.0-138.0","97A46BAC56584159927D0D98CAEED672","019cf810-4a11-766d-8bb7-bfd1f13a3146","019cf80d-4266-7117-8a51-54e13c84aca4","","null","
                <div class=""stimulus-container"">
                    <img src=""images/semantic_sequence/exploring_nature_semantic/exploring_nature_semantic_9.png"" class=""exp-image"">
                    <div class=""question-area""></div> 
                </div>","null","","","","","","","","",""
"","","","","","html-button-response","139","411494","0.0-139.0","97A46BAC56584159927D0D98CAEED672","019cf810-4a11-766d-8bb7-bfd1f13a3146","019cf80d-4266-7117-8a51-54e13c84aca4","","843","
                <div class=""stimulus-container"">
                    <img src=""images/semantic_sequence/exploring_nature_semantic/exploring_nature_semantic_9.png"" class=""exp-image"">
                    <div class=""question-area"">
                        <p style=""font-size: 20px; font-weight: bold; margin: 0;"">Is there a person in this image?</p>
                    </div>
                </div>","0","main_experiment_trial","9","exploring_nature_semantic","semantic_sequence","","","","",""
"","","","","","html-keyboard-response","140","416497","0.0-140.0","97A46BAC56584159927D0D98CAEED672","019cf810-4a11-766d-8bb7-bfd1f13a3146","019cf80d-4266-7117-8a51-54e13c84aca4","","null","
                <div class=""stimulus-container"">
                    <img src=""images/semantic_sequence/exploring_nature_semantic/exploring_nature_semantic_ten.png"" class=""exp-image"">
                    <div class=""question-area""></div> 
                </div>","null","","","","","","","","",""
"","","","","","html-button-response","141","417089","0.0-141.0","97A46BAC56584159927D0D98CAEED672","019cf810-4a11-766d-8bb7-bfd1f13a3146","019cf80d-4266-7117-8a51-54e13c84aca4","","590","
                <div class=""stimulus-container"">
                    <img src=""images/semantic_sequence/exploring_nature_semantic/exploring_nature_semantic_ten.png"" class=""exp-image"">
                    <div class=""question-area"">
                        <p style=""font-size: 20px; font-weight: bold; margin: 0;"">Is there a person in this image?</p>
                    </div>
                </div>","0","main_experiment_trial","ten","exploring_nature_semantic","semantic_sequence","","","","",""
"","","","","","html-keyboard-response","142","418091","0.0-142.0","97A46BAC56584159927D0D98CAEED672","019cf810-4a11-766d-8bb7-bfd1f13a3146","019cf80d-4266-7117-8a51-54e13c84aca4","","null","<div style=""background-color: white; width: 100vw; height: 100vh;""></div>","null","","","","","","","","",""
"","","","","","html-keyboard-response","143","423094","0.0-143.0","97A46BAC56584159927D0D98CAEED672","019cf810-4a11-766d-8bb7-bfd1f13a3146","019cf80d-4266-7117-8a51-54e13c84aca4","","null","
                <div class=""stimulus-container"">
                    <img src=""images/schematic_sequence/dinner_party_scheme/dinner_party_scheme_1.png"" class=""exp-image"">
                    <div class=""question-area""></div> 
                </div>","null","","","","","","","","",""
"","","","","","html-button-response","144","423561","0.0-144.0","97A46BAC56584159927D0D98CAEED672","019cf810-4a11-766d-8bb7-bfd1f13a3146","019cf80d-4266-7117-8a51-54e13c84aca4","","466","
                <div class=""stimulus-container"">
                    <img src=""images/schematic_sequence/dinner_party_scheme/dinner_party_scheme_1.png"" class=""exp-image"">
                    <div class=""question-area"">
                        <p style=""font-size: 20px; font-weight: bold; margin: 0;"">Is there a person in this image?</p>
                    </div>
                </div>","0","main_experiment_trial","1","dinner_party_scheme","schematic_sequence","","","","",""
"","","","","","html-keyboard-response","145","428564","0.0-145.0","97A46BAC56584159927D0D98CAEED672","019cf810-4a11-766d-8bb7-bfd1f13a3146","019cf80d-4266-7117-8a51-54e13c84aca4","","null","
                <div class=""stimulus-container"">
                    <img src=""images/schematic_sequence/dinner_party_scheme/dinner_party_scheme_2.png"" class=""exp-image"">
                    <div class=""question-area""></div> 
                </div>","null","","","","","","","","",""
"","","","","","html-button-response","146","429291","0.0-146.0","97A46BAC56584159927D0D98CAEED672","019cf810-4a11-766d-8bb7-bfd1f13a3146","019cf80d-4266-7117-8a51-54e13c84aca4","","726","
                <div class=""stimulus-container"">
                    <img src=""images/schematic_sequence/dinner_party_scheme/dinner_party_scheme_2.png"" class=""exp-image"">
                    <div class=""question-area"">
                        <p style=""font-size: 20px; font-weight: bold; margin: 0;"">Is there a person in this image?</p>
                    </div>
                </div>","0","main_experiment_trial","2","dinner_party_scheme","schematic_sequence","","","","",""
"","","","","","html-keyboard-response","147","434294","0.0-147.0","97A46BAC56584159927D0D98CAEED672","019cf810-4a11-766d-8bb7-bfd1f13a3146","019cf80d-4266-7117-8a51-54e13c84aca4","","null","
                <div class=""stimulus-container"">
                    <img src=""images/schematic_sequence/dinner_party_scheme/dinner_party_scheme_3.png"" class=""exp-image"">
                    <div class=""question-area""></div> 
                </div>","null","","","","","","","","",""
"","","","","","html-button-response","148","435244","0.0-148.0","97A46BAC56584159927D0D98CAEED672","019cf810-4a11-766d-8bb7-bfd1f13a3146","019cf80d-4266-7117-8a51-54e13c84aca4","","948","
                <div class=""stimulus-container"">
                    <img src=""images/schematic_sequence/dinner_party_scheme/dinner_party_scheme_3.png"" class=""exp-image"">
                    <div class=""question-area"">
                        <p style=""font-size: 20px; font-weight: bold; margin: 0;"">Is there a person in this image?</p>
                    </div>
                </div>","0","main_experiment_trial","3","dinner_party_scheme","schematic_sequence","","","","",""
"","","","","","html-keyboard-response","149","440246","0.0-149.0","97A46BAC56584159927D0D98CAEED672","019cf810-4a11-766d-8bb7-bfd1f13a3146","019cf80d-4266-7117-8a51-54e13c84aca4","","null","
                <div class=""stimulus-container"">
                    <img src=""images/schematic_sequence/dinner_party_scheme/dinner_party_scheme_4.png"" class=""exp-image"">
                    <div class=""question-area""></div> 
                </div>","null","","","","","","","","",""
"","","","","","html-button-response","150","441034","0.0-150.0","97A46BAC56584159927D0D98CAEED672","019cf810-4a11-766d-8bb7-bfd1f13a3146","019cf80d-4266-7117-8a51-54e13c84aca4","","787","
                <div class=""stimulus-container"">
                    <img src=""images/schematic_sequence/dinner_party_scheme/dinner_party_scheme_4.png"" class=""exp-image"">
                    <div class=""question-area"">
                        <p style=""font-size: 20px; font-weight: bold; margin: 0;"">Is there a person in this image?</p>
                    </div>
                </div>","0","main_experiment_trial","4","dinner_party_scheme","schematic_sequence","","","","",""
"","","","","","html-keyboard-response","151","446037","0.0-151.0","97A46BAC56584159927D0D98CAEED672","019cf810-4a11-766d-8bb7-bfd1f13a3146","019cf80d-4266-7117-8a51-54e13c84aca4","","null","
                <div class=""stimulus-container"">
                    <img src=""images/schematic_sequence/dinner_party_scheme/dinner_party_scheme_5.png"" class=""exp-image"">
                    <div class=""question-area""></div> 
                </div>","null","","","","","","","","",""
"","","","","","html-button-response","152","446660","0.0-152.0","97A46BAC56584159927D0D98CAEED672","019cf810-4a11-766d-8bb7-bfd1f13a3146","019cf80d-4266-7117-8a51-54e13c84aca4","","621","
                <div class=""stimulus-container"">
                    <img src=""images/schematic_sequence/dinner_party_scheme/dinner_party_scheme_5.png"" class=""exp-image"">
                    <div class=""question-area"">
                        <p style=""font-size: 20px; font-weight: bold; margin: 0;"">Is there a person in this image?</p>
                    </div>
                </div>","0","main_experiment_trial","5","dinner_party_scheme","schematic_sequence","","","","",""
"","","","","","html-keyboard-response","153","451662","0.0-153.0","97A46BAC56584159927D0D98CAEED672","019cf810-4a11-766d-8bb7-bfd1f13a3146","019cf80d-4266-7117-8a51-54e13c84aca4","","null","
                <div class=""stimulus-container"">
                    <img src=""images/schematic_sequence/dinner_party_scheme/dinner_party_scheme_6.png"" class=""exp-image"">
                    <div class=""question-area""></div> 
                </div>","null","","","","","","","","",""
"","","","","","html-button-response","154","452292","0.0-154.0","97A46BAC56584159927D0D98CAEED672","019cf810-4a11-766d-8bb7-bfd1f13a3146","019cf80d-4266-7117-8a51-54e13c84aca4","","629","
                <div class=""stimulus-container"">
                    <img src=""images/schematic_sequence/dinner_party_scheme/dinner_party_scheme_6.png"" class=""exp-image"">
                    <div class=""question-area"">
                        <p style=""font-size: 20px; font-weight: bold; margin: 0;"">Is there a person in this image?</p>
                    </div>
                </div>","0","main_experiment_trial","6","dinner_party_scheme","schematic_sequence","","","","",""
"","","","","","html-keyboard-response","155","457294","0.0-155.0","97A46BAC56584159927D0D98CAEED672","019cf810-4a11-766d-8bb7-bfd1f13a3146","019cf80d-4266-7117-8a51-54e13c84aca4","","null","
                <div class=""stimulus-container"">
                    <img src=""images/schematic_sequence/dinner_party_scheme/dinner_party_scheme_7.png"" class=""exp-image"">
                    <div class=""question-area""></div> 
                </div>","null","","","","","","","","",""
"","","","","","html-button-response","156","458236","0.0-156.0","97A46BAC56584159927D0D98CAEED672","019cf810-4a11-766d-8bb7-bfd1f13a3146","019cf80d-4266-7117-8a51-54e13c84aca4","","941","
                <div class=""stimulus-container"">
                    <img src=""images/schematic_sequence/dinner_party_scheme/dinner_party_scheme_7.png"" class=""exp-image"">
                    <div class=""question-area"">
                        <p style=""font-size: 20px; font-weight: bold; margin: 0;"">Is there a person in this image?</p>
                    </div>
                </div>","0","main_experiment_trial","7","dinner_party_scheme","schematic_sequence","","","","",""
"","","","","","html-keyboard-response","157","463238","0.0-157.0","97A46BAC56584159927D0D98CAEED672","019cf810-4a11-766d-8bb7-bfd1f13a3146","019cf80d-4266-7117-8a51-54e13c84aca4","","null","
                <div class=""stimulus-container"">
                    <img src=""images/schematic_sequence/dinner_party_scheme/dinner_party_scheme_8.png"" class=""exp-image"">
                    <div class=""question-area""></div> 
                </div>","null","","","","","","","","",""
"","","","","","html-button-response","158","463830","0.0-158.0","97A46BAC56584159927D0D98CAEED672","019cf810-4a11-766d-8bb7-bfd1f13a3146","019cf80d-4266-7117-8a51-54e13c84aca4","","591","
                <div class=""stimulus-container"">
                    <img src=""images/schematic_sequence/dinner_party_scheme/dinner_party_scheme_8.png"" class=""exp-image"">
                    <div class=""question-area"">
                        <p style=""font-size: 20px; font-weight: bold; margin: 0;"">Is there a person in this image?</p>
                    </div>
                </div>","0","main_experiment_trial","8","dinner_party_scheme","schematic_sequence","","","","",""
"","","","","","html-keyboard-response","159","468833","0.0-159.0","97A46BAC56584159927D0D98CAEED672","019cf810-4a11-766d-8bb7-bfd1f13a3146","019cf80d-4266-7117-8a51-54e13c84aca4","","null","
                <div class=""stimulus-container"">
                    <img src=""images/schematic_sequence/dinner_party_scheme/dinner_party_scheme_9.png"" class=""exp-image"">
                    <div class=""question-area""></div> 
                </div>","null","","","","","","","","",""
"","","","","","html-button-response","160","469639","0.0-160.0","97A46BAC56584159927D0D98CAEED672","019cf810-4a11-766d-8bb7-bfd1f13a3146","019cf80d-4266-7117-8a51-54e13c84aca4","","805","
                <div class=""stimulus-container"">
                    <img src=""images/schematic_sequence/dinner_party_scheme/dinner_party_scheme_9.png"" class=""exp-image"">
                    <div class=""question-area"">
                        <p style=""font-size: 20px; font-weight: bold; margin: 0;"">Is there a person in this image?</p>
                    </div>
                </div>","0","main_experiment_trial","9","dinner_party_scheme","schematic_sequence","","","","",""
"","","","","","html-keyboard-response","161","474641","0.0-161.0","97A46BAC56584159927D0D98CAEED672","019cf810-4a11-766d-8bb7-bfd1f13a3146","019cf80d-4266-7117-8a51-54e13c84aca4","","null","
                <div class=""stimulus-container"">
                    <img src=""images/schematic_sequence/dinner_party_scheme/dinner_party_scheme_ten.png"" class=""exp-image"">
                    <div class=""question-area""></div> 
                </div>","null","","","","","","","","",""
"","","","","","html-button-response","162","474976","0.0-162.0","97A46BAC56584159927D0D98CAEED672","019cf810-4a11-766d-8bb7-bfd1f13a3146","019cf80d-4266-7117-8a51-54e13c84aca4","","333","
                <div class=""stimulus-container"">
                    <img src=""images/schematic_sequence/dinner_party_scheme/dinner_party_scheme_ten.png"" class=""exp-image"">
                    <div class=""question-area"">
                        <p style=""font-size: 20px; font-weight: bold; margin: 0;"">Is there a person in this image?</p>
                    </div>
                </div>","0","main_experiment_trial","ten","dinner_party_scheme","schematic_sequence","","","","",""
"","","","","","html-keyboard-response","163","475977","0.0-163.0","97A46BAC56584159927D0D98CAEED672","019cf810-4a11-766d-8bb7-bfd1f13a3146","019cf80d-4266-7117-8a51-54e13c84aca4","","null","<div style=""background-color: white; width: 100vw; height: 100vh;""></div>","null","","","","","","","","",""
"","","","","","html-keyboard-response","164","480980","0.0-164.0","97A46BAC56584159927D0D98CAEED672","019cf810-4a11-766d-8bb7-bfd1f13a3146","019cf80d-4266-7117-8a51-54e13c84aca4","","null","
                <div class=""stimulus-container"">
                    <img src=""images/schematic_sequence/interview_scheme/interview_scheme_1.png"" class=""exp-image"">
                    <div class=""question-area""></div> 
                </div>","null","","","","","","","","",""
"","","","","","html-button-response","165","481878","0.0-165.0","97A46BAC56584159927D0D98CAEED672","019cf810-4a11-766d-8bb7-bfd1f13a3146","019cf80d-4266-7117-8a51-54e13c84aca4","","897","
                <div class=""stimulus-container"">
                    <img src=""images/schematic_sequence/interview_scheme/interview_scheme_1.png"" class=""exp-image"">
                    <div class=""question-area"">
                        <p style=""font-size: 20px; font-weight: bold; margin: 0;"">Is there a person in this image?</p>
                    </div>
                </div>","1","main_experiment_trial","1","interview_scheme","schematic_sequence","","","","",""
"","","","","","html-keyboard-response","166","486880","0.0-166.0","97A46BAC56584159927D0D98CAEED672","019cf810-4a11-766d-8bb7-bfd1f13a3146","019cf80d-4266-7117-8a51-54e13c84aca4","","null","
                <div class=""stimulus-container"">
                    <img src=""images/schematic_sequence/interview_scheme/interview_scheme_2.png"" class=""exp-image"">
                    <div class=""question-area""></div> 
                </div>","null","","","","","","","","",""
"","","","","","html-button-response","167","488293","0.0-167.0","97A46BAC56584159927D0D98CAEED672","019cf810-4a11-766d-8bb7-bfd1f13a3146","019cf80d-4266-7117-8a51-54e13c84aca4","","1412","
                <div class=""stimulus-container"">
                    <img src=""images/schematic_sequence/interview_scheme/interview_scheme_2.png"" class=""exp-image"">
                    <div class=""question-area"">
                        <p style=""font-size: 20px; font-weight: bold; margin: 0;"">Is there a person in this image?</p>
                    </div>
                </div>","0","main_experiment_trial","2","interview_scheme","schematic_sequence","","","","",""
"","","","","","html-keyboard-response","168","493296","0.0-168.0","97A46BAC56584159927D0D98CAEED672","019cf810-4a11-766d-8bb7-bfd1f13a3146","019cf80d-4266-7117-8a51-54e13c84aca4","","null","
                <div class=""stimulus-container"">
                    <img src=""images/schematic_sequence/interview_scheme/interview_scheme_3.png"" class=""exp-image"">
                    <div class=""question-area""></div> 
                </div>","null","","","","","","","","",""
"","","","","","html-button-response","169","493768","0.0-169.0","97A46BAC56584159927D0D98CAEED672","019cf810-4a11-766d-8bb7-bfd1f13a3146","019cf80d-4266-7117-8a51-54e13c84aca4","","471","
                <div class=""stimulus-container"">
                    <img src=""images/schematic_sequence/interview_scheme/interview_scheme_3.png"" class=""exp-image"">
                    <div class=""question-area"">
                        <p style=""font-size: 20px; font-weight: bold; margin: 0;"">Is there a person in this image?</p>
                    </div>
                </div>","1","main_experiment_trial","3","interview_scheme","schematic_sequence","","","","",""
"","","","","","html-keyboard-response","170","498770","0.0-170.0","97A46BAC56584159927D0D98CAEED672","019cf810-4a11-766d-8bb7-bfd1f13a3146","019cf80d-4266-7117-8a51-54e13c84aca4","","null","
                <div class=""stimulus-container"">
                    <img src=""images/schematic_sequence/interview_scheme/interview_scheme_4.png"" class=""exp-image"">
                    <div class=""question-area""></div> 
                </div>","null","","","","","","","","",""
"","","","","","html-button-response","171","501774","0.0-171.0","97A46BAC56584159927D0D98CAEED672","019cf810-4a11-766d-8bb7-bfd1f13a3146","019cf80d-4266-7117-8a51-54e13c84aca4","","null","
                <div class=""stimulus-container"">
                    <img src=""images/schematic_sequence/interview_scheme/interview_scheme_4.png"" class=""exp-image"">
                    <div class=""question-area"">
                        <p style=""font-size: 20px; font-weight: bold; margin: 0;"">Is there a person in this image?</p>
                    </div>
                </div>","null","main_experiment_trial","4","interview_scheme","schematic_sequence","","","","",""
"","","","","","html-keyboard-response","172","506775","0.0-172.0","97A46BAC56584159927D0D98CAEED672","019cf810-4a11-766d-8bb7-bfd1f13a3146","019cf80d-4266-7117-8a51-54e13c84aca4","","null","
                <div class=""stimulus-container"">
                    <img src=""images/schematic_sequence/interview_scheme/interview_scheme_5.png"" class=""exp-image"">
                    <div class=""question-area""></div> 
                </div>","null","","","","","","","","",""
"","","","","","html-button-response","173","507365","0.0-173.0","97A46BAC56584159927D0D98CAEED672","019cf810-4a11-766d-8bb7-bfd1f13a3146","019cf80d-4266-7117-8a51-54e13c84aca4","","588","
                <div class=""stimulus-container"">
                    <img src=""images/schematic_sequence/interview_scheme/interview_scheme_5.png"" class=""exp-image"">
                    <div class=""question-area"">
                        <p style=""font-size: 20px; font-weight: bold; margin: 0;"">Is there a person in this image?</p>
                    </div>
                </div>","0","main_experiment_trial","5","interview_scheme","schematic_sequence","","","","",""
"","","","","","html-keyboard-response","174","512367","0.0-174.0","97A46BAC56584159927D0D98CAEED672","019cf810-4a11-766d-8bb7-bfd1f13a3146","019cf80d-4266-7117-8a51-54e13c84aca4","","null","
                <div class=""stimulus-container"">
                    <img src=""images/schematic_sequence/interview_scheme/interview_scheme_6.png"" class=""exp-image"">
                    <div class=""question-area""></div> 
                </div>","null","","","","","","","","",""
"","","","","","html-button-response","175","513303","0.0-175.0","97A46BAC56584159927D0D98CAEED672","019cf810-4a11-766d-8bb7-bfd1f13a3146","019cf80d-4266-7117-8a51-54e13c84aca4","","934","
                <div class=""stimulus-container"">
                    <img src=""images/schematic_sequence/interview_scheme/interview_scheme_6.png"" class=""exp-image"">
                    <div class=""question-area"">
                        <p style=""font-size: 20px; font-weight: bold; margin: 0;"">Is there a person in this image?</p>
                    </div>
                </div>","0","main_experiment_trial","6","interview_scheme","schematic_sequence","","","","",""
"","","","","","html-keyboard-response","176","518304","0.0-176.0","97A46BAC56584159927D0D98CAEED672","019cf810-4a11-766d-8bb7-bfd1f13a3146","019cf80d-4266-7117-8a51-54e13c84aca4","","null","
                <div class=""stimulus-container"">
                    <img src=""images/schematic_sequence/interview_scheme/interview_scheme_7.png"" class=""exp-image"">
                    <div class=""question-area""></div> 
                </div>","null","","","","","","","","",""
"","","","","","html-button-response","177","520279","0.0-177.0","97A46BAC56584159927D0D98CAEED672","019cf810-4a11-766d-8bb7-bfd1f13a3146","019cf80d-4266-7117-8a51-54e13c84aca4","","1974","
                <div class=""stimulus-container"">
                    <img src=""images/schematic_sequence/interview_scheme/interview_scheme_7.png"" class=""exp-image"">
                    <div class=""question-area"">
                        <p style=""font-size: 20px; font-weight: bold; margin: 0;"">Is there a person in this image?</p>
                    </div>
                </div>","0","main_experiment_trial","7","interview_scheme","schematic_sequence","","","","",""
"","","","","","html-keyboard-response","178","525281","0.0-178.0","97A46BAC56584159927D0D98CAEED672","019cf810-4a11-766d-8bb7-bfd1f13a3146","019cf80d-4266-7117-8a51-54e13c84aca4","","null","
                <div class=""stimulus-container"">
                    <img src=""images/schematic_sequence/interview_scheme/interview_scheme_8.png"" class=""exp-image"">
                    <div class=""question-area""></div> 
                </div>","null","","","","","","","","",""
"","","","","","html-button-response","179","525783","0.0-179.0","97A46BAC56584159927D0D98CAEED672","019cf810-4a11-766d-8bb7-bfd1f13a3146","019cf80d-4266-7117-8a51-54e13c84aca4","","500","
                <div class=""stimulus-container"">
                    <img src=""images/schematic_sequence/interview_scheme/interview_scheme_8.png"" class=""exp-image"">
                    <div class=""question-area"">
                        <p style=""font-size: 20px; font-weight: bold; margin: 0;"">Is there a person in this image?</p>
                    </div>
                </div>","0","main_experiment_trial","8","interview_scheme","schematic_sequence","","","","",""
