"success","timeout","failed_images","failed_audio","failed_video","trial_type","trial_index","time_elapsed","internal_node_id","subject_id","study_id","session_id","view_history","rt","stimulus","response","task","image_index","folder","sequence_type","valuable_image_index","reward_type","chosen_image_index","correct_choice"
"true","false","[]","[]","[]","preload","0","12915","0.0-0.0","FF2C447A83B0498EAAEA8C001D2A1086","019cefad-fff4-7796-b0d8-2858f077f925","019cef87-c56d-7b55-9135-c5814367ec25","","","","","","","","","","","",""
"","","","","","instructions","1","18871","0.0-1.0","FF2C447A83B0498EAAEA8C001D2A1086","019cefad-fff4-7796-b0d8-2858f077f925","019cef87-c56d-7b55-9135-c5814367ec25","[{""page_index"":0,""viewing_time"":5954}]","5955","","","","","","","","","",""
"","","","","","instructions","2","25335","0.0-2.0","FF2C447A83B0498EAAEA8C001D2A1086","019cefad-fff4-7796-b0d8-2858f077f925","019cef87-c56d-7b55-9135-c5814367ec25","[{""page_index"":0,""viewing_time"":6463}]","6463","","","","","","","","","",""
"true","","","","","fullscreen","3","28754","0.0-3.0","FF2C447A83B0498EAAEA8C001D2A1086","019cefad-fff4-7796-b0d8-2858f077f925","019cef87-c56d-7b55-9135-c5814367ec25","","2416","","","","","","","","","",""
"","","","","","instructions","4","36277","0.0-4.0","FF2C447A83B0498EAAEA8C001D2A1086","019cefad-fff4-7796-b0d8-2858f077f925","019cef87-c56d-7b55-9135-c5814367ec25","[{""page_index"":0,""viewing_time"":7522}]","7523","","","","","","","","","",""
"","","","","","instructions","5","100468","0.0-5.0","FF2C447A83B0498EAAEA8C001D2A1086","019cefad-fff4-7796-b0d8-2858f077f925","019cef87-c56d-7b55-9135-c5814367ec25","[{""page_index"":0,""viewing_time"":64191}]","64191","","","","","","","","","",""
"","","","","","html-keyboard-response","6","104472","0.0-6.0","FF2C447A83B0498EAAEA8C001D2A1086","019cefad-fff4-7796-b0d8-2858f077f925","019cef87-c56d-7b55-9135-c5814367ec25","","null","
                <div class=""stimulus-container"">
                    <img src=""images/instructions/movie_1.png"" class=""exp-image"">
                    <div class=""question-area""></div> 
                </div>","null","","","","","","","",""
"","","","","","html-button-response","7","107477","0.0-7.0","FF2C447A83B0498EAAEA8C001D2A1086","019cefad-fff4-7796-b0d8-2858f077f925","019cef87-c56d-7b55-9135-c5814367ec25","","null","
                <div class=""stimulus-container"">
                    <img src=""images/instructions/movie_1.png"" class=""exp-image"">
                    <div class=""question-area"">
                        <p style=""font-size: 20px; font-weight: bold; margin: 0;"">Was there a person in this image?</p>
                    </div>
                </div>","null","example_question","1","","","","","",""
"","","","","","html-keyboard-response","8","111480","0.0-8.0","FF2C447A83B0498EAAEA8C001D2A1086","019cefad-fff4-7796-b0d8-2858f077f925","019cef87-c56d-7b55-9135-c5814367ec25","","null","
                <div class=""stimulus-container"">
                    <img src=""images/instructions/movie_2.png"" class=""exp-image"">
                    <div class=""question-area""></div> 
                </div>","null","","","","","","","",""
"","","","","","html-button-response","9","112608","0.0-9.0","FF2C447A83B0498EAAEA8C001D2A1086","019cefad-fff4-7796-b0d8-2858f077f925","019cef87-c56d-7b55-9135-c5814367ec25","","1125","
                <div class=""stimulus-container"">
                    <img src=""images/instructions/movie_2.png"" class=""exp-image"">
                    <div class=""question-area"">
                        <p style=""font-size: 20px; font-weight: bold; margin: 0;"">Was there a person in this image?</p>
                    </div>
                </div>","1","example_question","2","","","","","",""
"","","","","","html-keyboard-response","10","116610","0.0-10.0","FF2C447A83B0498EAAEA8C001D2A1086","019cefad-fff4-7796-b0d8-2858f077f925","019cef87-c56d-7b55-9135-c5814367ec25","","null","
                <div class=""stimulus-container"">
                    <img src=""images/instructions/movie_3.png"" class=""exp-image"">
                    <div class=""question-area""></div> 
                </div>","null","","","","","","","",""
"","","","","","html-button-response","11","117351","0.0-11.0","FF2C447A83B0498EAAEA8C001D2A1086","019cefad-fff4-7796-b0d8-2858f077f925","019cef87-c56d-7b55-9135-c5814367ec25","","739","
                <div class=""stimulus-container"">
                    <img src=""images/instructions/movie_3.png"" class=""exp-image"">
                    <div class=""question-area"">
                        <p style=""font-size: 20px; font-weight: bold; margin: 0;"">Was there a person in this image?</p>
                    </div>
                </div>","0","example_question","3","","","","","",""
"","","","","","html-keyboard-response","12","121353","0.0-12.0","FF2C447A83B0498EAAEA8C001D2A1086","019cefad-fff4-7796-b0d8-2858f077f925","019cef87-c56d-7b55-9135-c5814367ec25","","null","
                <div class=""stimulus-container"">
                    <img src=""images/instructions/movie_4.png"" class=""exp-image"">
                    <div class=""question-area""></div> 
                </div>","null","","","","","","","",""
"","","","","","html-button-response","13","122160","0.0-13.0","FF2C447A83B0498EAAEA8C001D2A1086","019cefad-fff4-7796-b0d8-2858f077f925","019cef87-c56d-7b55-9135-c5814367ec25","","805","
                <div class=""stimulus-container"">
                    <img src=""images/instructions/movie_4.png"" class=""exp-image"">
                    <div class=""question-area"">
                        <p style=""font-size: 20px; font-weight: bold; margin: 0;"">Was there a person in this image?</p>
                    </div>
                </div>","0","example_question","4","","","","","",""
"","","","","","instructions","14","124235","0.0-14.0","FF2C447A83B0498EAAEA8C001D2A1086","019cefad-fff4-7796-b0d8-2858f077f925","019cef87-c56d-7b55-9135-c5814367ec25","[{""page_index"":0,""viewing_time"":2074}]","2074","","","","","","","","","",""
"","","","","","instructions","15","130119","0.0-15.0","FF2C447A83B0498EAAEA8C001D2A1086","019cefad-fff4-7796-b0d8-2858f077f925","019cef87-c56d-7b55-9135-c5814367ec25","[{""page_index"":0,""viewing_time"":5882}]","5882","","","","","","","","","",""
"","","","","","html-keyboard-response","16","131122","0.0-16.0","FF2C447A83B0498EAAEA8C001D2A1086","019cefad-fff4-7796-b0d8-2858f077f925","019cef87-c56d-7b55-9135-c5814367ec25","","null","<div style=""background-color: white; width: 100vw; height: 100vh;""></div>","null","","","","","","","",""
"","","","","","html-keyboard-response","17","136123","0.0-17.0","FF2C447A83B0498EAAEA8C001D2A1086","019cefad-fff4-7796-b0d8-2858f077f925","019cef87-c56d-7b55-9135-c5814367ec25","","null","
                <div class=""stimulus-container"">
                    <img src=""images/schematic_sequence/dinner_party_scheme/dinner_party_scheme_1.png"" class=""exp-image"">
                    <div class=""question-area""></div> 
                </div>","null","","","","","","","",""
"","","","","","html-button-response","18","137493","0.0-18.0","FF2C447A83B0498EAAEA8C001D2A1086","019cefad-fff4-7796-b0d8-2858f077f925","019cef87-c56d-7b55-9135-c5814367ec25","","1368","
                <div class=""stimulus-container"">
                    <img src=""images/schematic_sequence/dinner_party_scheme/dinner_party_scheme_1.png"" class=""exp-image"">
                    <div class=""question-area"">
                        <p style=""font-size: 20px; font-weight: bold; margin: 0;"">Is there a person in this image?</p>
                    </div>
                </div>","0","main_experiment_trial","1","dinner_party_scheme","schematic_sequence","","","",""
"","","","","","html-keyboard-response","19","142495","0.0-19.0","FF2C447A83B0498EAAEA8C001D2A1086","019cefad-fff4-7796-b0d8-2858f077f925","019cef87-c56d-7b55-9135-c5814367ec25","","null","
                <div class=""stimulus-container"">
                    <img src=""images/schematic_sequence/dinner_party_scheme/dinner_party_scheme_2.png"" class=""exp-image"">
                    <div class=""question-area""></div> 
                </div>","null","","","","","","","",""
"","","","","","html-button-response","20","143465","0.0-20.0","FF2C447A83B0498EAAEA8C001D2A1086","019cefad-fff4-7796-b0d8-2858f077f925","019cef87-c56d-7b55-9135-c5814367ec25","","968","
                <div class=""stimulus-container"">
                    <img src=""images/schematic_sequence/dinner_party_scheme/dinner_party_scheme_2.png"" class=""exp-image"">
                    <div class=""question-area"">
                        <p style=""font-size: 20px; font-weight: bold; margin: 0;"">Is there a person in this image?</p>
                    </div>
                </div>","0","main_experiment_trial","2","dinner_party_scheme","schematic_sequence","","","",""
"","","","","","html-keyboard-response","21","148468","0.0-21.0","FF2C447A83B0498EAAEA8C001D2A1086","019cefad-fff4-7796-b0d8-2858f077f925","019cef87-c56d-7b55-9135-c5814367ec25","","null","
                <div class=""stimulus-container"">
                    <img src=""images/schematic_sequence/dinner_party_scheme/dinner_party_scheme_3.png"" class=""exp-image"">
                    <div class=""question-area""></div> 
                </div>","null","","","","","","","",""
"","","","","","html-button-response","22","149268","0.0-22.0","FF2C447A83B0498EAAEA8C001D2A1086","019cefad-fff4-7796-b0d8-2858f077f925","019cef87-c56d-7b55-9135-c5814367ec25","","798","
                <div class=""stimulus-container"">
                    <img src=""images/schematic_sequence/dinner_party_scheme/dinner_party_scheme_3.png"" class=""exp-image"">
                    <div class=""question-area"">
                        <p style=""font-size: 20px; font-weight: bold; margin: 0;"">Is there a person in this image?</p>
                    </div>
                </div>","0","main_experiment_trial","3","dinner_party_scheme","schematic_sequence","","","",""
"","","","","","html-keyboard-response","23","154271","0.0-23.0","FF2C447A83B0498EAAEA8C001D2A1086","019cefad-fff4-7796-b0d8-2858f077f925","019cef87-c56d-7b55-9135-c5814367ec25","","null","
                <div class=""stimulus-container"">
                    <img src=""images/schematic_sequence/dinner_party_scheme/dinner_party_scheme_4.png"" class=""exp-image"">
                    <div class=""question-area""></div> 
                </div>","null","","","","","","","",""
"","","","","","html-button-response","24","154894","0.0-24.0","FF2C447A83B0498EAAEA8C001D2A1086","019cefad-fff4-7796-b0d8-2858f077f925","019cef87-c56d-7b55-9135-c5814367ec25","","621","
                <div class=""stimulus-container"">
                    <img src=""images/schematic_sequence/dinner_party_scheme/dinner_party_scheme_4.png"" class=""exp-image"">
                    <div class=""question-area"">
                        <p style=""font-size: 20px; font-weight: bold; margin: 0;"">Is there a person in this image?</p>
                    </div>
                </div>","0","main_experiment_trial","4","dinner_party_scheme","schematic_sequence","","","",""
"","","","","","html-keyboard-response","25","159897","0.0-25.0","FF2C447A83B0498EAAEA8C001D2A1086","019cefad-fff4-7796-b0d8-2858f077f925","019cef87-c56d-7b55-9135-c5814367ec25","","null","
                <div class=""stimulus-container"">
                    <img src=""images/schematic_sequence/dinner_party_scheme/dinner_party_scheme_5.png"" class=""exp-image"">
                    <div class=""question-area""></div> 
                </div>","null","","","","","","","",""
"","","","","","html-button-response","26","160567","0.0-26.0","FF2C447A83B0498EAAEA8C001D2A1086","019cefad-fff4-7796-b0d8-2858f077f925","019cef87-c56d-7b55-9135-c5814367ec25","","669","
                <div class=""stimulus-container"">
                    <img src=""images/schematic_sequence/dinner_party_scheme/dinner_party_scheme_5.png"" class=""exp-image"">
                    <div class=""question-area"">
                        <p style=""font-size: 20px; font-weight: bold; margin: 0;"">Is there a person in this image?</p>
                    </div>
                </div>","0","main_experiment_trial","5","dinner_party_scheme","schematic_sequence","","","",""
"","","","","","html-keyboard-response","27","165570","0.0-27.0","FF2C447A83B0498EAAEA8C001D2A1086","019cefad-fff4-7796-b0d8-2858f077f925","019cef87-c56d-7b55-9135-c5814367ec25","","null","
                <div class=""stimulus-container"">
                    <img src=""images/schematic_sequence/dinner_party_scheme/dinner_party_scheme_6.png"" class=""exp-image"">
                    <div class=""question-area""></div> 
                </div>","null","","","","","","","",""
"","","","","","html-button-response","28","166297","0.0-28.0","FF2C447A83B0498EAAEA8C001D2A1086","019cefad-fff4-7796-b0d8-2858f077f925","019cef87-c56d-7b55-9135-c5814367ec25","","726","
                <div class=""stimulus-container"">
                    <img src=""images/schematic_sequence/dinner_party_scheme/dinner_party_scheme_6.png"" class=""exp-image"">
                    <div class=""question-area"">
                        <p style=""font-size: 20px; font-weight: bold; margin: 0;"">Is there a person in this image?</p>
                    </div>
                </div>","0","main_experiment_trial","6","dinner_party_scheme","schematic_sequence","","","",""
"","","","","","html-keyboard-response","29","171300","0.0-29.0","FF2C447A83B0498EAAEA8C001D2A1086","019cefad-fff4-7796-b0d8-2858f077f925","019cef87-c56d-7b55-9135-c5814367ec25","","null","
                <div class=""stimulus-container"">
                    <img src=""images/schematic_sequence/dinner_party_scheme/dinner_party_scheme_7.png"" class=""exp-image"">
                    <div class=""question-area""></div> 
                </div>","null","","","","","","","",""
"","","","","","html-button-response","30","171908","0.0-30.0","FF2C447A83B0498EAAEA8C001D2A1086","019cefad-fff4-7796-b0d8-2858f077f925","019cef87-c56d-7b55-9135-c5814367ec25","","606","
                <div class=""stimulus-container"">
                    <img src=""images/schematic_sequence/dinner_party_scheme/dinner_party_scheme_7.png"" class=""exp-image"">
                    <div class=""question-area"">
                        <p style=""font-size: 20px; font-weight: bold; margin: 0;"">Is there a person in this image?</p>
                    </div>
                </div>","0","main_experiment_trial","7","dinner_party_scheme","schematic_sequence","","","",""
"","","","","","html-keyboard-response","31","176911","0.0-31.0","FF2C447A83B0498EAAEA8C001D2A1086","019cefad-fff4-7796-b0d8-2858f077f925","019cef87-c56d-7b55-9135-c5814367ec25","","null","
                <div class=""stimulus-container"">
                    <img src=""images/schematic_sequence/dinner_party_scheme/dinner_party_scheme_8.png"" class=""exp-image"">
                    <div class=""question-area""></div> 
                </div>","null","","","","","","","",""
"","","","","","html-button-response","32","177849","0.0-32.0","FF2C447A83B0498EAAEA8C001D2A1086","019cefad-fff4-7796-b0d8-2858f077f925","019cef87-c56d-7b55-9135-c5814367ec25","","936","
                <div class=""stimulus-container"">
                    <img src=""images/schematic_sequence/dinner_party_scheme/dinner_party_scheme_8.png"" class=""exp-image"">
                    <div class=""question-area"">
                        <p style=""font-size: 20px; font-weight: bold; margin: 0;"">Is there a person in this image?</p>
                    </div>
                </div>","0","main_experiment_trial","8","dinner_party_scheme","schematic_sequence","","","",""
"","","","","","html-keyboard-response","33","182852","0.0-33.0","FF2C447A83B0498EAAEA8C001D2A1086","019cefad-fff4-7796-b0d8-2858f077f925","019cef87-c56d-7b55-9135-c5814367ec25","","null","
                <div class=""stimulus-container"">
                    <img src=""images/schematic_sequence/dinner_party_scheme/dinner_party_scheme_9.png"" class=""exp-image"">
                    <div class=""question-area""></div> 
                </div>","null","","","","","","","",""
"","","","","","html-button-response","34","183674","0.0-34.0","FF2C447A83B0498EAAEA8C001D2A1086","019cefad-fff4-7796-b0d8-2858f077f925","019cef87-c56d-7b55-9135-c5814367ec25","","821","
                <div class=""stimulus-container"">
                    <img src=""images/schematic_sequence/dinner_party_scheme/dinner_party_scheme_9.png"" class=""exp-image"">
                    <div class=""question-area"">
                        <p style=""font-size: 20px; font-weight: bold; margin: 0;"">Is there a person in this image?</p>
                    </div>
                </div>","0","main_experiment_trial","9","dinner_party_scheme","schematic_sequence","","","",""
"","","","","","html-keyboard-response","35","188677","0.0-35.0","FF2C447A83B0498EAAEA8C001D2A1086","019cefad-fff4-7796-b0d8-2858f077f925","019cef87-c56d-7b55-9135-c5814367ec25","","null","
                <div class=""stimulus-container"">
                    <img src=""images/schematic_sequence/dinner_party_scheme/dinner_party_scheme_ten.png"" class=""exp-image"">
                    <div class=""question-area""></div> 
                </div>","null","","","","","","","",""
"","","","","","html-button-response","36","189414","0.0-36.0","FF2C447A83B0498EAAEA8C001D2A1086","019cefad-fff4-7796-b0d8-2858f077f925","019cef87-c56d-7b55-9135-c5814367ec25","","735","
                <div class=""stimulus-container"">
                    <img src=""images/schematic_sequence/dinner_party_scheme/dinner_party_scheme_ten.png"" class=""exp-image"">
                    <div class=""question-area"">
                        <p style=""font-size: 20px; font-weight: bold; margin: 0;"">Is there a person in this image?</p>
                    </div>
                </div>","0","main_experiment_trial","ten","dinner_party_scheme","schematic_sequence","","","",""
"","","","","","html-keyboard-response","37","190417","0.0-37.0","FF2C447A83B0498EAAEA8C001D2A1086","019cefad-fff4-7796-b0d8-2858f077f925","019cef87-c56d-7b55-9135-c5814367ec25","","null","<div style=""background-color: white; width: 100vw; height: 100vh;""></div>","null","","","","","","","",""
"","","","","","html-keyboard-response","38","195419","0.0-38.0","FF2C447A83B0498EAAEA8C001D2A1086","019cefad-fff4-7796-b0d8-2858f077f925","019cef87-c56d-7b55-9135-c5814367ec25","","null","
                <div class=""stimulus-container"">
                    <img src=""images/schematic_sequence/interview_scheme/interview_scheme_1.png"" class=""exp-image"">
                    <div class=""question-area""></div> 
                </div>","null","","","","","","","",""
"","","","","","html-button-response","39","196409","0.0-39.0","FF2C447A83B0498EAAEA8C001D2A1086","019cefad-fff4-7796-b0d8-2858f077f925","019cef87-c56d-7b55-9135-c5814367ec25","","988","
                <div class=""stimulus-container"">
                    <img src=""images/schematic_sequence/interview_scheme/interview_scheme_1.png"" class=""exp-image"">
                    <div class=""question-area"">
                        <p style=""font-size: 20px; font-weight: bold; margin: 0;"">Is there a person in this image?</p>
                    </div>
                </div>","1","main_experiment_trial","1","interview_scheme","schematic_sequence","","","",""
"","","","","","html-keyboard-response","40","201412","0.0-40.0","FF2C447A83B0498EAAEA8C001D2A1086","019cefad-fff4-7796-b0d8-2858f077f925","019cef87-c56d-7b55-9135-c5814367ec25","","null","
                <div class=""stimulus-container"">
                    <img src=""images/schematic_sequence/interview_scheme/interview_scheme_2.png"" class=""exp-image"">
                    <div class=""question-area""></div> 
                </div>","null","","","","","","","",""
"","","","","","html-button-response","41","202130","0.0-41.0","FF2C447A83B0498EAAEA8C001D2A1086","019cefad-fff4-7796-b0d8-2858f077f925","019cef87-c56d-7b55-9135-c5814367ec25","","717","
                <div class=""stimulus-container"">
                    <img src=""images/schematic_sequence/interview_scheme/interview_scheme_2.png"" class=""exp-image"">
                    <div class=""question-area"">
                        <p style=""font-size: 20px; font-weight: bold; margin: 0;"">Is there a person in this image?</p>
                    </div>
                </div>","0","main_experiment_trial","2","interview_scheme","schematic_sequence","","","",""
"","","","","","html-keyboard-response","42","207133","0.0-42.0","FF2C447A83B0498EAAEA8C001D2A1086","019cefad-fff4-7796-b0d8-2858f077f925","019cef87-c56d-7b55-9135-c5814367ec25","","null","
                <div class=""stimulus-container"">
                    <img src=""images/schematic_sequence/interview_scheme/interview_scheme_3.png"" class=""exp-image"">
                    <div class=""question-area""></div> 
                </div>","null","","","","","","","",""
"","","","","","html-button-response","43","207801","0.0-43.0","FF2C447A83B0498EAAEA8C001D2A1086","019cefad-fff4-7796-b0d8-2858f077f925","019cef87-c56d-7b55-9135-c5814367ec25","","666","
                <div class=""stimulus-container"">
                    <img src=""images/schematic_sequence/interview_scheme/interview_scheme_3.png"" class=""exp-image"">
                    <div class=""question-area"">
                        <p style=""font-size: 20px; font-weight: bold; margin: 0;"">Is there a person in this image?</p>
                    </div>
                </div>","1","main_experiment_trial","3","interview_scheme","schematic_sequence","","","",""
"","","","","","html-keyboard-response","44","212803","0.0-44.0","FF2C447A83B0498EAAEA8C001D2A1086","019cefad-fff4-7796-b0d8-2858f077f925","019cef87-c56d-7b55-9135-c5814367ec25","","null","
                <div class=""stimulus-container"">
                    <img src=""images/schematic_sequence/interview_scheme/interview_scheme_4.png"" class=""exp-image"">
                    <div class=""question-area""></div> 
                </div>","null","","","","","","","",""
"","","","","","html-button-response","45","213526","0.0-45.0","FF2C447A83B0498EAAEA8C001D2A1086","019cefad-fff4-7796-b0d8-2858f077f925","019cef87-c56d-7b55-9135-c5814367ec25","","721","
                <div class=""stimulus-container"">
                    <img src=""images/schematic_sequence/interview_scheme/interview_scheme_4.png"" class=""exp-image"">
                    <div class=""question-area"">
                        <p style=""font-size: 20px; font-weight: bold; margin: 0;"">Is there a person in this image?</p>
                    </div>
                </div>","1","main_experiment_trial","4","interview_scheme","schematic_sequence","","","",""
"","","","","","html-keyboard-response","46","218529","0.0-46.0","FF2C447A83B0498EAAEA8C001D2A1086","019cefad-fff4-7796-b0d8-2858f077f925","019cef87-c56d-7b55-9135-c5814367ec25","","null","
                <div class=""stimulus-container"">
                    <img src=""images/schematic_sequence/interview_scheme/interview_scheme_5.png"" class=""exp-image"">
                    <div class=""question-area""></div> 
                </div>","null","","","","","","","",""
"","","","","","html-button-response","47","219572","0.0-47.0","FF2C447A83B0498EAAEA8C001D2A1086","019cefad-fff4-7796-b0d8-2858f077f925","019cef87-c56d-7b55-9135-c5814367ec25","","1041","
                <div class=""stimulus-container"">
                    <img src=""images/schematic_sequence/interview_scheme/interview_scheme_5.png"" class=""exp-image"">
                    <div class=""question-area"">
                        <p style=""font-size: 20px; font-weight: bold; margin: 0;"">Is there a person in this image?</p>
                    </div>
                </div>","0","main_experiment_trial","5","interview_scheme","schematic_sequence","","","",""
"","","","","","html-keyboard-response","48","224575","0.0-48.0","FF2C447A83B0498EAAEA8C001D2A1086","019cefad-fff4-7796-b0d8-2858f077f925","019cef87-c56d-7b55-9135-c5814367ec25","","null","
                <div class=""stimulus-container"">
                    <img src=""images/schematic_sequence/interview_scheme/interview_scheme_6.png"" class=""exp-image"">
                    <div class=""question-area""></div> 
                </div>","null","","","","","","","",""
"","","","","","html-button-response","49","225352","0.0-49.0","FF2C447A83B0498EAAEA8C001D2A1086","019cefad-fff4-7796-b0d8-2858f077f925","019cef87-c56d-7b55-9135-c5814367ec25","","776","
                <div class=""stimulus-container"">
                    <img src=""images/schematic_sequence/interview_scheme/interview_scheme_6.png"" class=""exp-image"">
                    <div class=""question-area"">
                        <p style=""font-size: 20px; font-weight: bold; margin: 0;"">Is there a person in this image?</p>
                    </div>
                </div>","0","main_experiment_trial","6","interview_scheme","schematic_sequence","","","",""
"","","","","","html-keyboard-response","50","230355","0.0-50.0","FF2C447A83B0498EAAEA8C001D2A1086","019cefad-fff4-7796-b0d8-2858f077f925","019cef87-c56d-7b55-9135-c5814367ec25","","null","
                <div class=""stimulus-container"">
                    <img src=""images/schematic_sequence/interview_scheme/interview_scheme_7.png"" class=""exp-image"">
                    <div class=""question-area""></div> 
                </div>","null","","","","","","","",""
"","","","","","html-button-response","51","231125","0.0-51.0","FF2C447A83B0498EAAEA8C001D2A1086","019cefad-fff4-7796-b0d8-2858f077f925","019cef87-c56d-7b55-9135-c5814367ec25","","769","
                <div class=""stimulus-container"">
                    <img src=""images/schematic_sequence/interview_scheme/interview_scheme_7.png"" class=""exp-image"">
                    <div class=""question-area"">
                        <p style=""font-size: 20px; font-weight: bold; margin: 0;"">Is there a person in this image?</p>
                    </div>
                </div>","0","main_experiment_trial","7","interview_scheme","schematic_sequence","","","",""
"","","","","","html-keyboard-response","52","236128","0.0-52.0","FF2C447A83B0498EAAEA8C001D2A1086","019cefad-fff4-7796-b0d8-2858f077f925","019cef87-c56d-7b55-9135-c5814367ec25","","null","
                <div class=""stimulus-container"">
                    <img src=""images/schematic_sequence/interview_scheme/interview_scheme_8.png"" class=""exp-image"">
                    <div class=""question-area""></div> 
                </div>","null","","","","","","","",""
"","","","","","html-button-response","53","237000","0.0-53.0","FF2C447A83B0498EAAEA8C001D2A1086","019cefad-fff4-7796-b0d8-2858f077f925","019cef87-c56d-7b55-9135-c5814367ec25","","870","
                <div class=""stimulus-container"">
                    <img src=""images/schematic_sequence/interview_scheme/interview_scheme_8.png"" class=""exp-image"">
                    <div class=""question-area"">
                        <p style=""font-size: 20px; font-weight: bold; margin: 0;"">Is there a person in this image?</p>
                    </div>
                </div>","0","main_experiment_trial","8","interview_scheme","schematic_sequence","","","",""
"","","","","","html-keyboard-response","54","242002","0.0-54.0","FF2C447A83B0498EAAEA8C001D2A1086","019cefad-fff4-7796-b0d8-2858f077f925","019cef87-c56d-7b55-9135-c5814367ec25","","null","
                <div class=""stimulus-container"">
                    <img src=""images/schematic_sequence/interview_scheme/interview_scheme_9.png"" class=""exp-image"">
                    <div class=""question-area""></div> 
                </div>","null","","","","","","","",""
"","","","","","html-button-response","55","242824","0.0-55.0","FF2C447A83B0498EAAEA8C001D2A1086","019cefad-fff4-7796-b0d8-2858f077f925","019cef87-c56d-7b55-9135-c5814367ec25","","820","
                <div class=""stimulus-container"">
                    <img src=""images/schematic_sequence/interview_scheme/interview_scheme_9.png"" class=""exp-image"">
                    <div class=""question-area"">
                        <p style=""font-size: 20px; font-weight: bold; margin: 0;"">Is there a person in this image?</p>
                    </div>
                </div>","0","main_experiment_trial","9","interview_scheme","schematic_sequence","","","",""
"","","","","","html-keyboard-response","56","247825","0.0-56.0","FF2C447A83B0498EAAEA8C001D2A1086","019cefad-fff4-7796-b0d8-2858f077f925","019cef87-c56d-7b55-9135-c5814367ec25","","null","
                <div class=""stimulus-container"">
                    <img src=""images/schematic_sequence/interview_scheme/interview_scheme_ten.png"" class=""exp-image"">
                    <div class=""question-area""></div> 
                </div>","null","","","","","","","",""
"","","","","","html-button-response","57","248564","0.0-57.0","FF2C447A83B0498EAAEA8C001D2A1086","019cefad-fff4-7796-b0d8-2858f077f925","019cef87-c56d-7b55-9135-c5814367ec25","","737","
                <div class=""stimulus-container"">
                    <img src=""images/schematic_sequence/interview_scheme/interview_scheme_ten.png"" class=""exp-image"">
                    <div class=""question-area"">
                        <p style=""font-size: 20px; font-weight: bold; margin: 0;"">Is there a person in this image?</p>
                    </div>
                </div>","0","main_experiment_trial","ten","interview_scheme","schematic_sequence","","","",""
"","","","","","html-keyboard-response","58","249566","0.0-58.0","FF2C447A83B0498EAAEA8C001D2A1086","019cefad-fff4-7796-b0d8-2858f077f925","019cef87-c56d-7b55-9135-c5814367ec25","","null","<div style=""background-color: white; width: 100vw; height: 100vh;""></div>","null","","","","","","","",""
"","","","","","html-keyboard-response","59","254569","0.0-59.0","FF2C447A83B0498EAAEA8C001D2A1086","019cefad-fff4-7796-b0d8-2858f077f925","019cef87-c56d-7b55-9135-c5814367ec25","","null","
                <div class=""stimulus-container"">
                    <img src=""images/causal_sequence/saving_a_cat_causal/saving_a_cat_causal_1.png"" class=""exp-image"">
                    <div class=""question-area""></div> 
                </div>","null","","","","","","","",""
"","","","","","html-button-response","60","255297","0.0-60.0","FF2C447A83B0498EAAEA8C001D2A1086","019cefad-fff4-7796-b0d8-2858f077f925","019cef87-c56d-7b55-9135-c5814367ec25","","727","
                <div class=""stimulus-container"">
                    <img src=""images/causal_sequence/saving_a_cat_causal/saving_a_cat_causal_1.png"" class=""exp-image"">
                    <div class=""question-area"">
                        <p style=""font-size: 20px; font-weight: bold; margin: 0;"">Is there a person in this image?</p>
                    </div>
                </div>","0","main_experiment_trial","1","saving_a_cat_causal","causal_sequence","","","",""
"","","","","","html-keyboard-response","61","260300","0.0-61.0","FF2C447A83B0498EAAEA8C001D2A1086","019cefad-fff4-7796-b0d8-2858f077f925","019cef87-c56d-7b55-9135-c5814367ec25","","null","
                <div class=""stimulus-container"">
                    <img src=""images/causal_sequence/saving_a_cat_causal/saving_a_cat_causal_2.png"" class=""exp-image"">
                    <div class=""question-area""></div> 
                </div>","null","","","","","","","",""
"","","","","","html-button-response","62","261167","0.0-62.0","FF2C447A83B0498EAAEA8C001D2A1086","019cefad-fff4-7796-b0d8-2858f077f925","019cef87-c56d-7b55-9135-c5814367ec25","","865","
                <div class=""stimulus-container"">
                    <img src=""images/causal_sequence/saving_a_cat_causal/saving_a_cat_causal_2.png"" class=""exp-image"">
                    <div class=""question-area"">
                        <p style=""font-size: 20px; font-weight: bold; margin: 0;"">Is there a person in this image?</p>
                    </div>
                </div>","1","main_experiment_trial","2","saving_a_cat_causal","causal_sequence","","","",""
"","","","","","html-keyboard-response","63","266169","0.0-63.0","FF2C447A83B0498EAAEA8C001D2A1086","019cefad-fff4-7796-b0d8-2858f077f925","019cef87-c56d-7b55-9135-c5814367ec25","","null","
                <div class=""stimulus-container"">
                    <img src=""images/causal_sequence/saving_a_cat_causal/saving_a_cat_causal_3.png"" class=""exp-image"">
                    <div class=""question-area""></div> 
                </div>","null","","","","","","","",""
"","","","","","html-button-response","64","267818","0.0-64.0","FF2C447A83B0498EAAEA8C001D2A1086","019cefad-fff4-7796-b0d8-2858f077f925","019cef87-c56d-7b55-9135-c5814367ec25","","1647","
                <div class=""stimulus-container"">
                    <img src=""images/causal_sequence/saving_a_cat_causal/saving_a_cat_causal_3.png"" class=""exp-image"">
                    <div class=""question-area"">
                        <p style=""font-size: 20px; font-weight: bold; margin: 0;"">Is there a person in this image?</p>
                    </div>
                </div>","1","main_experiment_trial","3","saving_a_cat_causal","causal_sequence","","","",""
"","","","","","html-keyboard-response","65","272820","0.0-65.0","FF2C447A83B0498EAAEA8C001D2A1086","019cefad-fff4-7796-b0d8-2858f077f925","019cef87-c56d-7b55-9135-c5814367ec25","","null","
                <div class=""stimulus-container"">
                    <img src=""images/causal_sequence/saving_a_cat_causal/saving_a_cat_causal_4.png"" class=""exp-image"">
                    <div class=""question-area""></div> 
                </div>","null","","","","","","","",""
"","","","","","html-button-response","66","273462","0.0-66.0","FF2C447A83B0498EAAEA8C001D2A1086","019cefad-fff4-7796-b0d8-2858f077f925","019cef87-c56d-7b55-9135-c5814367ec25","","641","
                <div class=""stimulus-container"">
                    <img src=""images/causal_sequence/saving_a_cat_causal/saving_a_cat_causal_4.png"" class=""exp-image"">
                    <div class=""question-area"">
                        <p style=""font-size: 20px; font-weight: bold; margin: 0;"">Is there a person in this image?</p>
                    </div>
                </div>","0","main_experiment_trial","4","saving_a_cat_causal","causal_sequence","","","",""
"","","","","","html-keyboard-response","67","278466","0.0-67.0","FF2C447A83B0498EAAEA8C001D2A1086","019cefad-fff4-7796-b0d8-2858f077f925","019cef87-c56d-7b55-9135-c5814367ec25","","null","
                <div class=""stimulus-container"">
                    <img src=""images/causal_sequence/saving_a_cat_causal/saving_a_cat_causal_5.png"" class=""exp-image"">
                    <div class=""question-area""></div> 
                </div>","null","","","","","","","",""
"","","","","","html-button-response","68","279042","0.0-68.0","FF2C447A83B0498EAAEA8C001D2A1086","019cefad-fff4-7796-b0d8-2858f077f925","019cef87-c56d-7b55-9135-c5814367ec25","","575","
                <div class=""stimulus-container"">
                    <img src=""images/causal_sequence/saving_a_cat_causal/saving_a_cat_causal_5.png"" class=""exp-image"">
                    <div class=""question-area"">
                        <p style=""font-size: 20px; font-weight: bold; margin: 0;"">Is there a person in this image?</p>
                    </div>
                </div>","0","main_experiment_trial","5","saving_a_cat_causal","causal_sequence","","","",""
"","","","","","html-keyboard-response","69","284045","0.0-69.0","FF2C447A83B0498EAAEA8C001D2A1086","019cefad-fff4-7796-b0d8-2858f077f925","019cef87-c56d-7b55-9135-c5814367ec25","","null","
                <div class=""stimulus-container"">
                    <img src=""images/causal_sequence/saving_a_cat_causal/saving_a_cat_causal_6.png"" class=""exp-image"">
                    <div class=""question-area""></div> 
                </div>","null","","","","","","","",""
"","","","","","html-button-response","70","284834","0.0-70.0","FF2C447A83B0498EAAEA8C001D2A1086","019cefad-fff4-7796-b0d8-2858f077f925","019cef87-c56d-7b55-9135-c5814367ec25","","787","
                <div class=""stimulus-container"">
                    <img src=""images/causal_sequence/saving_a_cat_causal/saving_a_cat_causal_6.png"" class=""exp-image"">
                    <div class=""question-area"">
                        <p style=""font-size: 20px; font-weight: bold; margin: 0;"">Is there a person in this image?</p>
                    </div>
                </div>","0","main_experiment_trial","6","saving_a_cat_causal","causal_sequence","","","",""
"","","","","","html-keyboard-response","71","289835","0.0-71.0","FF2C447A83B0498EAAEA8C001D2A1086","019cefad-fff4-7796-b0d8-2858f077f925","019cef87-c56d-7b55-9135-c5814367ec25","","null","
                <div class=""stimulus-container"">
                    <img src=""images/causal_sequence/saving_a_cat_causal/saving_a_cat_causal_7.png"" class=""exp-image"">
                    <div class=""question-area""></div> 
                </div>","null","","","","","","","",""
"","","","","","html-button-response","72","290493","0.0-72.0","FF2C447A83B0498EAAEA8C001D2A1086","019cefad-fff4-7796-b0d8-2858f077f925","019cef87-c56d-7b55-9135-c5814367ec25","","656","
                <div class=""stimulus-container"">
                    <img src=""images/causal_sequence/saving_a_cat_causal/saving_a_cat_causal_7.png"" class=""exp-image"">
                    <div class=""question-area"">
                        <p style=""font-size: 20px; font-weight: bold; margin: 0;"">Is there a person in this image?</p>
                    </div>
                </div>","0","main_experiment_trial","7","saving_a_cat_causal","causal_sequence","","","",""
"","","","","","html-keyboard-response","73","295494","0.0-73.0","FF2C447A83B0498EAAEA8C001D2A1086","019cefad-fff4-7796-b0d8-2858f077f925","019cef87-c56d-7b55-9135-c5814367ec25","","null","
                <div class=""stimulus-container"">
                    <img src=""images/causal_sequence/saving_a_cat_causal/saving_a_cat_causal_8.png"" class=""exp-image"">
                    <div class=""question-area""></div> 
                </div>","null","","","","","","","",""
"","","","","","html-button-response","74","296117","0.0-74.0","FF2C447A83B0498EAAEA8C001D2A1086","019cefad-fff4-7796-b0d8-2858f077f925","019cef87-c56d-7b55-9135-c5814367ec25","","622","
                <div class=""stimulus-container"">
                    <img src=""images/causal_sequence/saving_a_cat_causal/saving_a_cat_causal_8.png"" class=""exp-image"">
                    <div class=""question-area"">
                        <p style=""font-size: 20px; font-weight: bold; margin: 0;"">Is there a person in this image?</p>
                    </div>
                </div>","0","main_experiment_trial","8","saving_a_cat_causal","causal_sequence","","","",""
"","","","","","html-keyboard-response","75","301119","0.0-75.0","FF2C447A83B0498EAAEA8C001D2A1086","019cefad-fff4-7796-b0d8-2858f077f925","019cef87-c56d-7b55-9135-c5814367ec25","","null","
                <div class=""stimulus-container"">
                    <img src=""images/causal_sequence/saving_a_cat_causal/saving_a_cat_causal_9.png"" class=""exp-image"">
                    <div class=""question-area""></div> 
                </div>","null","","","","","","","",""
"","","","","","html-button-response","76","301874","0.0-76.0","FF2C447A83B0498EAAEA8C001D2A1086","019cefad-fff4-7796-b0d8-2858f077f925","019cef87-c56d-7b55-9135-c5814367ec25","","753","
                <div class=""stimulus-container"">
                    <img src=""images/causal_sequence/saving_a_cat_causal/saving_a_cat_causal_9.png"" class=""exp-image"">
                    <div class=""question-area"">
                        <p style=""font-size: 20px; font-weight: bold; margin: 0;"">Is there a person in this image?</p>
                    </div>
                </div>","0","main_experiment_trial","9","saving_a_cat_causal","causal_sequence","","","",""
"","","","","","html-keyboard-response","77","306877","0.0-77.0","FF2C447A83B0498EAAEA8C001D2A1086","019cefad-fff4-7796-b0d8-2858f077f925","019cef87-c56d-7b55-9135-c5814367ec25","","null","
                <div class=""stimulus-container"">
                    <img src=""images/causal_sequence/saving_a_cat_causal/saving_a_cat_causal_ten.png"" class=""exp-image"">
                    <div class=""question-area""></div> 
                </div>","null","","","","","","","",""
"","","","","","html-button-response","78","307603","0.0-78.0","FF2C447A83B0498EAAEA8C001D2A1086","019cefad-fff4-7796-b0d8-2858f077f925","019cef87-c56d-7b55-9135-c5814367ec25","","724","
                <div class=""stimulus-container"">
                    <img src=""images/causal_sequence/saving_a_cat_causal/saving_a_cat_causal_ten.png"" class=""exp-image"">
                    <div class=""question-area"">
                        <p style=""font-size: 20px; font-weight: bold; margin: 0;"">Is there a person in this image?</p>
                    </div>
                </div>","0","main_experiment_trial","ten","saving_a_cat_causal","causal_sequence","","","",""
"","","","","","html-keyboard-response","79","308606","0.0-79.0","FF2C447A83B0498EAAEA8C001D2A1086","019cefad-fff4-7796-b0d8-2858f077f925","019cef87-c56d-7b55-9135-c5814367ec25","","null","<div style=""background-color: white; width: 100vw; height: 100vh;""></div>","null","","","","","","","",""
"","","","","","html-keyboard-response","80","313607","0.0-80.0","FF2C447A83B0498EAAEA8C001D2A1086","019cefad-fff4-7796-b0d8-2858f077f925","019cef87-c56d-7b55-9135-c5814367ec25","","null","
                <div class=""stimulus-container"">
                    <img src=""images/causal_sequence/museum_causal/museum_causal_1.png"" class=""exp-image"">
                    <div class=""question-area""></div> 
                </div>","null","","","","","","","",""
"","","","","","html-button-response","81","314377","0.0-81.0","FF2C447A83B0498EAAEA8C001D2A1086","019cefad-fff4-7796-b0d8-2858f077f925","019cef87-c56d-7b55-9135-c5814367ec25","","767","
                <div class=""stimulus-container"">
                    <img src=""images/causal_sequence/museum_causal/museum_causal_1.png"" class=""exp-image"">
                    <div class=""question-area"">
                        <p style=""font-size: 20px; font-weight: bold; margin: 0;"">Is there a person in this image?</p>
                    </div>
                </div>","0","main_experiment_trial","1","museum_causal","causal_sequence","","","",""
"","","","","","html-keyboard-response","82","319379","0.0-82.0","FF2C447A83B0498EAAEA8C001D2A1086","019cefad-fff4-7796-b0d8-2858f077f925","019cef87-c56d-7b55-9135-c5814367ec25","","null","
                <div class=""stimulus-container"">
                    <img src=""images/causal_sequence/museum_causal/museum_causal_2.png"" class=""exp-image"">
                    <div class=""question-area""></div> 
                </div>","null","","","","","","","",""
"","","","","","html-button-response","83","320963","0.0-83.0","FF2C447A83B0498EAAEA8C001D2A1086","019cefad-fff4-7796-b0d8-2858f077f925","019cef87-c56d-7b55-9135-c5814367ec25","","1582","
                <div class=""stimulus-container"">
                    <img src=""images/causal_sequence/museum_causal/museum_causal_2.png"" class=""exp-image"">
                    <div class=""question-area"">
                        <p style=""font-size: 20px; font-weight: bold; margin: 0;"">Is there a person in this image?</p>
                    </div>
                </div>","0","main_experiment_trial","2","museum_causal","causal_sequence","","","",""
"","","","","","html-keyboard-response","84","325966","0.0-84.0","FF2C447A83B0498EAAEA8C001D2A1086","019cefad-fff4-7796-b0d8-2858f077f925","019cef87-c56d-7b55-9135-c5814367ec25","","null","
                <div class=""stimulus-container"">
                    <img src=""images/causal_sequence/museum_causal/museum_causal_3.png"" class=""exp-image"">
                    <div class=""question-area""></div> 
                </div>","null","","","","","","","",""
"","","","","","html-button-response","85","326595","0.0-85.0","FF2C447A83B0498EAAEA8C001D2A1086","019cefad-fff4-7796-b0d8-2858f077f925","019cef87-c56d-7b55-9135-c5814367ec25","","627","
                <div class=""stimulus-container"">
                    <img src=""images/causal_sequence/museum_causal/museum_causal_3.png"" class=""exp-image"">
                    <div class=""question-area"">
                        <p style=""font-size: 20px; font-weight: bold; margin: 0;"">Is there a person in this image?</p>
                    </div>
                </div>","0","main_experiment_trial","3","museum_causal","causal_sequence","","","",""
"","","","","","html-keyboard-response","86","331597","0.0-86.0","FF2C447A83B0498EAAEA8C001D2A1086","019cefad-fff4-7796-b0d8-2858f077f925","019cef87-c56d-7b55-9135-c5814367ec25","","null","
                <div class=""stimulus-container"">
                    <img src=""images/causal_sequence/museum_causal/museum_causal_4.png"" class=""exp-image"">
                    <div class=""question-area""></div> 
                </div>","null","","","","","","","",""
"","","","","","html-button-response","87","332269","0.0-87.0","FF2C447A83B0498EAAEA8C001D2A1086","019cefad-fff4-7796-b0d8-2858f077f925","019cef87-c56d-7b55-9135-c5814367ec25","","670","
                <div class=""stimulus-container"">
                    <img src=""images/causal_sequence/museum_causal/museum_causal_4.png"" class=""exp-image"">
                    <div class=""question-area"">
                        <p style=""font-size: 20px; font-weight: bold; margin: 0;"">Is there a person in this image?</p>
                    </div>
                </div>","1","main_experiment_trial","4","museum_causal","causal_sequence","","","",""
"","","","","","html-keyboard-response","88","337271","0.0-88.0","FF2C447A83B0498EAAEA8C001D2A1086","019cefad-fff4-7796-b0d8-2858f077f925","019cef87-c56d-7b55-9135-c5814367ec25","","null","
                <div class=""stimulus-container"">
                    <img src=""images/causal_sequence/museum_causal/museum_causal_5.png"" class=""exp-image"">
                    <div class=""question-area""></div> 
                </div>","null","","","","","","","",""
"","","","","","html-button-response","89","338068","0.0-89.0","FF2C447A83B0498EAAEA8C001D2A1086","019cefad-fff4-7796-b0d8-2858f077f925","019cef87-c56d-7b55-9135-c5814367ec25","","795","
                <div class=""stimulus-container"">
                    <img src=""images/causal_sequence/museum_causal/museum_causal_5.png"" class=""exp-image"">
                    <div class=""question-area"">
                        <p style=""font-size: 20px; font-weight: bold; margin: 0;"">Is there a person in this image?</p>
                    </div>
                </div>","0","main_experiment_trial","5","museum_causal","causal_sequence","","","",""
"","","","","","html-keyboard-response","90","343071","0.0-90.0","FF2C447A83B0498EAAEA8C001D2A1086","019cefad-fff4-7796-b0d8-2858f077f925","019cef87-c56d-7b55-9135-c5814367ec25","","null","
                <div class=""stimulus-container"">
                    <img src=""images/causal_sequence/museum_causal/museum_causal_6.png"" class=""exp-image"">
                    <div class=""question-area""></div> 
                </div>","null","","","","","","","",""
"","","","","","html-button-response","91","343792","0.0-91.0","FF2C447A83B0498EAAEA8C001D2A1086","019cefad-fff4-7796-b0d8-2858f077f925","019cef87-c56d-7b55-9135-c5814367ec25","","720","
                <div class=""stimulus-container"">
                    <img src=""images/causal_sequence/museum_causal/museum_causal_6.png"" class=""exp-image"">
                    <div class=""question-area"">
                        <p style=""font-size: 20px; font-weight: bold; margin: 0;"">Is there a person in this image?</p>
                    </div>
                </div>","0","main_experiment_trial","6","museum_causal","causal_sequence","","","",""
"","","","","","html-keyboard-response","92","348794","0.0-92.0","FF2C447A83B0498EAAEA8C001D2A1086","019cefad-fff4-7796-b0d8-2858f077f925","019cef87-c56d-7b55-9135-c5814367ec25","","null","
                <div class=""stimulus-container"">
                    <img src=""images/causal_sequence/museum_causal/museum_causal_7.png"" class=""exp-image"">
                    <div class=""question-area""></div> 
                </div>","null","","","","","","","",""
"","","","","","html-button-response","93","350530","0.0-93.0","FF2C447A83B0498EAAEA8C001D2A1086","019cefad-fff4-7796-b0d8-2858f077f925","019cef87-c56d-7b55-9135-c5814367ec25","","1734","
                <div class=""stimulus-container"">
                    <img src=""images/causal_sequence/museum_causal/museum_causal_7.png"" class=""exp-image"">
                    <div class=""question-area"">
                        <p style=""font-size: 20px; font-weight: bold; margin: 0;"">Is there a person in this image?</p>
                    </div>
                </div>","1","main_experiment_trial","7","museum_causal","causal_sequence","","","",""
"","","","","","html-keyboard-response","94","355532","0.0-94.0","FF2C447A83B0498EAAEA8C001D2A1086","019cefad-fff4-7796-b0d8-2858f077f925","019cef87-c56d-7b55-9135-c5814367ec25","","null","
                <div class=""stimulus-container"">
                    <img src=""images/causal_sequence/museum_causal/museum_causal_8.png"" class=""exp-image"">
                    <div class=""question-area""></div> 
                </div>","null","","","","","","","",""
"","","","","","html-button-response","95","356459","0.0-95.0","FF2C447A83B0498EAAEA8C001D2A1086","019cefad-fff4-7796-b0d8-2858f077f925","019cef87-c56d-7b55-9135-c5814367ec25","","925","
                <div class=""stimulus-container"">
                    <img src=""images/causal_sequence/museum_causal/museum_causal_8.png"" class=""exp-image"">
                    <div class=""question-area"">
                        <p style=""font-size: 20px; font-weight: bold; margin: 0;"">Is there a person in this image?</p>
                    </div>
                </div>","0","main_experiment_trial","8","museum_causal","causal_sequence","","","",""
"","","","","","html-keyboard-response","96","361461","0.0-96.0","FF2C447A83B0498EAAEA8C001D2A1086","019cefad-fff4-7796-b0d8-2858f077f925","019cef87-c56d-7b55-9135-c5814367ec25","","null","
                <div class=""stimulus-container"">
                    <img src=""images/causal_sequence/museum_causal/museum_causal_9.png"" class=""exp-image"">
                    <div class=""question-area""></div> 
                </div>","null","","","","","","","",""
"","","","","","html-button-response","97","363124","0.0-97.0","FF2C447A83B0498EAAEA8C001D2A1086","019cefad-fff4-7796-b0d8-2858f077f925","019cef87-c56d-7b55-9135-c5814367ec25","","1662","
                <div class=""stimulus-container"">
                    <img src=""images/causal_sequence/museum_causal/museum_causal_9.png"" class=""exp-image"">
                    <div class=""question-area"">
                        <p style=""font-size: 20px; font-weight: bold; margin: 0;"">Is there a person in this image?</p>
                    </div>
                </div>","1","main_experiment_trial","9","museum_causal","causal_sequence","","","",""
"","","","","","html-keyboard-response","98","368127","0.0-98.0","FF2C447A83B0498EAAEA8C001D2A1086","019cefad-fff4-7796-b0d8-2858f077f925","019cef87-c56d-7b55-9135-c5814367ec25","","null","
                <div class=""stimulus-container"">
                    <img src=""images/causal_sequence/museum_causal/museum_causal_ten.png"" class=""exp-image"">
                    <div class=""question-area""></div> 
                </div>","null","","","","","","","",""
"","","","","","html-button-response","99","369034","0.0-99.0","FF2C447A83B0498EAAEA8C001D2A1086","019cefad-fff4-7796-b0d8-2858f077f925","019cef87-c56d-7b55-9135-c5814367ec25","","905","
                <div class=""stimulus-container"">
                    <img src=""images/causal_sequence/museum_causal/museum_causal_ten.png"" class=""exp-image"">
                    <div class=""question-area"">
                        <p style=""font-size: 20px; font-weight: bold; margin: 0;"">Is there a person in this image?</p>
                    </div>
                </div>","0","main_experiment_trial","ten","museum_causal","causal_sequence","","","",""
"","","","","","html-keyboard-response","100","370037","0.0-100.0","FF2C447A83B0498EAAEA8C001D2A1086","019cefad-fff4-7796-b0d8-2858f077f925","019cef87-c56d-7b55-9135-c5814367ec25","","null","<div style=""background-color: white; width: 100vw; height: 100vh;""></div>","null","","","","","","","",""
"","","","","","html-keyboard-response","101","375040","0.0-101.0","FF2C447A83B0498EAAEA8C001D2A1086","019cefad-fff4-7796-b0d8-2858f077f925","019cef87-c56d-7b55-9135-c5814367ec25","","null","
                <div class=""stimulus-container"">
                    <img src=""images/schematic_sequence/restaurant_scheme/restaurant_scheme_1.png"" class=""exp-image"">
                    <div class=""question-area""></div> 
                </div>","null","","","","","","","",""
"","","","","","html-button-response","102","375836","0.0-102.0","FF2C447A83B0498EAAEA8C001D2A1086","019cefad-fff4-7796-b0d8-2858f077f925","019cef87-c56d-7b55-9135-c5814367ec25","","795","
                <div class=""stimulus-container"">
                    <img src=""images/schematic_sequence/restaurant_scheme/restaurant_scheme_1.png"" class=""exp-image"">
                    <div class=""question-area"">
                        <p style=""font-size: 20px; font-weight: bold; margin: 0;"">Is there a person in this image?</p>
                    </div>
                </div>","0","main_experiment_trial","1","restaurant_scheme","schematic_sequence","","","",""
"","","","","","html-keyboard-response","103","380839","0.0-103.0","FF2C447A83B0498EAAEA8C001D2A1086","019cefad-fff4-7796-b0d8-2858f077f925","019cef87-c56d-7b55-9135-c5814367ec25","","null","
                <div class=""stimulus-container"">
                    <img src=""images/schematic_sequence/restaurant_scheme/restaurant_scheme_2.png"" class=""exp-image"">
                    <div class=""question-area""></div> 
                </div>","null","","","","","","","",""
"","","","","","html-button-response","104","381915","0.0-104.0","FF2C447A83B0498EAAEA8C001D2A1086","019cefad-fff4-7796-b0d8-2858f077f925","019cef87-c56d-7b55-9135-c5814367ec25","","1075","
                <div class=""stimulus-container"">
                    <img src=""images/schematic_sequence/restaurant_scheme/restaurant_scheme_2.png"" class=""exp-image"">
                    <div class=""question-area"">
                        <p style=""font-size: 20px; font-weight: bold; margin: 0;"">Is there a person in this image?</p>
                    </div>
                </div>","1","main_experiment_trial","2","restaurant_scheme","schematic_sequence","","","",""
"","","","","","html-keyboard-response","105","386917","0.0-105.0","FF2C447A83B0498EAAEA8C001D2A1086","019cefad-fff4-7796-b0d8-2858f077f925","019cef87-c56d-7b55-9135-c5814367ec25","","null","
                <div class=""stimulus-container"">
                    <img src=""images/schematic_sequence/restaurant_scheme/restaurant_scheme_3.png"" class=""exp-image"">
                    <div class=""question-area""></div> 
                </div>","null","","","","","","","",""
"","","","","","html-button-response","106","387635","0.0-106.0","FF2C447A83B0498EAAEA8C001D2A1086","019cefad-fff4-7796-b0d8-2858f077f925","019cef87-c56d-7b55-9135-c5814367ec25","","716","
                <div class=""stimulus-container"">
                    <img src=""images/schematic_sequence/restaurant_scheme/restaurant_scheme_3.png"" class=""exp-image"">
                    <div class=""question-area"">
                        <p style=""font-size: 20px; font-weight: bold; margin: 0;"">Is there a person in this image?</p>
                    </div>
                </div>","1","main_experiment_trial","3","restaurant_scheme","schematic_sequence","","","",""
"","","","","","html-keyboard-response","107","392637","0.0-107.0","FF2C447A83B0498EAAEA8C001D2A1086","019cefad-fff4-7796-b0d8-2858f077f925","019cef87-c56d-7b55-9135-c5814367ec25","","null","
                <div class=""stimulus-container"">
                    <img src=""images/schematic_sequence/restaurant_scheme/restaurant_scheme_4.png"" class=""exp-image"">
                    <div class=""question-area""></div> 
                </div>","null","","","","","","","",""
"","","","","","html-button-response","108","393615","0.0-108.0","FF2C447A83B0498EAAEA8C001D2A1086","019cefad-fff4-7796-b0d8-2858f077f925","019cef87-c56d-7b55-9135-c5814367ec25","","976","
                <div class=""stimulus-container"">
                    <img src=""images/schematic_sequence/restaurant_scheme/restaurant_scheme_4.png"" class=""exp-image"">
                    <div class=""question-area"">
                        <p style=""font-size: 20px; font-weight: bold; margin: 0;"">Is there a person in this image?</p>
                    </div>
                </div>","0","main_experiment_trial","4","restaurant_scheme","schematic_sequence","","","",""
"","","","","","html-keyboard-response","109","398618","0.0-109.0","FF2C447A83B0498EAAEA8C001D2A1086","019cefad-fff4-7796-b0d8-2858f077f925","019cef87-c56d-7b55-9135-c5814367ec25","","null","
                <div class=""stimulus-container"">
                    <img src=""images/schematic_sequence/restaurant_scheme/restaurant_scheme_5.png"" class=""exp-image"">
                    <div class=""question-area""></div> 
                </div>","null","","","","","","","",""
"","","","","","html-button-response","110","399398","0.0-110.0","FF2C447A83B0498EAAEA8C001D2A1086","019cefad-fff4-7796-b0d8-2858f077f925","019cef87-c56d-7b55-9135-c5814367ec25","","778","
                <div class=""stimulus-container"">
                    <img src=""images/schematic_sequence/restaurant_scheme/restaurant_scheme_5.png"" class=""exp-image"">
                    <div class=""question-area"">
                        <p style=""font-size: 20px; font-weight: bold; margin: 0;"">Is there a person in this image?</p>
                    </div>
                </div>","1","main_experiment_trial","5","restaurant_scheme","schematic_sequence","","","",""
"","","","","","html-keyboard-response","111","404400","0.0-111.0","FF2C447A83B0498EAAEA8C001D2A1086","019cefad-fff4-7796-b0d8-2858f077f925","019cef87-c56d-7b55-9135-c5814367ec25","","null","
                <div class=""stimulus-container"">
                    <img src=""images/schematic_sequence/restaurant_scheme/restaurant_scheme_6.png"" class=""exp-image"">
                    <div class=""question-area""></div> 
                </div>","null","","","","","","","",""
"","","","","","html-button-response","112","405277","0.0-112.0","FF2C447A83B0498EAAEA8C001D2A1086","019cefad-fff4-7796-b0d8-2858f077f925","019cef87-c56d-7b55-9135-c5814367ec25","","875","
                <div class=""stimulus-container"">
                    <img src=""images/schematic_sequence/restaurant_scheme/restaurant_scheme_6.png"" class=""exp-image"">
                    <div class=""question-area"">
                        <p style=""font-size: 20px; font-weight: bold; margin: 0;"">Is there a person in this image?</p>
                    </div>
                </div>","1","main_experiment_trial","6","restaurant_scheme","schematic_sequence","","","",""
"","","","","","html-keyboard-response","113","410279","0.0-113.0","FF2C447A83B0498EAAEA8C001D2A1086","019cefad-fff4-7796-b0d8-2858f077f925","019cef87-c56d-7b55-9135-c5814367ec25","","null","
                <div class=""stimulus-container"">
                    <img src=""images/schematic_sequence/restaurant_scheme/restaurant_scheme_7.png"" class=""exp-image"">
                    <div class=""question-area""></div> 
                </div>","null","","","","","","","",""
"","","","","","html-button-response","114","411297","0.0-114.0","FF2C447A83B0498EAAEA8C001D2A1086","019cefad-fff4-7796-b0d8-2858f077f925","019cef87-c56d-7b55-9135-c5814367ec25","","1016","
                <div class=""stimulus-container"">
                    <img src=""images/schematic_sequence/restaurant_scheme/restaurant_scheme_7.png"" class=""exp-image"">
                    <div class=""question-area"">
                        <p style=""font-size: 20px; font-weight: bold; margin: 0;"">Is there a person in this image?</p>
                    </div>
                </div>","1","main_experiment_trial","7","restaurant_scheme","schematic_sequence","","","",""
"","","","","","html-keyboard-response","115","416298","0.0-115.0","FF2C447A83B0498EAAEA8C001D2A1086","019cefad-fff4-7796-b0d8-2858f077f925","019cef87-c56d-7b55-9135-c5814367ec25","","null","
                <div class=""stimulus-container"">
                    <img src=""images/schematic_sequence/restaurant_scheme/restaurant_scheme_8.png"" class=""exp-image"">
                    <div class=""question-area""></div> 
                </div>","null","","","","","","","",""
"","","","","","html-button-response","116","417157","0.0-116.0","FF2C447A83B0498EAAEA8C001D2A1086","019cefad-fff4-7796-b0d8-2858f077f925","019cef87-c56d-7b55-9135-c5814367ec25","","857","
                <div class=""stimulus-container"">
                    <img src=""images/schematic_sequence/restaurant_scheme/restaurant_scheme_8.png"" class=""exp-image"">
                    <div class=""question-area"">
                        <p style=""font-size: 20px; font-weight: bold; margin: 0;"">Is there a person in this image?</p>
                    </div>
                </div>","0","main_experiment_trial","8","restaurant_scheme","schematic_sequence","","","",""
"","","","","","html-keyboard-response","117","422159","0.0-117.0","FF2C447A83B0498EAAEA8C001D2A1086","019cefad-fff4-7796-b0d8-2858f077f925","019cef87-c56d-7b55-9135-c5814367ec25","","null","
                <div class=""stimulus-container"">
                    <img src=""images/schematic_sequence/restaurant_scheme/restaurant_scheme_9.png"" class=""exp-image"">
                    <div class=""question-area""></div> 
                </div>","null","","","","","","","",""
"","","","","","html-button-response","118","423221","0.0-118.0","FF2C447A83B0498EAAEA8C001D2A1086","019cefad-fff4-7796-b0d8-2858f077f925","019cef87-c56d-7b55-9135-c5814367ec25","","1061","
                <div class=""stimulus-container"">
                    <img src=""images/schematic_sequence/restaurant_scheme/restaurant_scheme_9.png"" class=""exp-image"">
                    <div class=""question-area"">
                        <p style=""font-size: 20px; font-weight: bold; margin: 0;"">Is there a person in this image?</p>
                    </div>
                </div>","0","main_experiment_trial","9","restaurant_scheme","schematic_sequence","","","",""
"","","","","","html-keyboard-response","119","428224","0.0-119.0","FF2C447A83B0498EAAEA8C001D2A1086","019cefad-fff4-7796-b0d8-2858f077f925","019cef87-c56d-7b55-9135-c5814367ec25","","null","
                <div class=""stimulus-container"">
                    <img src=""images/schematic_sequence/restaurant_scheme/restaurant_scheme_ten.png"" class=""exp-image"">
                    <div class=""question-area""></div> 
                </div>","null","","","","","","","",""
"","","","","","html-button-response","120","428888","0.0-120.0","FF2C447A83B0498EAAEA8C001D2A1086","019cefad-fff4-7796-b0d8-2858f077f925","019cef87-c56d-7b55-9135-c5814367ec25","","661","
                <div class=""stimulus-container"">
                    <img src=""images/schematic_sequence/restaurant_scheme/restaurant_scheme_ten.png"" class=""exp-image"">
                    <div class=""question-area"">
                        <p style=""font-size: 20px; font-weight: bold; margin: 0;"">Is there a person in this image?</p>
                    </div>
                </div>","0","main_experiment_trial","ten","restaurant_scheme","schematic_sequence","","","",""
"","","","","","html-keyboard-response","121","429890","0.0-121.0","FF2C447A83B0498EAAEA8C001D2A1086","019cefad-fff4-7796-b0d8-2858f077f925","019cef87-c56d-7b55-9135-c5814367ec25","","null","<div style=""background-color: white; width: 100vw; height: 100vh;""></div>","null","","","","","","","",""
"","","","","","html-keyboard-response","122","434892","0.0-122.0","FF2C447A83B0498EAAEA8C001D2A1086","019cefad-fff4-7796-b0d8-2858f077f925","019cef87-c56d-7b55-9135-c5814367ec25","","null","
                <div class=""stimulus-container"">
                    <img src=""images/causal_sequence/coin_causal/coin_causal_1.png"" class=""exp-image"">
                    <div class=""question-area""></div> 
                </div>","null","","","","","","","",""
"","","","","","html-button-response","123","435638","0.0-123.0","FF2C447A83B0498EAAEA8C001D2A1086","019cefad-fff4-7796-b0d8-2858f077f925","019cef87-c56d-7b55-9135-c5814367ec25","","745","
                <div class=""stimulus-container"">
                    <img src=""images/causal_sequence/coin_causal/coin_causal_1.png"" class=""exp-image"">
                    <div class=""question-area"">
                        <p style=""font-size: 20px; font-weight: bold; margin: 0;"">Is there a person in this image?</p>
                    </div>
                </div>","0","main_experiment_trial","1","coin_causal","causal_sequence","","","",""
"","","","","","html-keyboard-response","124","440641","0.0-124.0","FF2C447A83B0498EAAEA8C001D2A1086","019cefad-fff4-7796-b0d8-2858f077f925","019cef87-c56d-7b55-9135-c5814367ec25","","null","
                <div class=""stimulus-container"">
                    <img src=""images/causal_sequence/coin_causal/coin_causal_2.png"" class=""exp-image"">
                    <div class=""question-area""></div> 
                </div>","null","","","","","","","",""
"","","","","","html-button-response","125","441353","0.0-125.0","FF2C447A83B0498EAAEA8C001D2A1086","019cefad-fff4-7796-b0d8-2858f077f925","019cef87-c56d-7b55-9135-c5814367ec25","","711","
                <div class=""stimulus-container"">
                    <img src=""images/causal_sequence/coin_causal/coin_causal_2.png"" class=""exp-image"">
                    <div class=""question-area"">
                        <p style=""font-size: 20px; font-weight: bold; margin: 0;"">Is there a person in this image?</p>
                    </div>
                </div>","0","main_experiment_trial","2","coin_causal","causal_sequence","","","",""
"","","","","","html-keyboard-response","126","446356","0.0-126.0","FF2C447A83B0498EAAEA8C001D2A1086","019cefad-fff4-7796-b0d8-2858f077f925","019cef87-c56d-7b55-9135-c5814367ec25","","null","
                <div class=""stimulus-container"">
                    <img src=""images/causal_sequence/coin_causal/coin_causal_3.png"" class=""exp-image"">
                    <div class=""question-area""></div> 
                </div>","null","","","","","","","",""
"","","","","","html-button-response","127","447098","0.0-127.0","FF2C447A83B0498EAAEA8C001D2A1086","019cefad-fff4-7796-b0d8-2858f077f925","019cef87-c56d-7b55-9135-c5814367ec25","","740","
                <div class=""stimulus-container"">
                    <img src=""images/causal_sequence/coin_causal/coin_causal_3.png"" class=""exp-image"">
                    <div class=""question-area"">
                        <p style=""font-size: 20px; font-weight: bold; margin: 0;"">Is there a person in this image?</p>
                    </div>
                </div>","0","main_experiment_trial","3","coin_causal","causal_sequence","","","",""
"","","","","","html-keyboard-response","128","452101","0.0-128.0","FF2C447A83B0498EAAEA8C001D2A1086","019cefad-fff4-7796-b0d8-2858f077f925","019cef87-c56d-7b55-9135-c5814367ec25","","null","
                <div class=""stimulus-container"">
                    <img src=""images/causal_sequence/coin_causal/coin_causal_4.png"" class=""exp-image"">
                    <div class=""question-area""></div> 
                </div>","null","","","","","","","",""
"","","","","","html-button-response","129","452874","0.0-129.0","FF2C447A83B0498EAAEA8C001D2A1086","019cefad-fff4-7796-b0d8-2858f077f925","019cef87-c56d-7b55-9135-c5814367ec25","","772","
                <div class=""stimulus-container"">
                    <img src=""images/causal_sequence/coin_causal/coin_causal_4.png"" class=""exp-image"">
                    <div class=""question-area"">
                        <p style=""font-size: 20px; font-weight: bold; margin: 0;"">Is there a person in this image?</p>
                    </div>
                </div>","0","main_experiment_trial","4","coin_causal","causal_sequence","","","",""
"","","","","","html-keyboard-response","130","457877","0.0-130.0","FF2C447A83B0498EAAEA8C001D2A1086","019cefad-fff4-7796-b0d8-2858f077f925","019cef87-c56d-7b55-9135-c5814367ec25","","null","
                <div class=""stimulus-container"">
                    <img src=""images/causal_sequence/coin_causal/coin_causal_5.png"" class=""exp-image"">
                    <div class=""question-area""></div> 
                </div>","null","","","","","","","",""
"","","","","","html-button-response","131","458500","0.0-131.0","FF2C447A83B0498EAAEA8C001D2A1086","019cefad-fff4-7796-b0d8-2858f077f925","019cef87-c56d-7b55-9135-c5814367ec25","","622","
                <div class=""stimulus-container"">
                    <img src=""images/causal_sequence/coin_causal/coin_causal_5.png"" class=""exp-image"">
                    <div class=""question-area"">
                        <p style=""font-size: 20px; font-weight: bold; margin: 0;"">Is there a person in this image?</p>
                    </div>
                </div>","0","main_experiment_trial","5","coin_causal","causal_sequence","","","",""
"","","","","","html-keyboard-response","132","463502","0.0-132.0","FF2C447A83B0498EAAEA8C001D2A1086","019cefad-fff4-7796-b0d8-2858f077f925","019cef87-c56d-7b55-9135-c5814367ec25","","null","
                <div class=""stimulus-container"">
                    <img src=""images/causal_sequence/coin_causal/coin_causal_6.png"" class=""exp-image"">
                    <div class=""question-area""></div> 
                </div>","null","","","","","","","",""
"","","","","","html-button-response","133","464126","0.0-133.0","FF2C447A83B0498EAAEA8C001D2A1086","019cefad-fff4-7796-b0d8-2858f077f925","019cef87-c56d-7b55-9135-c5814367ec25","","622","
                <div class=""stimulus-container"">
                    <img src=""images/causal_sequence/coin_causal/coin_causal_6.png"" class=""exp-image"">
                    <div class=""question-area"">
                        <p style=""font-size: 20px; font-weight: bold; margin: 0;"">Is there a person in this image?</p>
                    </div>
                </div>","0","main_experiment_trial","6","coin_causal","causal_sequence","","","",""
"","","","","","html-keyboard-response","134","469129","0.0-134.0","FF2C447A83B0498EAAEA8C001D2A1086","019cefad-fff4-7796-b0d8-2858f077f925","019cef87-c56d-7b55-9135-c5814367ec25","","null","
                <div class=""stimulus-container"">
                    <img src=""images/causal_sequence/coin_causal/coin_causal_7.png"" class=""exp-image"">
                    <div class=""question-area""></div> 
                </div>","null","","","","","","","",""
"","","","","","html-button-response","135","470099","0.0-135.0","FF2C447A83B0498EAAEA8C001D2A1086","019cefad-fff4-7796-b0d8-2858f077f925","019cef87-c56d-7b55-9135-c5814367ec25","","968","
                <div class=""stimulus-container"">
                    <img src=""images/causal_sequence/coin_causal/coin_causal_7.png"" class=""exp-image"">
                    <div class=""question-area"">
                        <p style=""font-size: 20px; font-weight: bold; margin: 0;"">Is there a person in this image?</p>
                    </div>
                </div>","1","main_experiment_trial","7","coin_causal","causal_sequence","","","",""
"","","","","","html-keyboard-response","136","475102","0.0-136.0","FF2C447A83B0498EAAEA8C001D2A1086","019cefad-fff4-7796-b0d8-2858f077f925","019cef87-c56d-7b55-9135-c5814367ec25","","null","
                <div class=""stimulus-container"">
                    <img src=""images/causal_sequence/coin_causal/coin_causal_8.png"" class=""exp-image"">
                    <div class=""question-area""></div> 
                </div>","null","","","","","","","",""
"","","","","","html-button-response","137","477881","0.0-137.0","FF2C447A83B0498EAAEA8C001D2A1086","019cefad-fff4-7796-b0d8-2858f077f925","019cef87-c56d-7b55-9135-c5814367ec25","","2778","
                <div class=""stimulus-container"">
                    <img src=""images/causal_sequence/coin_causal/coin_causal_8.png"" class=""exp-image"">
                    <div class=""question-area"">
                        <p style=""font-size: 20px; font-weight: bold; margin: 0;"">Is there a person in this image?</p>
                    </div>
                </div>","0","main_experiment_trial","8","coin_causal","causal_sequence","","","",""
"","","","","","html-keyboard-response","138","482884","0.0-138.0","FF2C447A83B0498EAAEA8C001D2A1086","019cefad-fff4-7796-b0d8-2858f077f925","019cef87-c56d-7b55-9135-c5814367ec25","","null","
                <div class=""stimulus-container"">
                    <img src=""images/causal_sequence/coin_causal/coin_causal_9.png"" class=""exp-image"">
                    <div class=""question-area""></div> 
                </div>","null","","","","","","","",""
"","","","","","html-button-response","139","485887","0.0-139.0","FF2C447A83B0498EAAEA8C001D2A1086","019cefad-fff4-7796-b0d8-2858f077f925","019cef87-c56d-7b55-9135-c5814367ec25","","null","
                <div class=""stimulus-container"">
                    <img src=""images/causal_sequence/coin_causal/coin_causal_9.png"" class=""exp-image"">
                    <div class=""question-area"">
                        <p style=""font-size: 20px; font-weight: bold; margin: 0;"">Is there a person in this image?</p>
                    </div>
                </div>","null","main_experiment_trial","9","coin_causal","causal_sequence","","","",""
"","","","","","html-keyboard-response","140","490890","0.0-140.0","FF2C447A83B0498EAAEA8C001D2A1086","019cefad-fff4-7796-b0d8-2858f077f925","019cef87-c56d-7b55-9135-c5814367ec25","","null","
                <div class=""stimulus-container"">
                    <img src=""images/causal_sequence/coin_causal/coin_causal_ten.png"" class=""exp-image"">
                    <div class=""question-area""></div> 
                </div>","null","","","","","","","",""
"","","","","","html-button-response","141","491683","0.0-141.0","FF2C447A83B0498EAAEA8C001D2A1086","019cefad-fff4-7796-b0d8-2858f077f925","019cef87-c56d-7b55-9135-c5814367ec25","","792","
                <div class=""stimulus-container"">
                    <img src=""images/causal_sequence/coin_causal/coin_causal_ten.png"" class=""exp-image"">
                    <div class=""question-area"">
                        <p style=""font-size: 20px; font-weight: bold; margin: 0;"">Is there a person in this image?</p>
                    </div>
                </div>","0","main_experiment_trial","ten","coin_causal","causal_sequence","","","",""
"","","","","","html-keyboard-response","142","492686","0.0-142.0","FF2C447A83B0498EAAEA8C001D2A1086","019cefad-fff4-7796-b0d8-2858f077f925","019cef87-c56d-7b55-9135-c5814367ec25","","null","<div style=""background-color: white; width: 100vw; height: 100vh;""></div>","null","","","","","","","",""
"","","","","","html-keyboard-response","143","497688","0.0-143.0","FF2C447A83B0498EAAEA8C001D2A1086","019cefad-fff4-7796-b0d8-2858f077f925","019cef87-c56d-7b55-9135-c5814367ec25","","null","
                <div class=""stimulus-container"">
                    <img src=""images/causal_sequence/package_causal/package_causal_1.png"" class=""exp-image"">
                    <div class=""question-area""></div> 
                </div>","null","","","","","","","",""
"","","","","","html-button-response","144","498327","0.0-144.0","FF2C447A83B0498EAAEA8C001D2A1086","019cefad-fff4-7796-b0d8-2858f077f925","019cef87-c56d-7b55-9135-c5814367ec25","","637","
                <div class=""stimulus-container"">
                    <img src=""images/causal_sequence/package_causal/package_causal_1.png"" class=""exp-image"">
                    <div class=""question-area"">
                        <p style=""font-size: 20px; font-weight: bold; margin: 0;"">Is there a person in this image?</p>
                    </div>
                </div>","0","main_experiment_trial","1","package_causal","causal_sequence","","","",""
"","","","","","html-keyboard-response","145","503329","0.0-145.0","FF2C447A83B0498EAAEA8C001D2A1086","019cefad-fff4-7796-b0d8-2858f077f925","019cef87-c56d-7b55-9135-c5814367ec25","","null","
                <div class=""stimulus-container"">
                    <img src=""images/causal_sequence/package_causal/package_causal_2.png"" class=""exp-image"">
                    <div class=""question-area""></div> 
                </div>","null","","","","","","","",""
"","","","","","html-button-response","146","503956","0.0-146.0","FF2C447A83B0498EAAEA8C001D2A1086","019cefad-fff4-7796-b0d8-2858f077f925","019cef87-c56d-7b55-9135-c5814367ec25","","626","
                <div class=""stimulus-container"">
                    <img src=""images/causal_sequence/package_causal/package_causal_2.png"" class=""exp-image"">
                    <div class=""question-area"">
                        <p style=""font-size: 20px; font-weight: bold; margin: 0;"">Is there a person in this image?</p>
                    </div>
                </div>","0","main_experiment_trial","2","package_causal","causal_sequence","","","",""
"","","","","","html-keyboard-response","147","508959","0.0-147.0","FF2C447A83B0498EAAEA8C001D2A1086","019cefad-fff4-7796-b0d8-2858f077f925","019cef87-c56d-7b55-9135-c5814367ec25","","null","
                <div class=""stimulus-container"">
                    <img src=""images/causal_sequence/package_causal/package_causal_3.png"" class=""exp-image"">
                    <div class=""question-area""></div> 
                </div>","null","","","","","","","",""
"","","","","","html-button-response","148","509733","0.0-148.0","FF2C447A83B0498EAAEA8C001D2A1086","019cefad-fff4-7796-b0d8-2858f077f925","019cef87-c56d-7b55-9135-c5814367ec25","","773","
                <div class=""stimulus-container"">
                    <img src=""images/causal_sequence/package_causal/package_causal_3.png"" class=""exp-image"">
                    <div class=""question-area"">
                        <p style=""font-size: 20px; font-weight: bold; margin: 0;"">Is there a person in this image?</p>
                    </div>
                </div>","0","main_experiment_trial","3","package_causal","causal_sequence","","","",""
"","","","","","html-keyboard-response","149","514736","0.0-149.0","FF2C447A83B0498EAAEA8C001D2A1086","019cefad-fff4-7796-b0d8-2858f077f925","019cef87-c56d-7b55-9135-c5814367ec25","","null","
                <div class=""stimulus-container"">
                    <img src=""images/causal_sequence/package_causal/package_causal_4.png"" class=""exp-image"">
                    <div class=""question-area""></div> 
                </div>","null","","","","","","","",""
"","","","","","html-button-response","150","515556","0.0-150.0","FF2C447A83B0498EAAEA8C001D2A1086","019cefad-fff4-7796-b0d8-2858f077f925","019cef87-c56d-7b55-9135-c5814367ec25","","818","
                <div class=""stimulus-container"">
                    <img src=""images/causal_sequence/package_causal/package_causal_4.png"" class=""exp-image"">
                    <div class=""question-area"">
                        <p style=""font-size: 20px; font-weight: bold; margin: 0;"">Is there a person in this image?</p>
                    </div>
                </div>","1","main_experiment_trial","4","package_causal","causal_sequence","","","",""
"","","","","","html-keyboard-response","151","520558","0.0-151.0","FF2C447A83B0498EAAEA8C001D2A1086","019cefad-fff4-7796-b0d8-2858f077f925","019cef87-c56d-7b55-9135-c5814367ec25","","null","
                <div class=""stimulus-container"">
                    <img src=""images/causal_sequence/package_causal/package_causal_5.png"" class=""exp-image"">
                    <div class=""question-area""></div> 
                </div>","null","","","","","","","",""
"","","","","","html-button-response","152","521286","0.0-152.0","FF2C447A83B0498EAAEA8C001D2A1086","019cefad-fff4-7796-b0d8-2858f077f925","019cef87-c56d-7b55-9135-c5814367ec25","","727","
                <div class=""stimulus-container"">
                    <img src=""images/causal_sequence/package_causal/package_causal_5.png"" class=""exp-image"">
                    <div class=""question-area"">
                        <p style=""font-size: 20px; font-weight: bold; margin: 0;"">Is there a person in this image?</p>
                    </div>
                </div>","0","main_experiment_trial","5","package_causal","causal_sequence","","","",""
"","","","","","html-keyboard-response","153","526289","0.0-153.0","FF2C447A83B0498EAAEA8C001D2A1086","019cefad-fff4-7796-b0d8-2858f077f925","019cef87-c56d-7b55-9135-c5814367ec25","","null","
                <div class=""stimulus-container"">
                    <img src=""images/causal_sequence/package_causal/package_causal_6.png"" class=""exp-image"">
                    <div class=""question-area""></div> 
                </div>","null","","","","","","","",""
"","","","","","html-button-response","154","527466","0.0-154.0","FF2C447A83B0498EAAEA8C001D2A1086","019cefad-fff4-7796-b0d8-2858f077f925","019cef87-c56d-7b55-9135-c5814367ec25","","1175","
                <div class=""stimulus-container"">
                    <img src=""images/causal_sequence/package_causal/package_causal_6.png"" class=""exp-image"">
                    <div class=""question-area"">
                        <p style=""font-size: 20px; font-weight: bold; margin: 0;"">Is there a person in this image?</p>
                    </div>
                </div>","0","main_experiment_trial","6","package_causal","causal_sequence","","","",""
"","","","","","html-keyboard-response","155","532468","0.0-155.0","FF2C447A83B0498EAAEA8C001D2A1086","019cefad-fff4-7796-b0d8-2858f077f925","019cef87-c56d-7b55-9135-c5814367ec25","","null","
                <div class=""stimulus-container"">
                    <img src=""images/causal_sequence/package_causal/package_causal_7.png"" class=""exp-image"">
                    <div class=""question-area""></div> 
                </div>","null","","","","","","","",""
"","","","","","html-button-response","156","533416","0.0-156.0","FF2C447A83B0498EAAEA8C001D2A1086","019cefad-fff4-7796-b0d8-2858f077f925","019cef87-c56d-7b55-9135-c5814367ec25","","946","
                <div class=""stimulus-container"">
                    <img src=""images/causal_sequence/package_causal/package_causal_7.png"" class=""exp-image"">
                    <div class=""question-area"">
                        <p style=""font-size: 20px; font-weight: bold; margin: 0;"">Is there a person in this image?</p>
                    </div>
                </div>","0","main_experiment_trial","7","package_causal","causal_sequence","","","",""
"","","","","","html-keyboard-response","157","538418","0.0-157.0","FF2C447A83B0498EAAEA8C001D2A1086","019cefad-fff4-7796-b0d8-2858f077f925","019cef87-c56d-7b55-9135-c5814367ec25","","null","
                <div class=""stimulus-container"">
                    <img src=""images/causal_sequence/package_causal/package_causal_8.png"" class=""exp-image"">
                    <div class=""question-area""></div> 
                </div>","null","","","","","","","",""
"","","","","","html-button-response","158","539222","0.0-158.0","FF2C447A83B0498EAAEA8C001D2A1086","019cefad-fff4-7796-b0d8-2858f077f925","019cef87-c56d-7b55-9135-c5814367ec25","","802","
                <div class=""stimulus-container"">
                    <img src=""images/causal_sequence/package_causal/package_causal_8.png"" class=""exp-image"">
                    <div class=""question-area"">
                        <p style=""font-size: 20px; font-weight: bold; margin: 0;"">Is there a person in this image?</p>
                    </div>
                </div>","0","main_experiment_trial","8","package_causal","causal_sequence","","","",""
"","","","","","html-keyboard-response","159","544225","0.0-159.0","FF2C447A83B0498EAAEA8C001D2A1086","019cefad-fff4-7796-b0d8-2858f077f925","019cef87-c56d-7b55-9135-c5814367ec25","","null","
                <div class=""stimulus-container"">
                    <img src=""images/causal_sequence/package_causal/package_causal_9.png"" class=""exp-image"">
                    <div class=""question-area""></div> 
                </div>","null","","","","","","","",""
"","","","","","html-button-response","160","545389","0.0-160.0","FF2C447A83B0498EAAEA8C001D2A1086","019cefad-fff4-7796-b0d8-2858f077f925","019cef87-c56d-7b55-9135-c5814367ec25","","1162","
                <div class=""stimulus-container"">
                    <img src=""images/causal_sequence/package_causal/package_causal_9.png"" class=""exp-image"">
                    <div class=""question-area"">
                        <p style=""font-size: 20px; font-weight: bold; margin: 0;"">Is there a person in this image?</p>
                    </div>
                </div>","0","main_experiment_trial","9","package_causal","causal_sequence","","","",""
"","","","","","html-keyboard-response","161","550392","0.0-161.0","FF2C447A83B0498EAAEA8C001D2A1086","019cefad-fff4-7796-b0d8-2858f077f925","019cef87-c56d-7b55-9135-c5814367ec25","","null","
                <div class=""stimulus-container"">
                    <img src=""images/causal_sequence/package_causal/package_causal_ten.png"" class=""exp-image"">
                    <div class=""question-area""></div> 
                </div>","null","","","","","","","",""
"","","","","","html-button-response","162","551138","0.0-162.0","FF2C447A83B0498EAAEA8C001D2A1086","019cefad-fff4-7796-b0d8-2858f077f925","019cef87-c56d-7b55-9135-c5814367ec25","","744","
                <div class=""stimulus-container"">
                    <img src=""images/causal_sequence/package_causal/package_causal_ten.png"" class=""exp-image"">
                    <div class=""question-area"">
                        <p style=""font-size: 20px; font-weight: bold; margin: 0;"">Is there a person in this image?</p>
                    </div>
                </div>","0","main_experiment_trial","ten","package_causal","causal_sequence","","","",""
"","","","","","html-keyboard-response","163","552141","0.0-163.0","FF2C447A83B0498EAAEA8C001D2A1086","019cefad-fff4-7796-b0d8-2858f077f925","019cef87-c56d-7b55-9135-c5814367ec25","","null","<div style=""background-color: white; width: 100vw; height: 100vh;""></div>","null","","","","","","","",""
"","","","","","html-keyboard-response","164","557143","0.0-164.0","FF2C447A83B0498EAAEA8C001D2A1086","019cefad-fff4-7796-b0d8-2858f077f925","019cef87-c56d-7b55-9135-c5814367ec25","","null","
                <div class=""stimulus-container"">
                    <img src=""images/schematic_sequence/supermarket_scheme/supermarket_scheme_1.png"" class=""exp-image"">
                    <div class=""question-area""></div> 
                </div>","null","","","","","","","",""
"","","","","","html-button-response","165","557817","0.0-165.0","FF2C447A83B0498EAAEA8C001D2A1086","019cefad-fff4-7796-b0d8-2858f077f925","019cef87-c56d-7b55-9135-c5814367ec25","","672","
                <div class=""stimulus-container"">
                    <img src=""images/schematic_sequence/supermarket_scheme/supermarket_scheme_1.png"" class=""exp-image"">
                    <div class=""question-area"">
                        <p style=""font-size: 20px; font-weight: bold; margin: 0;"">Is there a person in this image?</p>
                    </div>
                </div>","1","main_experiment_trial","1","supermarket_scheme","schematic_sequence","","","",""
"","","","","","html-keyboard-response","166","562820","0.0-166.0","FF2C447A83B0498EAAEA8C001D2A1086","019cefad-fff4-7796-b0d8-2858f077f925","019cef87-c56d-7b55-9135-c5814367ec25","","null","
                <div class=""stimulus-container"">
                    <img src=""images/schematic_sequence/supermarket_scheme/supermarket_scheme_2.png"" class=""exp-image"">
                    <div class=""question-area""></div> 
                </div>","null","","","","","","","",""
"","","","","","html-button-response","167","563474","0.0-167.0","FF2C447A83B0498EAAEA8C001D2A1086","019cefad-fff4-7796-b0d8-2858f077f925","019cef87-c56d-7b55-9135-c5814367ec25","","653","
                <div class=""stimulus-container"">
                    <img src=""images/schematic_sequence/supermarket_scheme/supermarket_scheme_2.png"" class=""exp-image"">
                    <div class=""question-area"">
                        <p style=""font-size: 20px; font-weight: bold; margin: 0;"">Is there a person in this image?</p>
                    </div>
                </div>","1","main_experiment_trial","2","supermarket_scheme","schematic_sequence","","","",""
"","","","","","html-keyboard-response","168","568477","0.0-168.0","FF2C447A83B0498EAAEA8C001D2A1086","019cefad-fff4-7796-b0d8-2858f077f925","019cef87-c56d-7b55-9135-c5814367ec25","","null","
                <div class=""stimulus-container"">
                    <img src=""images/schematic_sequence/supermarket_scheme/supermarket_scheme_3.png"" class=""exp-image"">
                    <div class=""question-area""></div> 
                </div>","null","","","","","","","",""
"","","","","","html-button-response","169","569084","0.0-169.0","FF2C447A83B0498EAAEA8C001D2A1086","019cefad-fff4-7796-b0d8-2858f077f925","019cef87-c56d-7b55-9135-c5814367ec25","","605","
                <div class=""stimulus-container"">
                    <img src=""images/schematic_sequence/supermarket_scheme/supermarket_scheme_3.png"" class=""exp-image"">
                    <div class=""question-area"">
                        <p style=""font-size: 20px; font-weight: bold; margin: 0;"">Is there a person in this image?</p>
                    </div>
                </div>","1","main_experiment_trial","3","supermarket_scheme","schematic_sequence","","","",""
"","","","","","html-keyboard-response","170","574087","0.0-170.0","FF2C447A83B0498EAAEA8C001D2A1086","019cefad-fff4-7796-b0d8-2858f077f925","019cef87-c56d-7b55-9135-c5814367ec25","","null","
                <div class=""stimulus-container"">
                    <img src=""images/schematic_sequence/supermarket_scheme/supermarket_scheme_4.png"" class=""exp-image"">
                    <div class=""question-area""></div> 
                </div>","null","","","","","","","",""
"","","","","","html-button-response","171","574760","0.0-171.0","FF2C447A83B0498EAAEA8C001D2A1086","019cefad-fff4-7796-b0d8-2858f077f925","019cef87-c56d-7b55-9135-c5814367ec25","","672","
                <div class=""stimulus-container"">
                    <img src=""images/schematic_sequence/supermarket_scheme/supermarket_scheme_4.png"" class=""exp-image"">
                    <div class=""question-area"">
                        <p style=""font-size: 20px; font-weight: bold; margin: 0;"">Is there a person in this image?</p>
                    </div>
                </div>","0","main_experiment_trial","4","supermarket_scheme","schematic_sequence","","","",""
"","","","","","html-keyboard-response","172","579763","0.0-172.0","FF2C447A83B0498EAAEA8C001D2A1086","019cefad-fff4-7796-b0d8-2858f077f925","019cef87-c56d-7b55-9135-c5814367ec25","","null","
                <div class=""stimulus-container"">
                    <img src=""images/schematic_sequence/supermarket_scheme/supermarket_scheme_5.png"" class=""exp-image"">
                    <div class=""question-area""></div> 
                </div>","null","","","","","","","",""
"","","","","","html-button-response","173","580424","0.0-173.0","FF2C447A83B0498EAAEA8C001D2A1086","019cefad-fff4-7796-b0d8-2858f077f925","019cef87-c56d-7b55-9135-c5814367ec25","","660","
                <div class=""stimulus-container"">
                    <img src=""images/schematic_sequence/supermarket_scheme/supermarket_scheme_5.png"" class=""exp-image"">
                    <div class=""question-area"">
                        <p style=""font-size: 20px; font-weight: bold; margin: 0;"">Is there a person in this image?</p>
                    </div>
                </div>","1","main_experiment_trial","5","supermarket_scheme","schematic_sequence","","","",""
"","","","","","html-keyboard-response","174","585427","0.0-174.0","FF2C447A83B0498EAAEA8C001D2A1086","019cefad-fff4-7796-b0d8-2858f077f925","019cef87-c56d-7b55-9135-c5814367ec25","","null","
                <div class=""stimulus-container"">
                    <img src=""images/schematic_sequence/supermarket_scheme/supermarket_scheme_6.png"" class=""exp-image"">
                    <div class=""question-area""></div> 
                </div>","null","","","","","","","",""
"","","","","","html-button-response","175","586002","0.0-175.0","FF2C447A83B0498EAAEA8C001D2A1086","019cefad-fff4-7796-b0d8-2858f077f925","019cef87-c56d-7b55-9135-c5814367ec25","","573","
                <div class=""stimulus-container"">
                    <img src=""images/schematic_sequence/supermarket_scheme/supermarket_scheme_6.png"" class=""exp-image"">
                    <div class=""question-area"">
                        <p style=""font-size: 20px; font-weight: bold; margin: 0;"">Is there a person in this image?</p>
                    </div>
                </div>","0","main_experiment_trial","6","supermarket_scheme","schematic_sequence","","","",""
"","","","","","html-keyboard-response","176","591005","0.0-176.0","FF2C447A83B0498EAAEA8C001D2A1086","019cefad-fff4-7796-b0d8-2858f077f925","019cef87-c56d-7b55-9135-c5814367ec25","","null","
                <div class=""stimulus-container"">
                    <img src=""images/schematic_sequence/supermarket_scheme/supermarket_scheme_7.png"" class=""exp-image"">
                    <div class=""question-area""></div> 
                </div>","null","","","","","","","",""
"","","","","","html-button-response","177","591667","0.0-177.0","FF2C447A83B0498EAAEA8C001D2A1086","019cefad-fff4-7796-b0d8-2858f077f925","019cef87-c56d-7b55-9135-c5814367ec25","","660","
                <div class=""stimulus-container"">
                    <img src=""images/schematic_sequence/supermarket_scheme/supermarket_scheme_7.png"" class=""exp-image"">
                    <div class=""question-area"">
                        <p style=""font-size: 20px; font-weight: bold; margin: 0;"">Is there a person in this image?</p>
                    </div>
                </div>","0","main_experiment_trial","7","supermarket_scheme","schematic_sequence","","","",""
"","","","","","html-keyboard-response","178","596669","0.0-178.0","FF2C447A83B0498EAAEA8C001D2A1086","019cefad-fff4-7796-b0d8-2858f077f925","019cef87-c56d-7b55-9135-c5814367ec25","","null","
                <div class=""stimulus-container"">
                    <img src=""images/schematic_sequence/supermarket_scheme/supermarket_scheme_8.png"" class=""exp-image"">
                    <div class=""question-area""></div> 
                </div>","null","","","","","","","",""
"","","","","","html-button-response","179","597375","0.0-179.0","FF2C447A83B0498EAAEA8C001D2A1086","019cefad-fff4-7796-b0d8-2858f077f925","019cef87-c56d-7b55-9135-c5814367ec25","","705","
                <div class=""stimulus-container"">
                    <img src=""images/schematic_sequence/supermarket_scheme/supermarket_scheme_8.png"" class=""exp-image"">
                    <div class=""question-area"">
                        <p style=""font-size: 20px; font-weight: bold; margin: 0;"">Is there a person in this image?</p>
                    </div>
                </div>","0","main_experiment_trial","8","supermarket_scheme","schematic_sequence","","","",""
"","","","","","html-keyboard-response","180","602378","0.0-180.0","FF2C447A83B0498EAAEA8C001D2A1086","019cefad-fff4-7796-b0d8-2858f077f925","019cef87-c56d-7b55-9135-c5814367ec25","","null","
                <div class=""stimulus-container"">
                    <img src=""images/schematic_sequence/supermarket_scheme/supermarket_scheme_9.png"" class=""exp-image"">
                    <div class=""question-area""></div> 
                </div>","null","","","","","","","",""
"","","","","","html-button-response","181","603048","0.0-181.0","FF2C447A83B0498EAAEA8C001D2A1086","019cefad-fff4-7796-b0d8-2858f077f925","019cef87-c56d-7b55-9135-c5814367ec25","","669","
                <div class=""stimulus-container"">
                    <img src=""images/schematic_sequence/supermarket_scheme/supermarket_scheme_9.png"" class=""exp-image"">
                    <div class=""question-area"">
                        <p style=""font-size: 20px; font-weight: bold; margin: 0;"">Is there a person in this image?</p>
                    </div>
                </div>","0","main_experiment_trial","9","supermarket_scheme","schematic_sequence","","","",""
"","","","","","html-keyboard-response","182","608050","0.0-182.0","FF2C447A83B0498EAAEA8C001D2A1086","019cefad-fff4-7796-b0d8-2858f077f925","019cef87-c56d-7b55-9135-c5814367ec25","","null","
                <div class=""stimulus-container"">
                    <img src=""images/schematic_sequence/supermarket_scheme/supermarket_scheme_ten.png"" class=""exp-image"">
                    <div class=""question-area""></div> 
                </div>","null","","","","","","","",""
"","","","","","html-button-response","183","608937","0.0-183.0","FF2C447A83B0498EAAEA8C001D2A1086","019cefad-fff4-7796-b0d8-2858f077f925","019cef87-c56d-7b55-9135-c5814367ec25","","886","
                <div class=""stimulus-container"">
                    <img src=""images/schematic_sequence/supermarket_scheme/supermarket_scheme_ten.png"" class=""exp-image"">
                    <div class=""question-area"">
                        <p style=""font-size: 20px; font-weight: bold; margin: 0;"">Is there a person in this image?</p>
                    </div>
                </div>","1","main_experiment_trial","ten","supermarket_scheme","schematic_sequence","","","",""
"","","","","","html-keyboard-response","184","609940","0.0-184.0","FF2C447A83B0498EAAEA8C001D2A1086","019cefad-fff4-7796-b0d8-2858f077f925","019cef87-c56d-7b55-9135-c5814367ec25","","null","<div style=""background-color: white; width: 100vw; height: 100vh;""></div>","null","","","","","","","",""
