"success","timeout","failed_images","failed_audio","failed_video","trial_type","trial_index","time_elapsed","internal_node_id","subject_id","study_id","session_id","view_history","rt","stimulus","response","task","image_index","folder","sequence_type","valuable_image_index","reward_type","chosen_image_index","target_X","correct_choice"
"true","false","[]","[]","[]","preload","0","7129","0.0-0.0","F86A11484A2B4FD1A0C75F211240F6B6","019cf481-a2d7-7233-958e-de81af9c52f7","019cf064-09e4-79bc-8453-421c166e6722","","","","","","","","","","","","",""
"","","","","","instructions","1","91616","0.0-1.0","F86A11484A2B4FD1A0C75F211240F6B6","019cf481-a2d7-7233-958e-de81af9c52f7","019cf064-09e4-79bc-8453-421c166e6722","[{""page_index"":0,""viewing_time"":84482}]","84482","","","","","","","","","","",""
"","","","","","instructions","2","93487","0.0-2.0","F86A11484A2B4FD1A0C75F211240F6B6","019cf481-a2d7-7233-958e-de81af9c52f7","019cf064-09e4-79bc-8453-421c166e6722","[{""page_index"":0,""viewing_time"":1870}]","1870","","","","","","","","","","",""
"true","","","","","fullscreen","3","95574","0.0-3.0","F86A11484A2B4FD1A0C75F211240F6B6","019cf481-a2d7-7233-958e-de81af9c52f7","019cf064-09e4-79bc-8453-421c166e6722","","1085","","","","","","","","","","",""
"","","","","","instructions","4","105521","0.0-4.0","F86A11484A2B4FD1A0C75F211240F6B6","019cf481-a2d7-7233-958e-de81af9c52f7","019cf064-09e4-79bc-8453-421c166e6722","[{""page_index"":0,""viewing_time"":9947}]","9947","","","","","","","","","","",""
"","","","","","instructions","5","125869","0.0-5.0","F86A11484A2B4FD1A0C75F211240F6B6","019cf481-a2d7-7233-958e-de81af9c52f7","019cf064-09e4-79bc-8453-421c166e6722","[{""page_index"":0,""viewing_time"":20347}]","20347","","","","","","","","","","",""
"","","","","","html-keyboard-response","6","129870","0.0-6.0","F86A11484A2B4FD1A0C75F211240F6B6","019cf481-a2d7-7233-958e-de81af9c52f7","019cf064-09e4-79bc-8453-421c166e6722","","null","
                <div class=""stimulus-container"">
                    <img src=""images/instructions/movie_1.png"" class=""exp-image"">
                    <div class=""question-area""></div> 
                </div>","null","","","","","","","","",""
"","","","","","html-button-response","7","131230","0.0-7.0","F86A11484A2B4FD1A0C75F211240F6B6","019cf481-a2d7-7233-958e-de81af9c52f7","019cf064-09e4-79bc-8453-421c166e6722","","1358","
                <div class=""stimulus-container"">
                    <img src=""images/instructions/movie_1.png"" class=""exp-image"">
                    <div class=""question-area"">
                        <p style=""font-size: 20px; font-weight: bold; margin: 0;"">Was there a person in this image?</p>
                    </div>
                </div>","0","example_question","1","","","","","","",""
"","","","","","html-keyboard-response","8","135246","0.0-8.0","F86A11484A2B4FD1A0C75F211240F6B6","019cf481-a2d7-7233-958e-de81af9c52f7","019cf064-09e4-79bc-8453-421c166e6722","","null","
                <div class=""stimulus-container"">
                    <img src=""images/instructions/movie_2.png"" class=""exp-image"">
                    <div class=""question-area""></div> 
                </div>","null","","","","","","","","",""
"","","","","","html-button-response","9","138251","0.0-9.0","F86A11484A2B4FD1A0C75F211240F6B6","019cf481-a2d7-7233-958e-de81af9c52f7","019cf064-09e4-79bc-8453-421c166e6722","","null","
                <div class=""stimulus-container"">
                    <img src=""images/instructions/movie_2.png"" class=""exp-image"">
                    <div class=""question-area"">
                        <p style=""font-size: 20px; font-weight: bold; margin: 0;"">Was there a person in this image?</p>
                    </div>
                </div>","null","example_question","2","","","","","","",""
"","","","","","html-keyboard-response","10","142258","0.0-10.0","F86A11484A2B4FD1A0C75F211240F6B6","019cf481-a2d7-7233-958e-de81af9c52f7","019cf064-09e4-79bc-8453-421c166e6722","","null","
                <div class=""stimulus-container"">
                    <img src=""images/instructions/movie_3.png"" class=""exp-image"">
                    <div class=""question-area""></div> 
                </div>","null","","","","","","","","",""
"","","","","","html-button-response","11","143060","0.0-11.0","F86A11484A2B4FD1A0C75F211240F6B6","019cf481-a2d7-7233-958e-de81af9c52f7","019cf064-09e4-79bc-8453-421c166e6722","","801","
                <div class=""stimulus-container"">
                    <img src=""images/instructions/movie_3.png"" class=""exp-image"">
                    <div class=""question-area"">
                        <p style=""font-size: 20px; font-weight: bold; margin: 0;"">Was there a person in this image?</p>
                    </div>
                </div>","0","example_question","3","","","","","","",""
"","","","","","html-keyboard-response","12","147066","0.0-12.0","F86A11484A2B4FD1A0C75F211240F6B6","019cf481-a2d7-7233-958e-de81af9c52f7","019cf064-09e4-79bc-8453-421c166e6722","","null","
                <div class=""stimulus-container"">
                    <img src=""images/instructions/movie_4.png"" class=""exp-image"">
                    <div class=""question-area""></div> 
                </div>","null","","","","","","","","",""
"","","","","","html-button-response","13","148331","0.0-13.0","F86A11484A2B4FD1A0C75F211240F6B6","019cf481-a2d7-7233-958e-de81af9c52f7","019cf064-09e4-79bc-8453-421c166e6722","","1264","
                <div class=""stimulus-container"">
                    <img src=""images/instructions/movie_4.png"" class=""exp-image"">
                    <div class=""question-area"">
                        <p style=""font-size: 20px; font-weight: bold; margin: 0;"">Was there a person in this image?</p>
                    </div>
                </div>","0","example_question","4","","","","","","",""
"","","","","","instructions","14","149534","0.0-14.0","F86A11484A2B4FD1A0C75F211240F6B6","019cf481-a2d7-7233-958e-de81af9c52f7","019cf064-09e4-79bc-8453-421c166e6722","[{""page_index"":0,""viewing_time"":1202}]","1202","","","","","","","","","","",""
"","","","","","instructions","15","153719","0.0-15.0","F86A11484A2B4FD1A0C75F211240F6B6","019cf481-a2d7-7233-958e-de81af9c52f7","019cf064-09e4-79bc-8453-421c166e6722","[{""page_index"":0,""viewing_time"":4185}]","4185","","","","","","","","","","",""
"","","","","","html-keyboard-response","16","154725","0.0-16.0","F86A11484A2B4FD1A0C75F211240F6B6","019cf481-a2d7-7233-958e-de81af9c52f7","019cf064-09e4-79bc-8453-421c166e6722","","null","<div style=""background-color: white; width: 100vw; height: 100vh;""></div>","null","","","","","","","","",""
"","","","","","html-keyboard-response","17","159727","0.0-17.0","F86A11484A2B4FD1A0C75F211240F6B6","019cf481-a2d7-7233-958e-de81af9c52f7","019cf064-09e4-79bc-8453-421c166e6722","","null","
                <div class=""stimulus-container"">
                    <img src=""images/schematic_sequence/hotel_scheme/hotel_scheme_1.png"" class=""exp-image"">
                    <div class=""question-area""></div> 
                </div>","null","","","","","","","","",""
"","","","","","html-button-response","18","160603","0.0-18.0","F86A11484A2B4FD1A0C75F211240F6B6","019cf481-a2d7-7233-958e-de81af9c52f7","019cf064-09e4-79bc-8453-421c166e6722","","874","
                <div class=""stimulus-container"">
                    <img src=""images/schematic_sequence/hotel_scheme/hotel_scheme_1.png"" class=""exp-image"">
                    <div class=""question-area"">
                        <p style=""font-size: 20px; font-weight: bold; margin: 0;"">Is there a person in this image?</p>
                    </div>
                </div>","1","main_experiment_trial","1","hotel_scheme","schematic_sequence","","","","",""
"","","","","","html-keyboard-response","19","165610","0.0-19.0","F86A11484A2B4FD1A0C75F211240F6B6","019cf481-a2d7-7233-958e-de81af9c52f7","019cf064-09e4-79bc-8453-421c166e6722","","null","
                <div class=""stimulus-container"">
                    <img src=""images/schematic_sequence/hotel_scheme/hotel_scheme_2.png"" class=""exp-image"">
                    <div class=""question-area""></div> 
                </div>","null","","","","","","","","",""
"","","","","","html-button-response","20","166864","0.0-20.0","F86A11484A2B4FD1A0C75F211240F6B6","019cf481-a2d7-7233-958e-de81af9c52f7","019cf064-09e4-79bc-8453-421c166e6722","","1253","
                <div class=""stimulus-container"">
                    <img src=""images/schematic_sequence/hotel_scheme/hotel_scheme_2.png"" class=""exp-image"">
                    <div class=""question-area"">
                        <p style=""font-size: 20px; font-weight: bold; margin: 0;"">Is there a person in this image?</p>
                    </div>
                </div>","0","main_experiment_trial","2","hotel_scheme","schematic_sequence","","","","",""
"","","","","","html-keyboard-response","21","171876","0.0-21.0","F86A11484A2B4FD1A0C75F211240F6B6","019cf481-a2d7-7233-958e-de81af9c52f7","019cf064-09e4-79bc-8453-421c166e6722","","null","
                <div class=""stimulus-container"">
                    <img src=""images/schematic_sequence/hotel_scheme/hotel_scheme_3.png"" class=""exp-image"">
                    <div class=""question-area""></div> 
                </div>","null","","","","","","","","",""
"","","","","","html-button-response","22","172244","0.0-22.0","F86A11484A2B4FD1A0C75F211240F6B6","019cf481-a2d7-7233-958e-de81af9c52f7","019cf064-09e4-79bc-8453-421c166e6722","","367","
                <div class=""stimulus-container"">
                    <img src=""images/schematic_sequence/hotel_scheme/hotel_scheme_3.png"" class=""exp-image"">
                    <div class=""question-area"">
                        <p style=""font-size: 20px; font-weight: bold; margin: 0;"">Is there a person in this image?</p>
                    </div>
                </div>","0","main_experiment_trial","3","hotel_scheme","schematic_sequence","","","","",""
"","","","","","html-keyboard-response","23","177255","0.0-23.0","F86A11484A2B4FD1A0C75F211240F6B6","019cf481-a2d7-7233-958e-de81af9c52f7","019cf064-09e4-79bc-8453-421c166e6722","","null","
                <div class=""stimulus-container"">
                    <img src=""images/schematic_sequence/hotel_scheme/hotel_scheme_4.png"" class=""exp-image"">
                    <div class=""question-area""></div> 
                </div>","null","","","","","","","","",""
"","","","","","html-button-response","24","177682","0.0-24.0","F86A11484A2B4FD1A0C75F211240F6B6","019cf481-a2d7-7233-958e-de81af9c52f7","019cf064-09e4-79bc-8453-421c166e6722","","426","
                <div class=""stimulus-container"">
                    <img src=""images/schematic_sequence/hotel_scheme/hotel_scheme_4.png"" class=""exp-image"">
                    <div class=""question-area"">
                        <p style=""font-size: 20px; font-weight: bold; margin: 0;"">Is there a person in this image?</p>
                    </div>
                </div>","1","main_experiment_trial","4","hotel_scheme","schematic_sequence","","","","",""
"","","","","","html-keyboard-response","25","182690","0.0-25.0","F86A11484A2B4FD1A0C75F211240F6B6","019cf481-a2d7-7233-958e-de81af9c52f7","019cf064-09e4-79bc-8453-421c166e6722","","null","
                <div class=""stimulus-container"">
                    <img src=""images/schematic_sequence/hotel_scheme/hotel_scheme_5.png"" class=""exp-image"">
                    <div class=""question-area""></div> 
                </div>","null","","","","","","","","",""
"","","","","","html-button-response","26","183972","0.0-26.0","F86A11484A2B4FD1A0C75F211240F6B6","019cf481-a2d7-7233-958e-de81af9c52f7","019cf064-09e4-79bc-8453-421c166e6722","","1282","
                <div class=""stimulus-container"">
                    <img src=""images/schematic_sequence/hotel_scheme/hotel_scheme_5.png"" class=""exp-image"">
                    <div class=""question-area"">
                        <p style=""font-size: 20px; font-weight: bold; margin: 0;"">Is there a person in this image?</p>
                    </div>
                </div>","0","main_experiment_trial","5","hotel_scheme","schematic_sequence","","","","",""
"","","","","","html-keyboard-response","27","188974","0.0-27.0","F86A11484A2B4FD1A0C75F211240F6B6","019cf481-a2d7-7233-958e-de81af9c52f7","019cf064-09e4-79bc-8453-421c166e6722","","null","
                <div class=""stimulus-container"">
                    <img src=""images/schematic_sequence/hotel_scheme/hotel_scheme_6.png"" class=""exp-image"">
                    <div class=""question-area""></div> 
                </div>","null","","","","","","","","",""
"","","","","","html-button-response","28","189574","0.0-28.0","F86A11484A2B4FD1A0C75F211240F6B6","019cf481-a2d7-7233-958e-de81af9c52f7","019cf064-09e4-79bc-8453-421c166e6722","","599","
                <div class=""stimulus-container"">
                    <img src=""images/schematic_sequence/hotel_scheme/hotel_scheme_6.png"" class=""exp-image"">
                    <div class=""question-area"">
                        <p style=""font-size: 20px; font-weight: bold; margin: 0;"">Is there a person in this image?</p>
                    </div>
                </div>","0","main_experiment_trial","6","hotel_scheme","schematic_sequence","","","","",""
"","","","","","html-keyboard-response","29","194587","0.0-29.0","F86A11484A2B4FD1A0C75F211240F6B6","019cf481-a2d7-7233-958e-de81af9c52f7","019cf064-09e4-79bc-8453-421c166e6722","","null","
                <div class=""stimulus-container"">
                    <img src=""images/schematic_sequence/hotel_scheme/hotel_scheme_7.png"" class=""exp-image"">
                    <div class=""question-area""></div> 
                </div>","null","","","","","","","","",""
"","","","","","html-button-response","30","194946","0.0-30.0","F86A11484A2B4FD1A0C75F211240F6B6","019cf481-a2d7-7233-958e-de81af9c52f7","019cf064-09e4-79bc-8453-421c166e6722","","358","
                <div class=""stimulus-container"">
                    <img src=""images/schematic_sequence/hotel_scheme/hotel_scheme_7.png"" class=""exp-image"">
                    <div class=""question-area"">
                        <p style=""font-size: 20px; font-weight: bold; margin: 0;"">Is there a person in this image?</p>
                    </div>
                </div>","0","main_experiment_trial","7","hotel_scheme","schematic_sequence","","","","",""
"","","","","","html-keyboard-response","31","199957","0.0-31.0","F86A11484A2B4FD1A0C75F211240F6B6","019cf481-a2d7-7233-958e-de81af9c52f7","019cf064-09e4-79bc-8453-421c166e6722","","null","
                <div class=""stimulus-container"">
                    <img src=""images/schematic_sequence/hotel_scheme/hotel_scheme_8.png"" class=""exp-image"">
                    <div class=""question-area""></div> 
                </div>","null","","","","","","","","",""
"","","","","","html-button-response","32","200401","0.0-32.0","F86A11484A2B4FD1A0C75F211240F6B6","019cf481-a2d7-7233-958e-de81af9c52f7","019cf064-09e4-79bc-8453-421c166e6722","","444","
                <div class=""stimulus-container"">
                    <img src=""images/schematic_sequence/hotel_scheme/hotel_scheme_8.png"" class=""exp-image"">
                    <div class=""question-area"">
                        <p style=""font-size: 20px; font-weight: bold; margin: 0;"">Is there a person in this image?</p>
                    </div>
                </div>","0","main_experiment_trial","8","hotel_scheme","schematic_sequence","","","","",""
"","","","","","html-keyboard-response","33","205405","0.0-33.0","F86A11484A2B4FD1A0C75F211240F6B6","019cf481-a2d7-7233-958e-de81af9c52f7","019cf064-09e4-79bc-8453-421c166e6722","","null","
                <div class=""stimulus-container"">
                    <img src=""images/schematic_sequence/hotel_scheme/hotel_scheme_9.png"" class=""exp-image"">
                    <div class=""question-area""></div> 
                </div>","null","","","","","","","","",""
"","","","","","html-button-response","34","205876","0.0-34.0","F86A11484A2B4FD1A0C75F211240F6B6","019cf481-a2d7-7233-958e-de81af9c52f7","019cf064-09e4-79bc-8453-421c166e6722","","470","
                <div class=""stimulus-container"">
                    <img src=""images/schematic_sequence/hotel_scheme/hotel_scheme_9.png"" class=""exp-image"">
                    <div class=""question-area"">
                        <p style=""font-size: 20px; font-weight: bold; margin: 0;"">Is there a person in this image?</p>
                    </div>
                </div>","0","main_experiment_trial","9","hotel_scheme","schematic_sequence","","","","",""
"","","","","","html-keyboard-response","35","210881","0.0-35.0","F86A11484A2B4FD1A0C75F211240F6B6","019cf481-a2d7-7233-958e-de81af9c52f7","019cf064-09e4-79bc-8453-421c166e6722","","null","
                <div class=""stimulus-container"">
                    <img src=""images/schematic_sequence/hotel_scheme/hotel_scheme_ten.png"" class=""exp-image"">
                    <div class=""question-area""></div> 
                </div>","null","","","","","","","","",""
"","","","","","html-button-response","36","211339","0.0-36.0","F86A11484A2B4FD1A0C75F211240F6B6","019cf481-a2d7-7233-958e-de81af9c52f7","019cf064-09e4-79bc-8453-421c166e6722","","458","
                <div class=""stimulus-container"">
                    <img src=""images/schematic_sequence/hotel_scheme/hotel_scheme_ten.png"" class=""exp-image"">
                    <div class=""question-area"">
                        <p style=""font-size: 20px; font-weight: bold; margin: 0;"">Is there a person in this image?</p>
                    </div>
                </div>","0","main_experiment_trial","ten","hotel_scheme","schematic_sequence","","","","",""
"","","","","","html-keyboard-response","37","212342","0.0-37.0","F86A11484A2B4FD1A0C75F211240F6B6","019cf481-a2d7-7233-958e-de81af9c52f7","019cf064-09e4-79bc-8453-421c166e6722","","null","<div style=""background-color: white; width: 100vw; height: 100vh;""></div>","null","","","","","","","","",""
"","","","","","html-keyboard-response","38","217358","0.0-38.0","F86A11484A2B4FD1A0C75F211240F6B6","019cf481-a2d7-7233-958e-de81af9c52f7","019cf064-09e4-79bc-8453-421c166e6722","","null","
                <div class=""stimulus-container"">
                    <img src=""images/schematic_sequence/interview_scheme/interview_scheme_1.png"" class=""exp-image"">
                    <div class=""question-area""></div> 
                </div>","null","","","","","","","","",""
"","","","","","html-button-response","39","218152","0.0-39.0","F86A11484A2B4FD1A0C75F211240F6B6","019cf481-a2d7-7233-958e-de81af9c52f7","019cf064-09e4-79bc-8453-421c166e6722","","794","
                <div class=""stimulus-container"">
                    <img src=""images/schematic_sequence/interview_scheme/interview_scheme_1.png"" class=""exp-image"">
                    <div class=""question-area"">
                        <p style=""font-size: 20px; font-weight: bold; margin: 0;"">Is there a person in this image?</p>
                    </div>
                </div>","1","main_experiment_trial","1","interview_scheme","schematic_sequence","","","","",""
"","","","","","html-keyboard-response","40","223159","0.0-40.0","F86A11484A2B4FD1A0C75F211240F6B6","019cf481-a2d7-7233-958e-de81af9c52f7","019cf064-09e4-79bc-8453-421c166e6722","","null","
                <div class=""stimulus-container"">
                    <img src=""images/schematic_sequence/interview_scheme/interview_scheme_2.png"" class=""exp-image"">
                    <div class=""question-area""></div> 
                </div>","null","","","","","","","","",""
"","","","","","html-button-response","41","223812","0.0-41.0","F86A11484A2B4FD1A0C75F211240F6B6","019cf481-a2d7-7233-958e-de81af9c52f7","019cf064-09e4-79bc-8453-421c166e6722","","653","
                <div class=""stimulus-container"">
                    <img src=""images/schematic_sequence/interview_scheme/interview_scheme_2.png"" class=""exp-image"">
                    <div class=""question-area"">
                        <p style=""font-size: 20px; font-weight: bold; margin: 0;"">Is there a person in this image?</p>
                    </div>
                </div>","1","main_experiment_trial","2","interview_scheme","schematic_sequence","","","","",""
"","","","","","html-keyboard-response","42","228824","0.0-42.0","F86A11484A2B4FD1A0C75F211240F6B6","019cf481-a2d7-7233-958e-de81af9c52f7","019cf064-09e4-79bc-8453-421c166e6722","","null","
                <div class=""stimulus-container"">
                    <img src=""images/schematic_sequence/interview_scheme/interview_scheme_3.png"" class=""exp-image"">
                    <div class=""question-area""></div> 
                </div>","null","","","","","","","","",""
"","","","","","html-button-response","43","229403","0.0-43.0","F86A11484A2B4FD1A0C75F211240F6B6","019cf481-a2d7-7233-958e-de81af9c52f7","019cf064-09e4-79bc-8453-421c166e6722","","579","
                <div class=""stimulus-container"">
                    <img src=""images/schematic_sequence/interview_scheme/interview_scheme_3.png"" class=""exp-image"">
                    <div class=""question-area"">
                        <p style=""font-size: 20px; font-weight: bold; margin: 0;"">Is there a person in this image?</p>
                    </div>
                </div>","1","main_experiment_trial","3","interview_scheme","schematic_sequence","","","","",""
"","","","","","html-keyboard-response","44","234413","0.0-44.0","F86A11484A2B4FD1A0C75F211240F6B6","019cf481-a2d7-7233-958e-de81af9c52f7","019cf064-09e4-79bc-8453-421c166e6722","","null","
                <div class=""stimulus-container"">
                    <img src=""images/schematic_sequence/interview_scheme/interview_scheme_4.png"" class=""exp-image"">
                    <div class=""question-area""></div> 
                </div>","null","","","","","","","","",""
"","","","","","html-button-response","45","234799","0.0-45.0","F86A11484A2B4FD1A0C75F211240F6B6","019cf481-a2d7-7233-958e-de81af9c52f7","019cf064-09e4-79bc-8453-421c166e6722","","385","
                <div class=""stimulus-container"">
                    <img src=""images/schematic_sequence/interview_scheme/interview_scheme_4.png"" class=""exp-image"">
                    <div class=""question-area"">
                        <p style=""font-size: 20px; font-weight: bold; margin: 0;"">Is there a person in this image?</p>
                    </div>
                </div>","1","main_experiment_trial","4","interview_scheme","schematic_sequence","","","","",""
"","","","","","html-keyboard-response","46","239807","0.0-46.0","F86A11484A2B4FD1A0C75F211240F6B6","019cf481-a2d7-7233-958e-de81af9c52f7","019cf064-09e4-79bc-8453-421c166e6722","","null","
                <div class=""stimulus-container"">
                    <img src=""images/schematic_sequence/interview_scheme/interview_scheme_5.png"" class=""exp-image"">
                    <div class=""question-area""></div> 
                </div>","null","","","","","","","","",""
"","","","","","html-button-response","47","240231","0.0-47.0","F86A11484A2B4FD1A0C75F211240F6B6","019cf481-a2d7-7233-958e-de81af9c52f7","019cf064-09e4-79bc-8453-421c166e6722","","424","
                <div class=""stimulus-container"">
                    <img src=""images/schematic_sequence/interview_scheme/interview_scheme_5.png"" class=""exp-image"">
                    <div class=""question-area"">
                        <p style=""font-size: 20px; font-weight: bold; margin: 0;"">Is there a person in this image?</p>
                    </div>
                </div>","0","main_experiment_trial","5","interview_scheme","schematic_sequence","","","","",""
"","","","","","html-keyboard-response","48","245239","0.0-48.0","F86A11484A2B4FD1A0C75F211240F6B6","019cf481-a2d7-7233-958e-de81af9c52f7","019cf064-09e4-79bc-8453-421c166e6722","","null","
                <div class=""stimulus-container"">
                    <img src=""images/schematic_sequence/interview_scheme/interview_scheme_6.png"" class=""exp-image"">
                    <div class=""question-area""></div> 
                </div>","null","","","","","","","","",""
"","","","","","html-button-response","49","245651","0.0-49.0","F86A11484A2B4FD1A0C75F211240F6B6","019cf481-a2d7-7233-958e-de81af9c52f7","019cf064-09e4-79bc-8453-421c166e6722","","411","
                <div class=""stimulus-container"">
                    <img src=""images/schematic_sequence/interview_scheme/interview_scheme_6.png"" class=""exp-image"">
                    <div class=""question-area"">
                        <p style=""font-size: 20px; font-weight: bold; margin: 0;"">Is there a person in this image?</p>
                    </div>
                </div>","0","main_experiment_trial","6","interview_scheme","schematic_sequence","","","","",""
"","","","","","html-keyboard-response","50","250662","0.0-50.0","F86A11484A2B4FD1A0C75F211240F6B6","019cf481-a2d7-7233-958e-de81af9c52f7","019cf064-09e4-79bc-8453-421c166e6722","","null","
                <div class=""stimulus-container"">
                    <img src=""images/schematic_sequence/interview_scheme/interview_scheme_7.png"" class=""exp-image"">
                    <div class=""question-area""></div> 
                </div>","null","","","","","","","","",""
"","","","","","html-button-response","51","251004","0.0-51.0","F86A11484A2B4FD1A0C75F211240F6B6","019cf481-a2d7-7233-958e-de81af9c52f7","019cf064-09e4-79bc-8453-421c166e6722","","341","
                <div class=""stimulus-container"">
                    <img src=""images/schematic_sequence/interview_scheme/interview_scheme_7.png"" class=""exp-image"">
                    <div class=""question-area"">
                        <p style=""font-size: 20px; font-weight: bold; margin: 0;"">Is there a person in this image?</p>
                    </div>
                </div>","0","main_experiment_trial","7","interview_scheme","schematic_sequence","","","","",""
"","","","","","html-keyboard-response","52","256007","0.0-52.0","F86A11484A2B4FD1A0C75F211240F6B6","019cf481-a2d7-7233-958e-de81af9c52f7","019cf064-09e4-79bc-8453-421c166e6722","","null","
                <div class=""stimulus-container"">
                    <img src=""images/schematic_sequence/interview_scheme/interview_scheme_8.png"" class=""exp-image"">
                    <div class=""question-area""></div> 
                </div>","null","","","","","","","","",""
"","","","","","html-button-response","53","256380","0.0-53.0","F86A11484A2B4FD1A0C75F211240F6B6","019cf481-a2d7-7233-958e-de81af9c52f7","019cf064-09e4-79bc-8453-421c166e6722","","372","
                <div class=""stimulus-container"">
                    <img src=""images/schematic_sequence/interview_scheme/interview_scheme_8.png"" class=""exp-image"">
                    <div class=""question-area"">
                        <p style=""font-size: 20px; font-weight: bold; margin: 0;"">Is there a person in this image?</p>
                    </div>
                </div>","0","main_experiment_trial","8","interview_scheme","schematic_sequence","","","","",""
"","","","","","html-keyboard-response","54","261385","0.0-54.0","F86A11484A2B4FD1A0C75F211240F6B6","019cf481-a2d7-7233-958e-de81af9c52f7","019cf064-09e4-79bc-8453-421c166e6722","","null","
                <div class=""stimulus-container"">
                    <img src=""images/schematic_sequence/interview_scheme/interview_scheme_9.png"" class=""exp-image"">
                    <div class=""question-area""></div> 
                </div>","null","","","","","","","","",""
"","","","","","html-button-response","55","262017","0.0-55.0","F86A11484A2B4FD1A0C75F211240F6B6","019cf481-a2d7-7233-958e-de81af9c52f7","019cf064-09e4-79bc-8453-421c166e6722","","631","
                <div class=""stimulus-container"">
                    <img src=""images/schematic_sequence/interview_scheme/interview_scheme_9.png"" class=""exp-image"">
                    <div class=""question-area"">
                        <p style=""font-size: 20px; font-weight: bold; margin: 0;"">Is there a person in this image?</p>
                    </div>
                </div>","0","main_experiment_trial","9","interview_scheme","schematic_sequence","","","","",""
"","","","","","html-keyboard-response","56","267023","0.0-56.0","F86A11484A2B4FD1A0C75F211240F6B6","019cf481-a2d7-7233-958e-de81af9c52f7","019cf064-09e4-79bc-8453-421c166e6722","","null","
                <div class=""stimulus-container"">
                    <img src=""images/schematic_sequence/interview_scheme/interview_scheme_ten.png"" class=""exp-image"">
                    <div class=""question-area""></div> 
                </div>","null","","","","","","","","",""
"","","","","","html-button-response","57","267717","0.0-57.0","F86A11484A2B4FD1A0C75F211240F6B6","019cf481-a2d7-7233-958e-de81af9c52f7","019cf064-09e4-79bc-8453-421c166e6722","","693","
                <div class=""stimulus-container"">
                    <img src=""images/schematic_sequence/interview_scheme/interview_scheme_ten.png"" class=""exp-image"">
                    <div class=""question-area"">
                        <p style=""font-size: 20px; font-weight: bold; margin: 0;"">Is there a person in this image?</p>
                    </div>
                </div>","0","main_experiment_trial","ten","interview_scheme","schematic_sequence","","","","",""
"","","","","","html-keyboard-response","58","268723","0.0-58.0","F86A11484A2B4FD1A0C75F211240F6B6","019cf481-a2d7-7233-958e-de81af9c52f7","019cf064-09e4-79bc-8453-421c166e6722","","null","<div style=""background-color: white; width: 100vw; height: 100vh;""></div>","null","","","","","","","","",""
"","","","","","html-keyboard-response","59","273740","0.0-59.0","F86A11484A2B4FD1A0C75F211240F6B6","019cf481-a2d7-7233-958e-de81af9c52f7","019cf064-09e4-79bc-8453-421c166e6722","","null","
                <div class=""stimulus-container"">
                    <img src=""images/schematic_sequence/flight_scheme/flight_scheme_1.png"" class=""exp-image"">
                    <div class=""question-area""></div> 
                </div>","null","","","","","","","","",""
"","","","","","html-button-response","60","274302","0.0-60.0","F86A11484A2B4FD1A0C75F211240F6B6","019cf481-a2d7-7233-958e-de81af9c52f7","019cf064-09e4-79bc-8453-421c166e6722","","561","
                <div class=""stimulus-container"">
                    <img src=""images/schematic_sequence/flight_scheme/flight_scheme_1.png"" class=""exp-image"">
                    <div class=""question-area"">
                        <p style=""font-size: 20px; font-weight: bold; margin: 0;"">Is there a person in this image?</p>
                    </div>
                </div>","1","main_experiment_trial","1","flight_scheme","schematic_sequence","","","","",""
"","","","","","html-keyboard-response","61","279306","0.0-61.0","F86A11484A2B4FD1A0C75F211240F6B6","019cf481-a2d7-7233-958e-de81af9c52f7","019cf064-09e4-79bc-8453-421c166e6722","","null","
                <div class=""stimulus-container"">
                    <img src=""images/schematic_sequence/flight_scheme/flight_scheme_2.png"" class=""exp-image"">
                    <div class=""question-area""></div> 
                </div>","null","","","","","","","","",""
"","","","","","html-button-response","62","279838","0.0-62.0","F86A11484A2B4FD1A0C75F211240F6B6","019cf481-a2d7-7233-958e-de81af9c52f7","019cf064-09e4-79bc-8453-421c166e6722","","531","
                <div class=""stimulus-container"">
                    <img src=""images/schematic_sequence/flight_scheme/flight_scheme_2.png"" class=""exp-image"">
                    <div class=""question-area"">
                        <p style=""font-size: 20px; font-weight: bold; margin: 0;"">Is there a person in this image?</p>
                    </div>
                </div>","1","main_experiment_trial","2","flight_scheme","schematic_sequence","","","","",""
"","","","","","html-keyboard-response","63","284850","0.0-63.0","F86A11484A2B4FD1A0C75F211240F6B6","019cf481-a2d7-7233-958e-de81af9c52f7","019cf064-09e4-79bc-8453-421c166e6722","","null","
                <div class=""stimulus-container"">
                    <img src=""images/schematic_sequence/flight_scheme/flight_scheme_3.png"" class=""exp-image"">
                    <div class=""question-area""></div> 
                </div>","null","","","","","","","","",""
"","","","","","html-button-response","64","285289","0.0-64.0","F86A11484A2B4FD1A0C75F211240F6B6","019cf481-a2d7-7233-958e-de81af9c52f7","019cf064-09e4-79bc-8453-421c166e6722","","438","
                <div class=""stimulus-container"">
                    <img src=""images/schematic_sequence/flight_scheme/flight_scheme_3.png"" class=""exp-image"">
                    <div class=""question-area"">
                        <p style=""font-size: 20px; font-weight: bold; margin: 0;"">Is there a person in this image?</p>
                    </div>
                </div>","0","main_experiment_trial","3","flight_scheme","schematic_sequence","","","","",""
"","","","","","html-keyboard-response","65","290303","0.0-65.0","F86A11484A2B4FD1A0C75F211240F6B6","019cf481-a2d7-7233-958e-de81af9c52f7","019cf064-09e4-79bc-8453-421c166e6722","","null","
                <div class=""stimulus-container"">
                    <img src=""images/schematic_sequence/flight_scheme/flight_scheme_4.png"" class=""exp-image"">
                    <div class=""question-area""></div> 
                </div>","null","","","","","","","","",""
"","","","","","html-button-response","66","290774","0.0-66.0","F86A11484A2B4FD1A0C75F211240F6B6","019cf481-a2d7-7233-958e-de81af9c52f7","019cf064-09e4-79bc-8453-421c166e6722","","470","
                <div class=""stimulus-container"">
                    <img src=""images/schematic_sequence/flight_scheme/flight_scheme_4.png"" class=""exp-image"">
                    <div class=""question-area"">
                        <p style=""font-size: 20px; font-weight: bold; margin: 0;"">Is there a person in this image?</p>
                    </div>
                </div>","0","main_experiment_trial","4","flight_scheme","schematic_sequence","","","","",""
"","","","","","html-keyboard-response","67","295787","0.0-67.0","F86A11484A2B4FD1A0C75F211240F6B6","019cf481-a2d7-7233-958e-de81af9c52f7","019cf064-09e4-79bc-8453-421c166e6722","","null","
                <div class=""stimulus-container"">
                    <img src=""images/schematic_sequence/flight_scheme/flight_scheme_5.png"" class=""exp-image"">
                    <div class=""question-area""></div> 
                </div>","null","","","","","","","","",""
"","","","","","html-button-response","68","296639","0.0-68.0","F86A11484A2B4FD1A0C75F211240F6B6","019cf481-a2d7-7233-958e-de81af9c52f7","019cf064-09e4-79bc-8453-421c166e6722","","851","
                <div class=""stimulus-container"">
                    <img src=""images/schematic_sequence/flight_scheme/flight_scheme_5.png"" class=""exp-image"">
                    <div class=""question-area"">
                        <p style=""font-size: 20px; font-weight: bold; margin: 0;"">Is there a person in this image?</p>
                    </div>
                </div>","0","main_experiment_trial","5","flight_scheme","schematic_sequence","","","","",""
"","","","","","html-keyboard-response","69","301648","0.0-69.0","F86A11484A2B4FD1A0C75F211240F6B6","019cf481-a2d7-7233-958e-de81af9c52f7","019cf064-09e4-79bc-8453-421c166e6722","","null","
                <div class=""stimulus-container"">
                    <img src=""images/schematic_sequence/flight_scheme/flight_scheme_6.png"" class=""exp-image"">
                    <div class=""question-area""></div> 
                </div>","null","","","","","","","","",""
"","","","","","html-button-response","70","302722","0.0-70.0","F86A11484A2B4FD1A0C75F211240F6B6","019cf481-a2d7-7233-958e-de81af9c52f7","019cf064-09e4-79bc-8453-421c166e6722","","1073","
                <div class=""stimulus-container"">
                    <img src=""images/schematic_sequence/flight_scheme/flight_scheme_6.png"" class=""exp-image"">
                    <div class=""question-area"">
                        <p style=""font-size: 20px; font-weight: bold; margin: 0;"">Is there a person in this image?</p>
                    </div>
                </div>","1","main_experiment_trial","6","flight_scheme","schematic_sequence","","","","",""
"","","","","","html-keyboard-response","71","307733","0.0-71.0","F86A11484A2B4FD1A0C75F211240F6B6","019cf481-a2d7-7233-958e-de81af9c52f7","019cf064-09e4-79bc-8453-421c166e6722","","null","
                <div class=""stimulus-container"">
                    <img src=""images/schematic_sequence/flight_scheme/flight_scheme_7.png"" class=""exp-image"">
                    <div class=""question-area""></div> 
                </div>","null","","","","","","","","",""
"","","","","","html-button-response","72","309716","0.0-72.0","F86A11484A2B4FD1A0C75F211240F6B6","019cf481-a2d7-7233-958e-de81af9c52f7","019cf064-09e4-79bc-8453-421c166e6722","","1982","
                <div class=""stimulus-container"">
                    <img src=""images/schematic_sequence/flight_scheme/flight_scheme_7.png"" class=""exp-image"">
                    <div class=""question-area"">
                        <p style=""font-size: 20px; font-weight: bold; margin: 0;"">Is there a person in this image?</p>
                    </div>
                </div>","1","main_experiment_trial","7","flight_scheme","schematic_sequence","","","","",""
"","","","","","html-keyboard-response","73","314717","0.0-73.0","F86A11484A2B4FD1A0C75F211240F6B6","019cf481-a2d7-7233-958e-de81af9c52f7","019cf064-09e4-79bc-8453-421c166e6722","","null","
                <div class=""stimulus-container"">
                    <img src=""images/schematic_sequence/flight_scheme/flight_scheme_8.png"" class=""exp-image"">
                    <div class=""question-area""></div> 
                </div>","null","","","","","","","","",""
"","","","","","html-button-response","74","315510","0.0-74.0","F86A11484A2B4FD1A0C75F211240F6B6","019cf481-a2d7-7233-958e-de81af9c52f7","019cf064-09e4-79bc-8453-421c166e6722","","791","
                <div class=""stimulus-container"">
                    <img src=""images/schematic_sequence/flight_scheme/flight_scheme_8.png"" class=""exp-image"">
                    <div class=""question-area"">
                        <p style=""font-size: 20px; font-weight: bold; margin: 0;"">Is there a person in this image?</p>
                    </div>
                </div>","1","main_experiment_trial","8","flight_scheme","schematic_sequence","","","","",""
"","","","","","html-keyboard-response","75","320517","0.0-75.0","F86A11484A2B4FD1A0C75F211240F6B6","019cf481-a2d7-7233-958e-de81af9c52f7","019cf064-09e4-79bc-8453-421c166e6722","","null","
                <div class=""stimulus-container"">
                    <img src=""images/schematic_sequence/flight_scheme/flight_scheme_9.png"" class=""exp-image"">
                    <div class=""question-area""></div> 
                </div>","null","","","","","","","","",""
"","","","","","html-button-response","76","321202","0.0-76.0","F86A11484A2B4FD1A0C75F211240F6B6","019cf481-a2d7-7233-958e-de81af9c52f7","019cf064-09e4-79bc-8453-421c166e6722","","684","
                <div class=""stimulus-container"">
                    <img src=""images/schematic_sequence/flight_scheme/flight_scheme_9.png"" class=""exp-image"">
                    <div class=""question-area"">
                        <p style=""font-size: 20px; font-weight: bold; margin: 0;"">Is there a person in this image?</p>
                    </div>
                </div>","0","main_experiment_trial","9","flight_scheme","schematic_sequence","","","","",""
"","","","","","html-keyboard-response","77","326216","0.0-77.0","F86A11484A2B4FD1A0C75F211240F6B6","019cf481-a2d7-7233-958e-de81af9c52f7","019cf064-09e4-79bc-8453-421c166e6722","","null","
                <div class=""stimulus-container"">
                    <img src=""images/schematic_sequence/flight_scheme/flight_scheme_ten.png"" class=""exp-image"">
                    <div class=""question-area""></div> 
                </div>","null","","","","","","","","",""
"","","","","","html-button-response","78","327624","0.0-78.0","F86A11484A2B4FD1A0C75F211240F6B6","019cf481-a2d7-7233-958e-de81af9c52f7","019cf064-09e4-79bc-8453-421c166e6722","","1407","
                <div class=""stimulus-container"">
                    <img src=""images/schematic_sequence/flight_scheme/flight_scheme_ten.png"" class=""exp-image"">
                    <div class=""question-area"">
                        <p style=""font-size: 20px; font-weight: bold; margin: 0;"">Is there a person in this image?</p>
                    </div>
                </div>","0","main_experiment_trial","ten","flight_scheme","schematic_sequence","","","","",""
"","","","","","html-keyboard-response","79","328629","0.0-79.0","F86A11484A2B4FD1A0C75F211240F6B6","019cf481-a2d7-7233-958e-de81af9c52f7","019cf064-09e4-79bc-8453-421c166e6722","","null","<div style=""background-color: white; width: 100vw; height: 100vh;""></div>","null","","","","","","","","",""
"","","","","","html-keyboard-response","80","333630","0.0-80.0","F86A11484A2B4FD1A0C75F211240F6B6","019cf481-a2d7-7233-958e-de81af9c52f7","019cf064-09e4-79bc-8453-421c166e6722","","null","
                <div class=""stimulus-container"">
                    <img src=""images/causal_sequence/the_performance_causal/the_performance_causal_1.png"" class=""exp-image"">
                    <div class=""question-area""></div> 
                </div>","null","","","","","","","","",""
"","","","","","html-button-response","81","334517","0.0-81.0","F86A11484A2B4FD1A0C75F211240F6B6","019cf481-a2d7-7233-958e-de81af9c52f7","019cf064-09e4-79bc-8453-421c166e6722","","886","
                <div class=""stimulus-container"">
                    <img src=""images/causal_sequence/the_performance_causal/the_performance_causal_1.png"" class=""exp-image"">
                    <div class=""question-area"">
                        <p style=""font-size: 20px; font-weight: bold; margin: 0;"">Is there a person in this image?</p>
                    </div>
                </div>","0","main_experiment_trial","1","the_performance_causal","causal_sequence","","","","",""
"","","","","","html-keyboard-response","82","339533","0.0-82.0","F86A11484A2B4FD1A0C75F211240F6B6","019cf481-a2d7-7233-958e-de81af9c52f7","019cf064-09e4-79bc-8453-421c166e6722","","null","
                <div class=""stimulus-container"">
                    <img src=""images/causal_sequence/the_performance_causal/the_performance_causal_2.png"" class=""exp-image"">
                    <div class=""question-area""></div> 
                </div>","null","","","","","","","","",""
"","","","","","html-button-response","83","341674","0.0-83.0","F86A11484A2B4FD1A0C75F211240F6B6","019cf481-a2d7-7233-958e-de81af9c52f7","019cf064-09e4-79bc-8453-421c166e6722","","2140","
                <div class=""stimulus-container"">
                    <img src=""images/causal_sequence/the_performance_causal/the_performance_causal_2.png"" class=""exp-image"">
                    <div class=""question-area"">
                        <p style=""font-size: 20px; font-weight: bold; margin: 0;"">Is there a person in this image?</p>
                    </div>
                </div>","0","main_experiment_trial","2","the_performance_causal","causal_sequence","","","","",""
"","","","","","html-keyboard-response","84","346684","0.0-84.0","F86A11484A2B4FD1A0C75F211240F6B6","019cf481-a2d7-7233-958e-de81af9c52f7","019cf064-09e4-79bc-8453-421c166e6722","","null","
                <div class=""stimulus-container"">
                    <img src=""images/causal_sequence/the_performance_causal/the_performance_causal_3.png"" class=""exp-image"">
                    <div class=""question-area""></div> 
                </div>","null","","","","","","","","",""
"","","","","","html-button-response","85","348397","0.0-85.0","F86A11484A2B4FD1A0C75F211240F6B6","019cf481-a2d7-7233-958e-de81af9c52f7","019cf064-09e4-79bc-8453-421c166e6722","","1711","
                <div class=""stimulus-container"">
                    <img src=""images/causal_sequence/the_performance_causal/the_performance_causal_3.png"" class=""exp-image"">
                    <div class=""question-area"">
                        <p style=""font-size: 20px; font-weight: bold; margin: 0;"">Is there a person in this image?</p>
                    </div>
                </div>","0","main_experiment_trial","3","the_performance_causal","causal_sequence","","","","",""
"","","","","","html-keyboard-response","86","353398","0.0-86.0","F86A11484A2B4FD1A0C75F211240F6B6","019cf481-a2d7-7233-958e-de81af9c52f7","019cf064-09e4-79bc-8453-421c166e6722","","null","
                <div class=""stimulus-container"">
                    <img src=""images/causal_sequence/the_performance_causal/the_performance_causal_4.png"" class=""exp-image"">
                    <div class=""question-area""></div> 
                </div>","null","","","","","","","","",""
"","","","","","html-button-response","87","354208","0.0-87.0","F86A11484A2B4FD1A0C75F211240F6B6","019cf481-a2d7-7233-958e-de81af9c52f7","019cf064-09e4-79bc-8453-421c166e6722","","809","
                <div class=""stimulus-container"">
                    <img src=""images/causal_sequence/the_performance_causal/the_performance_causal_4.png"" class=""exp-image"">
                    <div class=""question-area"">
                        <p style=""font-size: 20px; font-weight: bold; margin: 0;"">Is there a person in this image?</p>
                    </div>
                </div>","0","main_experiment_trial","4","the_performance_causal","causal_sequence","","","","",""
"","","","","","html-keyboard-response","88","359222","0.0-88.0","F86A11484A2B4FD1A0C75F211240F6B6","019cf481-a2d7-7233-958e-de81af9c52f7","019cf064-09e4-79bc-8453-421c166e6722","","null","
                <div class=""stimulus-container"">
                    <img src=""images/causal_sequence/the_performance_causal/the_performance_causal_5.png"" class=""exp-image"">
                    <div class=""question-area""></div> 
                </div>","null","","","","","","","","",""
"","","","","","html-button-response","89","359882","0.0-89.0","F86A11484A2B4FD1A0C75F211240F6B6","019cf481-a2d7-7233-958e-de81af9c52f7","019cf064-09e4-79bc-8453-421c166e6722","","659","
                <div class=""stimulus-container"">
                    <img src=""images/causal_sequence/the_performance_causal/the_performance_causal_5.png"" class=""exp-image"">
                    <div class=""question-area"">
                        <p style=""font-size: 20px; font-weight: bold; margin: 0;"">Is there a person in this image?</p>
                    </div>
                </div>","0","main_experiment_trial","5","the_performance_causal","causal_sequence","","","","",""
"","","","","","html-keyboard-response","90","364891","0.0-90.0","F86A11484A2B4FD1A0C75F211240F6B6","019cf481-a2d7-7233-958e-de81af9c52f7","019cf064-09e4-79bc-8453-421c166e6722","","null","
                <div class=""stimulus-container"">
                    <img src=""images/causal_sequence/the_performance_causal/the_performance_causal_6.png"" class=""exp-image"">
                    <div class=""question-area""></div> 
                </div>","null","","","","","","","","",""
"","","","","","html-button-response","91","366395","0.0-91.0","F86A11484A2B4FD1A0C75F211240F6B6","019cf481-a2d7-7233-958e-de81af9c52f7","019cf064-09e4-79bc-8453-421c166e6722","","1504","
                <div class=""stimulus-container"">
                    <img src=""images/causal_sequence/the_performance_causal/the_performance_causal_6.png"" class=""exp-image"">
                    <div class=""question-area"">
                        <p style=""font-size: 20px; font-weight: bold; margin: 0;"">Is there a person in this image?</p>
                    </div>
                </div>","0","main_experiment_trial","6","the_performance_causal","causal_sequence","","","","",""
"","","","","","html-keyboard-response","92","371404","0.0-92.0","F86A11484A2B4FD1A0C75F211240F6B6","019cf481-a2d7-7233-958e-de81af9c52f7","019cf064-09e4-79bc-8453-421c166e6722","","null","
                <div class=""stimulus-container"">
                    <img src=""images/causal_sequence/the_performance_causal/the_performance_causal_7.png"" class=""exp-image"">
                    <div class=""question-area""></div> 
                </div>","null","","","","","","","","",""
"","","","","","html-button-response","93","372964","0.0-93.0","F86A11484A2B4FD1A0C75F211240F6B6","019cf481-a2d7-7233-958e-de81af9c52f7","019cf064-09e4-79bc-8453-421c166e6722","","1560","
                <div class=""stimulus-container"">
                    <img src=""images/causal_sequence/the_performance_causal/the_performance_causal_7.png"" class=""exp-image"">
                    <div class=""question-area"">
                        <p style=""font-size: 20px; font-weight: bold; margin: 0;"">Is there a person in this image?</p>
                    </div>
                </div>","0","main_experiment_trial","7","the_performance_causal","causal_sequence","","","","",""
"","","","","","html-keyboard-response","94","377966","0.0-94.0","F86A11484A2B4FD1A0C75F211240F6B6","019cf481-a2d7-7233-958e-de81af9c52f7","019cf064-09e4-79bc-8453-421c166e6722","","null","
                <div class=""stimulus-container"">
                    <img src=""images/causal_sequence/the_performance_causal/the_performance_causal_8.png"" class=""exp-image"">
                    <div class=""question-area""></div> 
                </div>","null","","","","","","","","",""
"","","","","","html-button-response","95","378428","0.0-95.0","F86A11484A2B4FD1A0C75F211240F6B6","019cf481-a2d7-7233-958e-de81af9c52f7","019cf064-09e4-79bc-8453-421c166e6722","","462","
                <div class=""stimulus-container"">
                    <img src=""images/causal_sequence/the_performance_causal/the_performance_causal_8.png"" class=""exp-image"">
                    <div class=""question-area"">
                        <p style=""font-size: 20px; font-weight: bold; margin: 0;"">Is there a person in this image?</p>
                    </div>
                </div>","0","main_experiment_trial","8","the_performance_causal","causal_sequence","","","","",""
"","","","","","html-keyboard-response","96","383439","0.0-96.0","F86A11484A2B4FD1A0C75F211240F6B6","019cf481-a2d7-7233-958e-de81af9c52f7","019cf064-09e4-79bc-8453-421c166e6722","","null","
                <div class=""stimulus-container"">
                    <img src=""images/causal_sequence/the_performance_causal/the_performance_causal_9.png"" class=""exp-image"">
                    <div class=""question-area""></div> 
                </div>","null","","","","","","","","",""
"","","","","","html-button-response","97","384979","0.0-97.0","F86A11484A2B4FD1A0C75F211240F6B6","019cf481-a2d7-7233-958e-de81af9c52f7","019cf064-09e4-79bc-8453-421c166e6722","","1540","
                <div class=""stimulus-container"">
                    <img src=""images/causal_sequence/the_performance_causal/the_performance_causal_9.png"" class=""exp-image"">
                    <div class=""question-area"">
                        <p style=""font-size: 20px; font-weight: bold; margin: 0;"">Is there a person in this image?</p>
                    </div>
                </div>","0","main_experiment_trial","9","the_performance_causal","causal_sequence","","","","",""
"","","","","","html-keyboard-response","98","389983","0.0-98.0","F86A11484A2B4FD1A0C75F211240F6B6","019cf481-a2d7-7233-958e-de81af9c52f7","019cf064-09e4-79bc-8453-421c166e6722","","null","
                <div class=""stimulus-container"">
                    <img src=""images/causal_sequence/the_performance_causal/the_performance_causal_ten.png"" class=""exp-image"">
                    <div class=""question-area""></div> 
                </div>","null","","","","","","","","",""
"","","","","","html-button-response","99","391419","0.0-99.0","F86A11484A2B4FD1A0C75F211240F6B6","019cf481-a2d7-7233-958e-de81af9c52f7","019cf064-09e4-79bc-8453-421c166e6722","","1435","
                <div class=""stimulus-container"">
                    <img src=""images/causal_sequence/the_performance_causal/the_performance_causal_ten.png"" class=""exp-image"">
                    <div class=""question-area"">
                        <p style=""font-size: 20px; font-weight: bold; margin: 0;"">Is there a person in this image?</p>
                    </div>
                </div>","0","main_experiment_trial","ten","the_performance_causal","causal_sequence","","","","",""
"","","","","","html-keyboard-response","100","392423","0.0-100.0","F86A11484A2B4FD1A0C75F211240F6B6","019cf481-a2d7-7233-958e-de81af9c52f7","019cf064-09e4-79bc-8453-421c166e6722","","null","<div style=""background-color: white; width: 100vw; height: 100vh;""></div>","null","","","","","","","","",""
"","","","","","html-keyboard-response","101","397434","0.0-101.0","F86A11484A2B4FD1A0C75F211240F6B6","019cf481-a2d7-7233-958e-de81af9c52f7","019cf064-09e4-79bc-8453-421c166e6722","","null","
                <div class=""stimulus-container"">
                    <img src=""images/causal_sequence/saving_a_cat_causal/saving_a_cat_causal_1.png"" class=""exp-image"">
                    <div class=""question-area""></div> 
                </div>","null","","","","","","","","",""
"","","","","","html-button-response","102","397887","0.0-102.0","F86A11484A2B4FD1A0C75F211240F6B6","019cf481-a2d7-7233-958e-de81af9c52f7","019cf064-09e4-79bc-8453-421c166e6722","","452","
                <div class=""stimulus-container"">
                    <img src=""images/causal_sequence/saving_a_cat_causal/saving_a_cat_causal_1.png"" class=""exp-image"">
                    <div class=""question-area"">
                        <p style=""font-size: 20px; font-weight: bold; margin: 0;"">Is there a person in this image?</p>
                    </div>
                </div>","0","main_experiment_trial","1","saving_a_cat_causal","causal_sequence","","","","",""
"","","","","","html-keyboard-response","103","402890","0.0-103.0","F86A11484A2B4FD1A0C75F211240F6B6","019cf481-a2d7-7233-958e-de81af9c52f7","019cf064-09e4-79bc-8453-421c166e6722","","null","
                <div class=""stimulus-container"">
                    <img src=""images/causal_sequence/saving_a_cat_causal/saving_a_cat_causal_2.png"" class=""exp-image"">
                    <div class=""question-area""></div> 
                </div>","null","","","","","","","","",""
"","","","","","html-button-response","104","405436","0.0-104.0","F86A11484A2B4FD1A0C75F211240F6B6","019cf481-a2d7-7233-958e-de81af9c52f7","019cf064-09e4-79bc-8453-421c166e6722","","2546","
                <div class=""stimulus-container"">
                    <img src=""images/causal_sequence/saving_a_cat_causal/saving_a_cat_causal_2.png"" class=""exp-image"">
                    <div class=""question-area"">
                        <p style=""font-size: 20px; font-weight: bold; margin: 0;"">Is there a person in this image?</p>
                    </div>
                </div>","1","main_experiment_trial","2","saving_a_cat_causal","causal_sequence","","","","",""
"","","","","","html-keyboard-response","105","410439","0.0-105.0","F86A11484A2B4FD1A0C75F211240F6B6","019cf481-a2d7-7233-958e-de81af9c52f7","019cf064-09e4-79bc-8453-421c166e6722","","null","
                <div class=""stimulus-container"">
                    <img src=""images/causal_sequence/saving_a_cat_causal/saving_a_cat_causal_3.png"" class=""exp-image"">
                    <div class=""question-area""></div> 
                </div>","null","","","","","","","","",""
"","","","","","html-button-response","106","411910","0.0-106.0","F86A11484A2B4FD1A0C75F211240F6B6","019cf481-a2d7-7233-958e-de81af9c52f7","019cf064-09e4-79bc-8453-421c166e6722","","1470","
                <div class=""stimulus-container"">
                    <img src=""images/causal_sequence/saving_a_cat_causal/saving_a_cat_causal_3.png"" class=""exp-image"">
                    <div class=""question-area"">
                        <p style=""font-size: 20px; font-weight: bold; margin: 0;"">Is there a person in this image?</p>
                    </div>
                </div>","1","main_experiment_trial","3","saving_a_cat_causal","causal_sequence","","","","",""
"","","","","","html-keyboard-response","107","416911","0.0-107.0","F86A11484A2B4FD1A0C75F211240F6B6","019cf481-a2d7-7233-958e-de81af9c52f7","019cf064-09e4-79bc-8453-421c166e6722","","null","
                <div class=""stimulus-container"">
                    <img src=""images/causal_sequence/saving_a_cat_causal/saving_a_cat_causal_4.png"" class=""exp-image"">
                    <div class=""question-area""></div> 
                </div>","null","","","","","","","","",""
"","","","","","html-button-response","108","417550","0.0-108.0","F86A11484A2B4FD1A0C75F211240F6B6","019cf481-a2d7-7233-958e-de81af9c52f7","019cf064-09e4-79bc-8453-421c166e6722","","639","
                <div class=""stimulus-container"">
                    <img src=""images/causal_sequence/saving_a_cat_causal/saving_a_cat_causal_4.png"" class=""exp-image"">
                    <div class=""question-area"">
                        <p style=""font-size: 20px; font-weight: bold; margin: 0;"">Is there a person in this image?</p>
                    </div>
                </div>","0","main_experiment_trial","4","saving_a_cat_causal","causal_sequence","","","","",""
"","","","","","html-keyboard-response","109","422556","0.0-109.0","F86A11484A2B4FD1A0C75F211240F6B6","019cf481-a2d7-7233-958e-de81af9c52f7","019cf064-09e4-79bc-8453-421c166e6722","","null","
                <div class=""stimulus-container"">
                    <img src=""images/causal_sequence/saving_a_cat_causal/saving_a_cat_causal_5.png"" class=""exp-image"">
                    <div class=""question-area""></div> 
                </div>","null","","","","","","","","",""
"","","","","","html-button-response","110","423133","0.0-110.0","F86A11484A2B4FD1A0C75F211240F6B6","019cf481-a2d7-7233-958e-de81af9c52f7","019cf064-09e4-79bc-8453-421c166e6722","","576","
                <div class=""stimulus-container"">
                    <img src=""images/causal_sequence/saving_a_cat_causal/saving_a_cat_causal_5.png"" class=""exp-image"">
                    <div class=""question-area"">
                        <p style=""font-size: 20px; font-weight: bold; margin: 0;"">Is there a person in this image?</p>
                    </div>
                </div>","0","main_experiment_trial","5","saving_a_cat_causal","causal_sequence","","","","",""
"","","","","","html-keyboard-response","111","428144","0.0-111.0","F86A11484A2B4FD1A0C75F211240F6B6","019cf481-a2d7-7233-958e-de81af9c52f7","019cf064-09e4-79bc-8453-421c166e6722","","null","
                <div class=""stimulus-container"">
                    <img src=""images/causal_sequence/saving_a_cat_causal/saving_a_cat_causal_6.png"" class=""exp-image"">
                    <div class=""question-area""></div> 
                </div>","null","","","","","","","","",""
"","","","","","html-button-response","112","429198","0.0-112.0","F86A11484A2B4FD1A0C75F211240F6B6","019cf481-a2d7-7233-958e-de81af9c52f7","019cf064-09e4-79bc-8453-421c166e6722","","1053","
                <div class=""stimulus-container"">
                    <img src=""images/causal_sequence/saving_a_cat_causal/saving_a_cat_causal_6.png"" class=""exp-image"">
                    <div class=""question-area"">
                        <p style=""font-size: 20px; font-weight: bold; margin: 0;"">Is there a person in this image?</p>
                    </div>
                </div>","0","main_experiment_trial","6","saving_a_cat_causal","causal_sequence","","","","",""
"","","","","","html-keyboard-response","113","434203","0.0-113.0","F86A11484A2B4FD1A0C75F211240F6B6","019cf481-a2d7-7233-958e-de81af9c52f7","019cf064-09e4-79bc-8453-421c166e6722","","null","
                <div class=""stimulus-container"">
                    <img src=""images/causal_sequence/saving_a_cat_causal/saving_a_cat_causal_7.png"" class=""exp-image"">
                    <div class=""question-area""></div> 
                </div>","null","","","","","","","","",""
"","","","","","html-button-response","114","435676","0.0-114.0","F86A11484A2B4FD1A0C75F211240F6B6","019cf481-a2d7-7233-958e-de81af9c52f7","019cf064-09e4-79bc-8453-421c166e6722","","1472","
                <div class=""stimulus-container"">
                    <img src=""images/causal_sequence/saving_a_cat_causal/saving_a_cat_causal_7.png"" class=""exp-image"">
                    <div class=""question-area"">
                        <p style=""font-size: 20px; font-weight: bold; margin: 0;"">Is there a person in this image?</p>
                    </div>
                </div>","0","main_experiment_trial","7","saving_a_cat_causal","causal_sequence","","","","",""
"","","","","","html-keyboard-response","115","440685","0.0-115.0","F86A11484A2B4FD1A0C75F211240F6B6","019cf481-a2d7-7233-958e-de81af9c52f7","019cf064-09e4-79bc-8453-421c166e6722","","null","
                <div class=""stimulus-container"">
                    <img src=""images/causal_sequence/saving_a_cat_causal/saving_a_cat_causal_8.png"" class=""exp-image"">
                    <div class=""question-area""></div> 
                </div>","null","","","","","","","","",""
"","","","","","html-button-response","116","441243","0.0-116.0","F86A11484A2B4FD1A0C75F211240F6B6","019cf481-a2d7-7233-958e-de81af9c52f7","019cf064-09e4-79bc-8453-421c166e6722","","556","
                <div class=""stimulus-container"">
                    <img src=""images/causal_sequence/saving_a_cat_causal/saving_a_cat_causal_8.png"" class=""exp-image"">
                    <div class=""question-area"">
                        <p style=""font-size: 20px; font-weight: bold; margin: 0;"">Is there a person in this image?</p>
                    </div>
                </div>","0","main_experiment_trial","8","saving_a_cat_causal","causal_sequence","","","","",""
"","","","","","html-keyboard-response","117","446243","0.0-117.0","F86A11484A2B4FD1A0C75F211240F6B6","019cf481-a2d7-7233-958e-de81af9c52f7","019cf064-09e4-79bc-8453-421c166e6722","","null","
                <div class=""stimulus-container"">
                    <img src=""images/causal_sequence/saving_a_cat_causal/saving_a_cat_causal_9.png"" class=""exp-image"">
                    <div class=""question-area""></div> 
                </div>","null","","","","","","","","",""
"","","","","","html-button-response","118","447415","0.0-118.0","F86A11484A2B4FD1A0C75F211240F6B6","019cf481-a2d7-7233-958e-de81af9c52f7","019cf064-09e4-79bc-8453-421c166e6722","","1171","
                <div class=""stimulus-container"">
                    <img src=""images/causal_sequence/saving_a_cat_causal/saving_a_cat_causal_9.png"" class=""exp-image"">
                    <div class=""question-area"">
                        <p style=""font-size: 20px; font-weight: bold; margin: 0;"">Is there a person in this image?</p>
                    </div>
                </div>","0","main_experiment_trial","9","saving_a_cat_causal","causal_sequence","","","","",""
"","","","","","html-keyboard-response","119","452419","0.0-119.0","F86A11484A2B4FD1A0C75F211240F6B6","019cf481-a2d7-7233-958e-de81af9c52f7","019cf064-09e4-79bc-8453-421c166e6722","","null","
                <div class=""stimulus-container"">
                    <img src=""images/causal_sequence/saving_a_cat_causal/saving_a_cat_causal_ten.png"" class=""exp-image"">
                    <div class=""question-area""></div> 
                </div>","null","","","","","","","","",""
"","","","","","html-button-response","120","454170","0.0-120.0","F86A11484A2B4FD1A0C75F211240F6B6","019cf481-a2d7-7233-958e-de81af9c52f7","019cf064-09e4-79bc-8453-421c166e6722","","1750","
                <div class=""stimulus-container"">
                    <img src=""images/causal_sequence/saving_a_cat_causal/saving_a_cat_causal_ten.png"" class=""exp-image"">
                    <div class=""question-area"">
                        <p style=""font-size: 20px; font-weight: bold; margin: 0;"">Is there a person in this image?</p>
                    </div>
                </div>","0","main_experiment_trial","ten","saving_a_cat_causal","causal_sequence","","","","",""
"","","","","","html-keyboard-response","121","455180","0.0-121.0","F86A11484A2B4FD1A0C75F211240F6B6","019cf481-a2d7-7233-958e-de81af9c52f7","019cf064-09e4-79bc-8453-421c166e6722","","null","<div style=""background-color: white; width: 100vw; height: 100vh;""></div>","null","","","","","","","","",""
"","","","","","html-keyboard-response","122","460186","0.0-122.0","F86A11484A2B4FD1A0C75F211240F6B6","019cf481-a2d7-7233-958e-de81af9c52f7","019cf064-09e4-79bc-8453-421c166e6722","","null","
                <div class=""stimulus-container"">
                    <img src=""images/causal_sequence/dog_causal/dog_causal_1.png"" class=""exp-image"">
                    <div class=""question-area""></div> 
                </div>","null","","","","","","","","",""
"","","","","","html-button-response","123","461620","0.0-123.0","F86A11484A2B4FD1A0C75F211240F6B6","019cf481-a2d7-7233-958e-de81af9c52f7","019cf064-09e4-79bc-8453-421c166e6722","","1433","
                <div class=""stimulus-container"">
                    <img src=""images/causal_sequence/dog_causal/dog_causal_1.png"" class=""exp-image"">
                    <div class=""question-area"">
                        <p style=""font-size: 20px; font-weight: bold; margin: 0;"">Is there a person in this image?</p>
                    </div>
                </div>","0","main_experiment_trial","1","dog_causal","causal_sequence","","","","",""
"","","","","","html-keyboard-response","124","466631","0.0-124.0","F86A11484A2B4FD1A0C75F211240F6B6","019cf481-a2d7-7233-958e-de81af9c52f7","019cf064-09e4-79bc-8453-421c166e6722","","null","
                <div class=""stimulus-container"">
                    <img src=""images/causal_sequence/dog_causal/dog_causal_2.png"" class=""exp-image"">
                    <div class=""question-area""></div> 
                </div>","null","","","","","","","","",""
"","","","","","html-button-response","125","467835","0.0-125.0","F86A11484A2B4FD1A0C75F211240F6B6","019cf481-a2d7-7233-958e-de81af9c52f7","019cf064-09e4-79bc-8453-421c166e6722","","1203","
                <div class=""stimulus-container"">
                    <img src=""images/causal_sequence/dog_causal/dog_causal_2.png"" class=""exp-image"">
                    <div class=""question-area"">
                        <p style=""font-size: 20px; font-weight: bold; margin: 0;"">Is there a person in this image?</p>
                    </div>
                </div>","0","main_experiment_trial","2","dog_causal","causal_sequence","","","","",""
"","","","","","html-keyboard-response","126","472849","0.0-126.0","F86A11484A2B4FD1A0C75F211240F6B6","019cf481-a2d7-7233-958e-de81af9c52f7","019cf064-09e4-79bc-8453-421c166e6722","","null","
                <div class=""stimulus-container"">
                    <img src=""images/causal_sequence/dog_causal/dog_causal_3.png"" class=""exp-image"">
                    <div class=""question-area""></div> 
                </div>","null","","","","","","","","",""
"","","","","","html-button-response","127","473678","0.0-127.0","F86A11484A2B4FD1A0C75F211240F6B6","019cf481-a2d7-7233-958e-de81af9c52f7","019cf064-09e4-79bc-8453-421c166e6722","","828","
                <div class=""stimulus-container"">
                    <img src=""images/causal_sequence/dog_causal/dog_causal_3.png"" class=""exp-image"">
                    <div class=""question-area"">
                        <p style=""font-size: 20px; font-weight: bold; margin: 0;"">Is there a person in this image?</p>
                    </div>
                </div>","0","main_experiment_trial","3","dog_causal","causal_sequence","","","","",""
"","","","","","html-keyboard-response","128","478686","0.0-128.0","F86A11484A2B4FD1A0C75F211240F6B6","019cf481-a2d7-7233-958e-de81af9c52f7","019cf064-09e4-79bc-8453-421c166e6722","","null","
                <div class=""stimulus-container"">
                    <img src=""images/causal_sequence/dog_causal/dog_causal_4.png"" class=""exp-image"">
                    <div class=""question-area""></div> 
                </div>","null","","","","","","","","",""
"","","","","","html-button-response","129","480763","0.0-129.0","F86A11484A2B4FD1A0C75F211240F6B6","019cf481-a2d7-7233-958e-de81af9c52f7","019cf064-09e4-79bc-8453-421c166e6722","","2076","
                <div class=""stimulus-container"">
                    <img src=""images/causal_sequence/dog_causal/dog_causal_4.png"" class=""exp-image"">
                    <div class=""question-area"">
                        <p style=""font-size: 20px; font-weight: bold; margin: 0;"">Is there a person in this image?</p>
                    </div>
                </div>","0","main_experiment_trial","4","dog_causal","causal_sequence","","","","",""
"","","","","","html-keyboard-response","130","485778","0.0-130.0","F86A11484A2B4FD1A0C75F211240F6B6","019cf481-a2d7-7233-958e-de81af9c52f7","019cf064-09e4-79bc-8453-421c166e6722","","null","
                <div class=""stimulus-container"">
                    <img src=""images/causal_sequence/dog_causal/dog_causal_5.png"" class=""exp-image"">
                    <div class=""question-area""></div> 
                </div>","null","","","","","","","","",""
"","","","","","html-button-response","131","488681","0.0-131.0","F86A11484A2B4FD1A0C75F211240F6B6","019cf481-a2d7-7233-958e-de81af9c52f7","019cf064-09e4-79bc-8453-421c166e6722","","2902","
                <div class=""stimulus-container"">
                    <img src=""images/causal_sequence/dog_causal/dog_causal_5.png"" class=""exp-image"">
                    <div class=""question-area"">
                        <p style=""font-size: 20px; font-weight: bold; margin: 0;"">Is there a person in this image?</p>
                    </div>
                </div>","0","main_experiment_trial","5","dog_causal","causal_sequence","","","","",""
"","","","","","html-keyboard-response","132","493688","0.0-132.0","F86A11484A2B4FD1A0C75F211240F6B6","019cf481-a2d7-7233-958e-de81af9c52f7","019cf064-09e4-79bc-8453-421c166e6722","","null","
                <div class=""stimulus-container"">
                    <img src=""images/causal_sequence/dog_causal/dog_causal_6.png"" class=""exp-image"">
                    <div class=""question-area""></div> 
                </div>","null","","","","","","","","",""
"","","","","","html-button-response","133","495141","0.0-133.0","F86A11484A2B4FD1A0C75F211240F6B6","019cf481-a2d7-7233-958e-de81af9c52f7","019cf064-09e4-79bc-8453-421c166e6722","","1451","
                <div class=""stimulus-container"">
                    <img src=""images/causal_sequence/dog_causal/dog_causal_6.png"" class=""exp-image"">
                    <div class=""question-area"">
                        <p style=""font-size: 20px; font-weight: bold; margin: 0;"">Is there a person in this image?</p>
                    </div>
                </div>","0","main_experiment_trial","6","dog_causal","causal_sequence","","","","",""
"","","","","","html-keyboard-response","134","500144","0.0-134.0","F86A11484A2B4FD1A0C75F211240F6B6","019cf481-a2d7-7233-958e-de81af9c52f7","019cf064-09e4-79bc-8453-421c166e6722","","null","
                <div class=""stimulus-container"">
                    <img src=""images/causal_sequence/dog_causal/dog_causal_7.png"" class=""exp-image"">
                    <div class=""question-area""></div> 
                </div>","null","","","","","","","","",""
"","","","","","html-button-response","135","502892","0.0-135.0","F86A11484A2B4FD1A0C75F211240F6B6","019cf481-a2d7-7233-958e-de81af9c52f7","019cf064-09e4-79bc-8453-421c166e6722","","2747","
                <div class=""stimulus-container"">
                    <img src=""images/causal_sequence/dog_causal/dog_causal_7.png"" class=""exp-image"">
                    <div class=""question-area"">
                        <p style=""font-size: 20px; font-weight: bold; margin: 0;"">Is there a person in this image?</p>
                    </div>
                </div>","0","main_experiment_trial","7","dog_causal","causal_sequence","","","","",""
"","","","","","html-keyboard-response","136","507903","0.0-136.0","F86A11484A2B4FD1A0C75F211240F6B6","019cf481-a2d7-7233-958e-de81af9c52f7","019cf064-09e4-79bc-8453-421c166e6722","","null","
                <div class=""stimulus-container"">
                    <img src=""images/causal_sequence/dog_causal/dog_causal_8.png"" class=""exp-image"">
                    <div class=""question-area""></div> 
                </div>","null","","","","","","","","",""
"","","","","","html-button-response","137","508827","0.0-137.0","F86A11484A2B4FD1A0C75F211240F6B6","019cf481-a2d7-7233-958e-de81af9c52f7","019cf064-09e4-79bc-8453-421c166e6722","","924","
                <div class=""stimulus-container"">
                    <img src=""images/causal_sequence/dog_causal/dog_causal_8.png"" class=""exp-image"">
                    <div class=""question-area"">
                        <p style=""font-size: 20px; font-weight: bold; margin: 0;"">Is there a person in this image?</p>
                    </div>
                </div>","0","main_experiment_trial","8","dog_causal","causal_sequence","","","","",""
"","","","","","html-keyboard-response","138","513831","0.0-138.0","F86A11484A2B4FD1A0C75F211240F6B6","019cf481-a2d7-7233-958e-de81af9c52f7","019cf064-09e4-79bc-8453-421c166e6722","","null","
                <div class=""stimulus-container"">
                    <img src=""images/causal_sequence/dog_causal/dog_causal_9.png"" class=""exp-image"">
                    <div class=""question-area""></div> 
                </div>","null","","","","","","","","",""
"","","","","","html-button-response","139","515096","0.0-139.0","F86A11484A2B4FD1A0C75F211240F6B6","019cf481-a2d7-7233-958e-de81af9c52f7","019cf064-09e4-79bc-8453-421c166e6722","","1264","
                <div class=""stimulus-container"">
                    <img src=""images/causal_sequence/dog_causal/dog_causal_9.png"" class=""exp-image"">
                    <div class=""question-area"">
                        <p style=""font-size: 20px; font-weight: bold; margin: 0;"">Is there a person in this image?</p>
                    </div>
                </div>","0","main_experiment_trial","9","dog_causal","causal_sequence","","","","",""
"","","","","","html-keyboard-response","140","520110","0.0-140.0","F86A11484A2B4FD1A0C75F211240F6B6","019cf481-a2d7-7233-958e-de81af9c52f7","019cf064-09e4-79bc-8453-421c166e6722","","null","
                <div class=""stimulus-container"">
                    <img src=""images/causal_sequence/dog_causal/dog_causal_ten.png"" class=""exp-image"">
                    <div class=""question-area""></div> 
                </div>","null","","","","","","","","",""
"","","","","","html-button-response","141","522898","0.0-141.0","F86A11484A2B4FD1A0C75F211240F6B6","019cf481-a2d7-7233-958e-de81af9c52f7","019cf064-09e4-79bc-8453-421c166e6722","","2786","
                <div class=""stimulus-container"">
                    <img src=""images/causal_sequence/dog_causal/dog_causal_ten.png"" class=""exp-image"">
                    <div class=""question-area"">
                        <p style=""font-size: 20px; font-weight: bold; margin: 0;"">Is there a person in this image?</p>
                    </div>
                </div>","0","main_experiment_trial","ten","dog_causal","causal_sequence","","","","",""
"","","","","","html-keyboard-response","142","523908","0.0-142.0","F86A11484A2B4FD1A0C75F211240F6B6","019cf481-a2d7-7233-958e-de81af9c52f7","019cf064-09e4-79bc-8453-421c166e6722","","null","<div style=""background-color: white; width: 100vw; height: 100vh;""></div>","null","","","","","","","","",""
"","","","","","html-keyboard-response","143","528919","0.0-143.0","F86A11484A2B4FD1A0C75F211240F6B6","019cf481-a2d7-7233-958e-de81af9c52f7","019cf064-09e4-79bc-8453-421c166e6722","","null","
                <div class=""stimulus-container"">
                    <img src=""images/schematic_sequence/supermarket_scheme/supermarket_scheme_1.png"" class=""exp-image"">
                    <div class=""question-area""></div> 
                </div>","null","","","","","","","","",""
"","","","","","html-button-response","144","530400","0.0-144.0","F86A11484A2B4FD1A0C75F211240F6B6","019cf481-a2d7-7233-958e-de81af9c52f7","019cf064-09e4-79bc-8453-421c166e6722","","1480","
                <div class=""stimulus-container"">
                    <img src=""images/schematic_sequence/supermarket_scheme/supermarket_scheme_1.png"" class=""exp-image"">
                    <div class=""question-area"">
                        <p style=""font-size: 20px; font-weight: bold; margin: 0;"">Is there a person in this image?</p>
                    </div>
                </div>","1","main_experiment_trial","1","supermarket_scheme","schematic_sequence","","","","",""
"","","","","","html-keyboard-response","145","535412","0.0-145.0","F86A11484A2B4FD1A0C75F211240F6B6","019cf481-a2d7-7233-958e-de81af9c52f7","019cf064-09e4-79bc-8453-421c166e6722","","null","
                <div class=""stimulus-container"">
                    <img src=""images/schematic_sequence/supermarket_scheme/supermarket_scheme_2.png"" class=""exp-image"">
                    <div class=""question-area""></div> 
                </div>","null","","","","","","","","",""
"","","","","","html-button-response","146","536729","0.0-146.0","F86A11484A2B4FD1A0C75F211240F6B6","019cf481-a2d7-7233-958e-de81af9c52f7","019cf064-09e4-79bc-8453-421c166e6722","","1316","
                <div class=""stimulus-container"">
                    <img src=""images/schematic_sequence/supermarket_scheme/supermarket_scheme_2.png"" class=""exp-image"">
                    <div class=""question-area"">
                        <p style=""font-size: 20px; font-weight: bold; margin: 0;"">Is there a person in this image?</p>
                    </div>
                </div>","1","main_experiment_trial","2","supermarket_scheme","schematic_sequence","","","","",""
"","","","","","html-keyboard-response","147","541734","0.0-147.0","F86A11484A2B4FD1A0C75F211240F6B6","019cf481-a2d7-7233-958e-de81af9c52f7","019cf064-09e4-79bc-8453-421c166e6722","","null","
                <div class=""stimulus-container"">
                    <img src=""images/schematic_sequence/supermarket_scheme/supermarket_scheme_3.png"" class=""exp-image"">
                    <div class=""question-area""></div> 
                </div>","null","","","","","","","","",""
"","","","","","html-button-response","148","542817","0.0-148.0","F86A11484A2B4FD1A0C75F211240F6B6","019cf481-a2d7-7233-958e-de81af9c52f7","019cf064-09e4-79bc-8453-421c166e6722","","1082","
                <div class=""stimulus-container"">
                    <img src=""images/schematic_sequence/supermarket_scheme/supermarket_scheme_3.png"" class=""exp-image"">
                    <div class=""question-area"">
                        <p style=""font-size: 20px; font-weight: bold; margin: 0;"">Is there a person in this image?</p>
                    </div>
                </div>","1","main_experiment_trial","3","supermarket_scheme","schematic_sequence","","","","",""
"","","","","","html-keyboard-response","149","547820","0.0-149.0","F86A11484A2B4FD1A0C75F211240F6B6","019cf481-a2d7-7233-958e-de81af9c52f7","019cf064-09e4-79bc-8453-421c166e6722","","null","
                <div class=""stimulus-container"">
                    <img src=""images/schematic_sequence/supermarket_scheme/supermarket_scheme_4.png"" class=""exp-image"">
                    <div class=""question-area""></div> 
                </div>","null","","","","","","","","",""
"","","","","","html-button-response","150","549799","0.0-150.0","F86A11484A2B4FD1A0C75F211240F6B6","019cf481-a2d7-7233-958e-de81af9c52f7","019cf064-09e4-79bc-8453-421c166e6722","","1979","
                <div class=""stimulus-container"">
                    <img src=""images/schematic_sequence/supermarket_scheme/supermarket_scheme_4.png"" class=""exp-image"">
                    <div class=""question-area"">
                        <p style=""font-size: 20px; font-weight: bold; margin: 0;"">Is there a person in this image?</p>
                    </div>
                </div>","0","main_experiment_trial","4","supermarket_scheme","schematic_sequence","","","","",""
"","","","","","html-keyboard-response","151","554810","0.0-151.0","F86A11484A2B4FD1A0C75F211240F6B6","019cf481-a2d7-7233-958e-de81af9c52f7","019cf064-09e4-79bc-8453-421c166e6722","","null","
                <div class=""stimulus-container"">
                    <img src=""images/schematic_sequence/supermarket_scheme/supermarket_scheme_5.png"" class=""exp-image"">
                    <div class=""question-area""></div> 
                </div>","null","","","","","","","","",""
"","","","","","html-button-response","152","555244","0.0-152.0","F86A11484A2B4FD1A0C75F211240F6B6","019cf481-a2d7-7233-958e-de81af9c52f7","019cf064-09e4-79bc-8453-421c166e6722","","433","
                <div class=""stimulus-container"">
                    <img src=""images/schematic_sequence/supermarket_scheme/supermarket_scheme_5.png"" class=""exp-image"">
                    <div class=""question-area"">
                        <p style=""font-size: 20px; font-weight: bold; margin: 0;"">Is there a person in this image?</p>
                    </div>
                </div>","1","main_experiment_trial","5","supermarket_scheme","schematic_sequence","","","","",""
"","","","","","html-keyboard-response","153","560257","0.0-153.0","F86A11484A2B4FD1A0C75F211240F6B6","019cf481-a2d7-7233-958e-de81af9c52f7","019cf064-09e4-79bc-8453-421c166e6722","","null","
                <div class=""stimulus-container"">
                    <img src=""images/schematic_sequence/supermarket_scheme/supermarket_scheme_6.png"" class=""exp-image"">
                    <div class=""question-area""></div> 
                </div>","null","","","","","","","","",""
"","","","","","html-button-response","154","561007","0.0-154.0","F86A11484A2B4FD1A0C75F211240F6B6","019cf481-a2d7-7233-958e-de81af9c52f7","019cf064-09e4-79bc-8453-421c166e6722","","750","
                <div class=""stimulus-container"">
                    <img src=""images/schematic_sequence/supermarket_scheme/supermarket_scheme_6.png"" class=""exp-image"">
                    <div class=""question-area"">
                        <p style=""font-size: 20px; font-weight: bold; margin: 0;"">Is there a person in this image?</p>
                    </div>
                </div>","0","main_experiment_trial","6","supermarket_scheme","schematic_sequence","","","","",""
"","","","","","html-keyboard-response","155","566014","0.0-155.0","F86A11484A2B4FD1A0C75F211240F6B6","019cf481-a2d7-7233-958e-de81af9c52f7","019cf064-09e4-79bc-8453-421c166e6722","","null","
                <div class=""stimulus-container"">
                    <img src=""images/schematic_sequence/supermarket_scheme/supermarket_scheme_7.png"" class=""exp-image"">
                    <div class=""question-area""></div> 
                </div>","null","","","","","","","","",""
"","","","","","html-button-response","156","567483","0.0-156.0","F86A11484A2B4FD1A0C75F211240F6B6","019cf481-a2d7-7233-958e-de81af9c52f7","019cf064-09e4-79bc-8453-421c166e6722","","1469","
                <div class=""stimulus-container"">
                    <img src=""images/schematic_sequence/supermarket_scheme/supermarket_scheme_7.png"" class=""exp-image"">
                    <div class=""question-area"">
                        <p style=""font-size: 20px; font-weight: bold; margin: 0;"">Is there a person in this image?</p>
                    </div>
                </div>","0","main_experiment_trial","7","supermarket_scheme","schematic_sequence","","","","",""
"","","","","","html-keyboard-response","157","572491","0.0-157.0","F86A11484A2B4FD1A0C75F211240F6B6","019cf481-a2d7-7233-958e-de81af9c52f7","019cf064-09e4-79bc-8453-421c166e6722","","null","
                <div class=""stimulus-container"">
                    <img src=""images/schematic_sequence/supermarket_scheme/supermarket_scheme_8.png"" class=""exp-image"">
                    <div class=""question-area""></div> 
                </div>","null","","","","","","","","",""
"","","","","","html-button-response","158","573284","0.0-158.0","F86A11484A2B4FD1A0C75F211240F6B6","019cf481-a2d7-7233-958e-de81af9c52f7","019cf064-09e4-79bc-8453-421c166e6722","","792","
                <div class=""stimulus-container"">
                    <img src=""images/schematic_sequence/supermarket_scheme/supermarket_scheme_8.png"" class=""exp-image"">
                    <div class=""question-area"">
                        <p style=""font-size: 20px; font-weight: bold; margin: 0;"">Is there a person in this image?</p>
                    </div>
                </div>","0","main_experiment_trial","8","supermarket_scheme","schematic_sequence","","","","",""
"","","","","","html-keyboard-response","159","578300","0.0-159.0","F86A11484A2B4FD1A0C75F211240F6B6","019cf481-a2d7-7233-958e-de81af9c52f7","019cf064-09e4-79bc-8453-421c166e6722","","null","
                <div class=""stimulus-container"">
                    <img src=""images/schematic_sequence/supermarket_scheme/supermarket_scheme_9.png"" class=""exp-image"">
                    <div class=""question-area""></div> 
                </div>","null","","","","","","","","",""
"","","","","","html-button-response","160","579248","0.0-160.0","F86A11484A2B4FD1A0C75F211240F6B6","019cf481-a2d7-7233-958e-de81af9c52f7","019cf064-09e4-79bc-8453-421c166e6722","","947","
                <div class=""stimulus-container"">
                    <img src=""images/schematic_sequence/supermarket_scheme/supermarket_scheme_9.png"" class=""exp-image"">
                    <div class=""question-area"">
                        <p style=""font-size: 20px; font-weight: bold; margin: 0;"">Is there a person in this image?</p>
                    </div>
                </div>","0","main_experiment_trial","9","supermarket_scheme","schematic_sequence","","","","",""
"","","","","","html-keyboard-response","161","584258","0.0-161.0","F86A11484A2B4FD1A0C75F211240F6B6","019cf481-a2d7-7233-958e-de81af9c52f7","019cf064-09e4-79bc-8453-421c166e6722","","null","
                <div class=""stimulus-container"">
                    <img src=""images/schematic_sequence/supermarket_scheme/supermarket_scheme_ten.png"" class=""exp-image"">
                    <div class=""question-area""></div> 
                </div>","null","","","","","","","","",""
"","","","","","html-button-response","162","585929","0.0-162.0","F86A11484A2B4FD1A0C75F211240F6B6","019cf481-a2d7-7233-958e-de81af9c52f7","019cf064-09e4-79bc-8453-421c166e6722","","1671","
                <div class=""stimulus-container"">
                    <img src=""images/schematic_sequence/supermarket_scheme/supermarket_scheme_ten.png"" class=""exp-image"">
                    <div class=""question-area"">
                        <p style=""font-size: 20px; font-weight: bold; margin: 0;"">Is there a person in this image?</p>
                    </div>
                </div>","1","main_experiment_trial","ten","supermarket_scheme","schematic_sequence","","","","",""
"","","","","","html-keyboard-response","163","586934","0.0-163.0","F86A11484A2B4FD1A0C75F211240F6B6","019cf481-a2d7-7233-958e-de81af9c52f7","019cf064-09e4-79bc-8453-421c166e6722","","null","<div style=""background-color: white; width: 100vw; height: 100vh;""></div>","null","","","","","","","","",""
"","","","","","html-keyboard-response","164","591936","0.0-164.0","F86A11484A2B4FD1A0C75F211240F6B6","019cf481-a2d7-7233-958e-de81af9c52f7","019cf064-09e4-79bc-8453-421c166e6722","","null","
                <div class=""stimulus-container"">
                    <img src=""images/schematic_sequence/restaurant_scheme/restaurant_scheme_1.png"" class=""exp-image"">
                    <div class=""question-area""></div> 
                </div>","null","","","","","","","","",""
"","","","","","html-button-response","165","592504","0.0-165.0","F86A11484A2B4FD1A0C75F211240F6B6","019cf481-a2d7-7233-958e-de81af9c52f7","019cf064-09e4-79bc-8453-421c166e6722","","567","
                <div class=""stimulus-container"">
                    <img src=""images/schematic_sequence/restaurant_scheme/restaurant_scheme_1.png"" class=""exp-image"">
                    <div class=""question-area"">
                        <p style=""font-size: 20px; font-weight: bold; margin: 0;"">Is there a person in this image?</p>
                    </div>
                </div>","0","main_experiment_trial","1","restaurant_scheme","schematic_sequence","","","","",""
"","","","","","html-keyboard-response","166","597506","0.0-166.0","F86A11484A2B4FD1A0C75F211240F6B6","019cf481-a2d7-7233-958e-de81af9c52f7","019cf064-09e4-79bc-8453-421c166e6722","","null","
                <div class=""stimulus-container"">
                    <img src=""images/schematic_sequence/restaurant_scheme/restaurant_scheme_2.png"" class=""exp-image"">
                    <div class=""question-area""></div> 
                </div>","null","","","","","","","","",""
"","","","","","html-button-response","167","600384","0.0-167.0","F86A11484A2B4FD1A0C75F211240F6B6","019cf481-a2d7-7233-958e-de81af9c52f7","019cf064-09e4-79bc-8453-421c166e6722","","2878","
                <div class=""stimulus-container"">
                    <img src=""images/schematic_sequence/restaurant_scheme/restaurant_scheme_2.png"" class=""exp-image"">
                    <div class=""question-area"">
                        <p style=""font-size: 20px; font-weight: bold; margin: 0;"">Is there a person in this image?</p>
                    </div>
                </div>","1","main_experiment_trial","2","restaurant_scheme","schematic_sequence","","","","",""
"","","","","","html-keyboard-response","168","605401","0.0-168.0","F86A11484A2B4FD1A0C75F211240F6B6","019cf481-a2d7-7233-958e-de81af9c52f7","019cf064-09e4-79bc-8453-421c166e6722","","null","
                <div class=""stimulus-container"">
                    <img src=""images/schematic_sequence/restaurant_scheme/restaurant_scheme_3.png"" class=""exp-image"">
                    <div class=""question-area""></div> 
                </div>","null","","","","","","","","",""
"","","","","","html-button-response","169","606517","0.0-169.0","F86A11484A2B4FD1A0C75F211240F6B6","019cf481-a2d7-7233-958e-de81af9c52f7","019cf064-09e4-79bc-8453-421c166e6722","","1115","
                <div class=""stimulus-container"">
                    <img src=""images/schematic_sequence/restaurant_scheme/restaurant_scheme_3.png"" class=""exp-image"">
                    <div class=""question-area"">
                        <p style=""font-size: 20px; font-weight: bold; margin: 0;"">Is there a person in this image?</p>
                    </div>
                </div>","1","main_experiment_trial","3","restaurant_scheme","schematic_sequence","","","","",""
"","","","","","html-keyboard-response","170","611532","0.0-170.0","F86A11484A2B4FD1A0C75F211240F6B6","019cf481-a2d7-7233-958e-de81af9c52f7","019cf064-09e4-79bc-8453-421c166e6722","","null","
                <div class=""stimulus-container"">
                    <img src=""images/schematic_sequence/restaurant_scheme/restaurant_scheme_4.png"" class=""exp-image"">
                    <div class=""question-area""></div> 
                </div>","null","","","","","","","","",""
"","","","","","html-button-response","171","612930","0.0-171.0","F86A11484A2B4FD1A0C75F211240F6B6","019cf481-a2d7-7233-958e-de81af9c52f7","019cf064-09e4-79bc-8453-421c166e6722","","1397","
                <div class=""stimulus-container"">
                    <img src=""images/schematic_sequence/restaurant_scheme/restaurant_scheme_4.png"" class=""exp-image"">
                    <div class=""question-area"">
                        <p style=""font-size: 20px; font-weight: bold; margin: 0;"">Is there a person in this image?</p>
                    </div>
                </div>","0","main_experiment_trial","4","restaurant_scheme","schematic_sequence","","","","",""
"","","","","","html-keyboard-response","172","617939","0.0-172.0","F86A11484A2B4FD1A0C75F211240F6B6","019cf481-a2d7-7233-958e-de81af9c52f7","019cf064-09e4-79bc-8453-421c166e6722","","null","
                <div class=""stimulus-container"">
                    <img src=""images/schematic_sequence/restaurant_scheme/restaurant_scheme_5.png"" class=""exp-image"">
                    <div class=""question-area""></div> 
                </div>","null","","","","","","","","",""
"","","","","","html-button-response","173","618592","0.0-173.0","F86A11484A2B4FD1A0C75F211240F6B6","019cf481-a2d7-7233-958e-de81af9c52f7","019cf064-09e4-79bc-8453-421c166e6722","","652","
                <div class=""stimulus-container"">
                    <img src=""images/schematic_sequence/restaurant_scheme/restaurant_scheme_5.png"" class=""exp-image"">
                    <div class=""question-area"">
                        <p style=""font-size: 20px; font-weight: bold; margin: 0;"">Is there a person in this image?</p>
                    </div>
                </div>","0","main_experiment_trial","5","restaurant_scheme","schematic_sequence","","","","",""
"","","","","","html-keyboard-response","174","623602","0.0-174.0","F86A11484A2B4FD1A0C75F211240F6B6","019cf481-a2d7-7233-958e-de81af9c52f7","019cf064-09e4-79bc-8453-421c166e6722","","null","
                <div class=""stimulus-container"">
                    <img src=""images/schematic_sequence/restaurant_scheme/restaurant_scheme_6.png"" class=""exp-image"">
                    <div class=""question-area""></div> 
                </div>","null","","","","","","","","",""
"","","","","","html-button-response","175","624341","0.0-175.0","F86A11484A2B4FD1A0C75F211240F6B6","019cf481-a2d7-7233-958e-de81af9c52f7","019cf064-09e4-79bc-8453-421c166e6722","","738","
                <div class=""stimulus-container"">
                    <img src=""images/schematic_sequence/restaurant_scheme/restaurant_scheme_6.png"" class=""exp-image"">
                    <div class=""question-area"">
                        <p style=""font-size: 20px; font-weight: bold; margin: 0;"">Is there a person in this image?</p>
                    </div>
                </div>","1","main_experiment_trial","6","restaurant_scheme","schematic_sequence","","","","",""
"","","","","","html-keyboard-response","176","629350","0.0-176.0","F86A11484A2B4FD1A0C75F211240F6B6","019cf481-a2d7-7233-958e-de81af9c52f7","019cf064-09e4-79bc-8453-421c166e6722","","null","
                <div class=""stimulus-container"">
                    <img src=""images/schematic_sequence/restaurant_scheme/restaurant_scheme_7.png"" class=""exp-image"">
                    <div class=""question-area""></div> 
                </div>","null","","","","","","","","",""
"","","","","","html-button-response","177","630229","0.0-177.0","F86A11484A2B4FD1A0C75F211240F6B6","019cf481-a2d7-7233-958e-de81af9c52f7","019cf064-09e4-79bc-8453-421c166e6722","","878","
                <div class=""stimulus-container"">
                    <img src=""images/schematic_sequence/restaurant_scheme/restaurant_scheme_7.png"" class=""exp-image"">
                    <div class=""question-area"">
                        <p style=""font-size: 20px; font-weight: bold; margin: 0;"">Is there a person in this image?</p>
                    </div>
                </div>","1","main_experiment_trial","7","restaurant_scheme","schematic_sequence","","","","",""
"","","","","","html-keyboard-response","178","635234","0.0-178.0","F86A11484A2B4FD1A0C75F211240F6B6","019cf481-a2d7-7233-958e-de81af9c52f7","019cf064-09e4-79bc-8453-421c166e6722","","null","
                <div class=""stimulus-container"">
                    <img src=""images/schematic_sequence/restaurant_scheme/restaurant_scheme_8.png"" class=""exp-image"">
                    <div class=""question-area""></div> 
                </div>","null","","","","","","","","",""
"","","","","","html-button-response","179","636443","0.0-179.0","F86A11484A2B4FD1A0C75F211240F6B6","019cf481-a2d7-7233-958e-de81af9c52f7","019cf064-09e4-79bc-8453-421c166e6722","","1209","
                <div class=""stimulus-container"">
                    <img src=""images/schematic_sequence/restaurant_scheme/restaurant_scheme_8.png"" class=""exp-image"">
                    <div class=""question-area"">
                        <p style=""font-size: 20px; font-weight: bold; margin: 0;"">Is there a person in this image?</p>
                    </div>
                </div>","0","main_experiment_trial","8","restaurant_scheme","schematic_sequence","","","","",""
"","","","","","html-keyboard-response","180","641444","0.0-180.0","F86A11484A2B4FD1A0C75F211240F6B6","019cf481-a2d7-7233-958e-de81af9c52f7","019cf064-09e4-79bc-8453-421c166e6722","","null","
                <div class=""stimulus-container"">
                    <img src=""images/schematic_sequence/restaurant_scheme/restaurant_scheme_9.png"" class=""exp-image"">
                    <div class=""question-area""></div> 
                </div>","null","","","","","","","","",""
"","","","","","html-button-response","181","642186","0.0-181.0","F86A11484A2B4FD1A0C75F211240F6B6","019cf481-a2d7-7233-958e-de81af9c52f7","019cf064-09e4-79bc-8453-421c166e6722","","741","
                <div class=""stimulus-container"">
                    <img src=""images/schematic_sequence/restaurant_scheme/restaurant_scheme_9.png"" class=""exp-image"">
                    <div class=""question-area"">
                        <p style=""font-size: 20px; font-weight: bold; margin: 0;"">Is there a person in this image?</p>
                    </div>
                </div>","0","main_experiment_trial","9","restaurant_scheme","schematic_sequence","","","","",""
"","","","","","html-keyboard-response","182","647189","0.0-182.0","F86A11484A2B4FD1A0C75F211240F6B6","019cf481-a2d7-7233-958e-de81af9c52f7","019cf064-09e4-79bc-8453-421c166e6722","","null","
                <div class=""stimulus-container"">
                    <img src=""images/schematic_sequence/restaurant_scheme/restaurant_scheme_ten.png"" class=""exp-image"">
                    <div class=""question-area""></div> 
                </div>","null","","","","","","","","",""
"","","","","","html-button-response","183","648588","0.0-183.0","F86A11484A2B4FD1A0C75F211240F6B6","019cf481-a2d7-7233-958e-de81af9c52f7","019cf064-09e4-79bc-8453-421c166e6722","","1398","
                <div class=""stimulus-container"">
