"success","timeout","failed_images","failed_audio","failed_video","trial_type","trial_index","time_elapsed","internal_node_id","subject_id","study_id","session_id","view_history","rt","stimulus","response","task","image_index","folder","sequence_type","valuable_image_index","reward_type","chosen_image_index","correct_choice"
"true","false","[]","[]","[]","preload","0","5212","0.0-0.0","3D404EA453E44C2085B0DCF9B08C01B0","019cee76-f747-7e37-a618-cb386e92a0e3","019cee5f-9f1f-7e58-80c1-9ba679249cc3","","","","","","","","","","","",""
"","","","","","instructions","1","8539","0.0-1.0","3D404EA453E44C2085B0DCF9B08C01B0","019cee76-f747-7e37-a618-cb386e92a0e3","019cee5f-9f1f-7e58-80c1-9ba679249cc3","[{""page_index"":0,""viewing_time"":3326}]","3326","","","","","","","","","",""
"","","","","","instructions","2","11951","0.0-2.0","3D404EA453E44C2085B0DCF9B08C01B0","019cee76-f747-7e37-a618-cb386e92a0e3","019cee5f-9f1f-7e58-80c1-9ba679249cc3","[{""page_index"":0,""viewing_time"":3412}]","3412","","","","","","","","","",""
"true","","","","","fullscreen","3","23766","0.0-3.0","3D404EA453E44C2085B0DCF9B08C01B0","019cee76-f747-7e37-a618-cb386e92a0e3","019cee5f-9f1f-7e58-80c1-9ba679249cc3","","10811","","","","","","","","","",""
"","","","","","instructions","4","37877","0.0-4.0","3D404EA453E44C2085B0DCF9B08C01B0","019cee76-f747-7e37-a618-cb386e92a0e3","019cee5f-9f1f-7e58-80c1-9ba679249cc3","[{""page_index"":0,""viewing_time"":14111}]","14111","","","","","","","","","",""
"","","","","","instructions","5","62017","0.0-5.0","3D404EA453E44C2085B0DCF9B08C01B0","019cee76-f747-7e37-a618-cb386e92a0e3","019cee5f-9f1f-7e58-80c1-9ba679249cc3","[{""page_index"":0,""viewing_time"":24139}]","24139","","","","","","","","","",""
"","","","","","html-keyboard-response","6","66020","0.0-6.0","3D404EA453E44C2085B0DCF9B08C01B0","019cee76-f747-7e37-a618-cb386e92a0e3","019cee5f-9f1f-7e58-80c1-9ba679249cc3","","null","
                <div class=""stimulus-container"">
                    <img src=""images/instructions/movie_1.png"" class=""exp-image"">
                    <div class=""question-area""></div> 
                </div>","null","","","","","","","",""
"","","","","","html-button-response","7","67902","0.0-7.0","3D404EA453E44C2085B0DCF9B08C01B0","019cee76-f747-7e37-a618-cb386e92a0e3","019cee5f-9f1f-7e58-80c1-9ba679249cc3","","1882","
                <div class=""stimulus-container"">
                    <img src=""images/instructions/movie_1.png"" class=""exp-image"">
                    <div class=""question-area"">
                        <p style=""font-size: 20px; font-weight: bold; margin: 0;"">Was there a person in this image?</p>
                    </div>
                </div>","0","example_question","1","","","","","",""
"","","","","","html-keyboard-response","8","71904","0.0-8.0","3D404EA453E44C2085B0DCF9B08C01B0","019cee76-f747-7e37-a618-cb386e92a0e3","019cee5f-9f1f-7e58-80c1-9ba679249cc3","","null","
                <div class=""stimulus-container"">
                    <img src=""images/instructions/movie_2.png"" class=""exp-image"">
                    <div class=""question-area""></div> 
                </div>","null","","","","","","","",""
"","","","","","html-button-response","9","72657","0.0-9.0","3D404EA453E44C2085B0DCF9B08C01B0","019cee76-f747-7e37-a618-cb386e92a0e3","019cee5f-9f1f-7e58-80c1-9ba679249cc3","","752","
                <div class=""stimulus-container"">
                    <img src=""images/instructions/movie_2.png"" class=""exp-image"">
                    <div class=""question-area"">
                        <p style=""font-size: 20px; font-weight: bold; margin: 0;"">Was there a person in this image?</p>
                    </div>
                </div>","0","example_question","2","","","","","",""
"","","","","","html-keyboard-response","10","76658","0.0-10.0","3D404EA453E44C2085B0DCF9B08C01B0","019cee76-f747-7e37-a618-cb386e92a0e3","019cee5f-9f1f-7e58-80c1-9ba679249cc3","","null","
                <div class=""stimulus-container"">
                    <img src=""images/instructions/movie_3.png"" class=""exp-image"">
                    <div class=""question-area""></div> 
                </div>","null","","","","","","","",""
"","","","","","html-button-response","11","77363","0.0-11.0","3D404EA453E44C2085B0DCF9B08C01B0","019cee76-f747-7e37-a618-cb386e92a0e3","019cee5f-9f1f-7e58-80c1-9ba679249cc3","","704","
                <div class=""stimulus-container"">
                    <img src=""images/instructions/movie_3.png"" class=""exp-image"">
                    <div class=""question-area"">
                        <p style=""font-size: 20px; font-weight: bold; margin: 0;"">Was there a person in this image?</p>
                    </div>
                </div>","0","example_question","3","","","","","",""
"","","","","","html-keyboard-response","12","81364","0.0-12.0","3D404EA453E44C2085B0DCF9B08C01B0","019cee76-f747-7e37-a618-cb386e92a0e3","019cee5f-9f1f-7e58-80c1-9ba679249cc3","","null","
                <div class=""stimulus-container"">
                    <img src=""images/instructions/movie_4.png"" class=""exp-image"">
                    <div class=""question-area""></div> 
                </div>","null","","","","","","","",""
"","","","","","html-button-response","13","81891","0.0-13.0","3D404EA453E44C2085B0DCF9B08C01B0","019cee76-f747-7e37-a618-cb386e92a0e3","019cee5f-9f1f-7e58-80c1-9ba679249cc3","","527","
                <div class=""stimulus-container"">
                    <img src=""images/instructions/movie_4.png"" class=""exp-image"">
                    <div class=""question-area"">
                        <p style=""font-size: 20px; font-weight: bold; margin: 0;"">Was there a person in this image?</p>
                    </div>
                </div>","0","example_question","4","","","","","",""
"","","","","","instructions","14","83444","0.0-14.0","3D404EA453E44C2085B0DCF9B08C01B0","019cee76-f747-7e37-a618-cb386e92a0e3","019cee5f-9f1f-7e58-80c1-9ba679249cc3","[{""page_index"":0,""viewing_time"":1553}]","1553","","","","","","","","","",""
"","","","","","instructions","15","89240","0.0-15.0","3D404EA453E44C2085B0DCF9B08C01B0","019cee76-f747-7e37-a618-cb386e92a0e3","019cee5f-9f1f-7e58-80c1-9ba679249cc3","[{""page_index"":0,""viewing_time"":5796}]","5796","","","","","","","","","",""
"","","","","","html-keyboard-response","16","90241","0.0-16.0","3D404EA453E44C2085B0DCF9B08C01B0","019cee76-f747-7e37-a618-cb386e92a0e3","019cee5f-9f1f-7e58-80c1-9ba679249cc3","","null","<div style=""background-color: white; width: 100vw; height: 100vh;""></div>","null","","","","","","","",""
"","","","","","html-keyboard-response","17","95242","0.0-17.0","3D404EA453E44C2085B0DCF9B08C01B0","019cee76-f747-7e37-a618-cb386e92a0e3","019cee5f-9f1f-7e58-80c1-9ba679249cc3","","null","
                <div class=""stimulus-container"">
                    <img src=""images/causal_sequence/coin_causal/coin_causal_1.png"" class=""exp-image"">
                    <div class=""question-area""></div> 
                </div>","null","","","","","","","",""
"","","","","","html-button-response","18","96273","0.0-18.0","3D404EA453E44C2085B0DCF9B08C01B0","019cee76-f747-7e37-a618-cb386e92a0e3","019cee5f-9f1f-7e58-80c1-9ba679249cc3","","1030","
                <div class=""stimulus-container"">
                    <img src=""images/causal_sequence/coin_causal/coin_causal_1.png"" class=""exp-image"">
                    <div class=""question-area"">
                        <p style=""font-size: 20px; font-weight: bold; margin: 0;"">Is there a person in this image?</p>
                    </div>
                </div>","0","main_experiment_trial","1","coin_causal","causal_sequence","","","",""
"","","","","","html-keyboard-response","19","101273","0.0-19.0","3D404EA453E44C2085B0DCF9B08C01B0","019cee76-f747-7e37-a618-cb386e92a0e3","019cee5f-9f1f-7e58-80c1-9ba679249cc3","","null","
                <div class=""stimulus-container"">
                    <img src=""images/causal_sequence/coin_causal/coin_causal_2.png"" class=""exp-image"">
                    <div class=""question-area""></div> 
                </div>","null","","","","","","","",""
"","","","","","html-button-response","20","101867","0.0-20.0","3D404EA453E44C2085B0DCF9B08C01B0","019cee76-f747-7e37-a618-cb386e92a0e3","019cee5f-9f1f-7e58-80c1-9ba679249cc3","","593","
                <div class=""stimulus-container"">
                    <img src=""images/causal_sequence/coin_causal/coin_causal_2.png"" class=""exp-image"">
                    <div class=""question-area"">
                        <p style=""font-size: 20px; font-weight: bold; margin: 0;"">Is there a person in this image?</p>
                    </div>
                </div>","0","main_experiment_trial","2","coin_causal","causal_sequence","","","",""
"","","","","","html-keyboard-response","21","106867","0.0-21.0","3D404EA453E44C2085B0DCF9B08C01B0","019cee76-f747-7e37-a618-cb386e92a0e3","019cee5f-9f1f-7e58-80c1-9ba679249cc3","","null","
                <div class=""stimulus-container"">
                    <img src=""images/causal_sequence/coin_causal/coin_causal_3.png"" class=""exp-image"">
                    <div class=""question-area""></div> 
                </div>","null","","","","","","","",""
"","","","","","html-button-response","22","107364","0.0-22.0","3D404EA453E44C2085B0DCF9B08C01B0","019cee76-f747-7e37-a618-cb386e92a0e3","019cee5f-9f1f-7e58-80c1-9ba679249cc3","","496","
                <div class=""stimulus-container"">
                    <img src=""images/causal_sequence/coin_causal/coin_causal_3.png"" class=""exp-image"">
                    <div class=""question-area"">
                        <p style=""font-size: 20px; font-weight: bold; margin: 0;"">Is there a person in this image?</p>
                    </div>
                </div>","0","main_experiment_trial","3","coin_causal","causal_sequence","","","",""
"","","","","","html-keyboard-response","23","112365","0.0-23.0","3D404EA453E44C2085B0DCF9B08C01B0","019cee76-f747-7e37-a618-cb386e92a0e3","019cee5f-9f1f-7e58-80c1-9ba679249cc3","","null","
                <div class=""stimulus-container"">
                    <img src=""images/causal_sequence/coin_causal/coin_causal_4.png"" class=""exp-image"">
                    <div class=""question-area""></div> 
                </div>","null","","","","","","","",""
"","","","","","html-button-response","24","112976","0.0-24.0","3D404EA453E44C2085B0DCF9B08C01B0","019cee76-f747-7e37-a618-cb386e92a0e3","019cee5f-9f1f-7e58-80c1-9ba679249cc3","","611","
                <div class=""stimulus-container"">
                    <img src=""images/causal_sequence/coin_causal/coin_causal_4.png"" class=""exp-image"">
                    <div class=""question-area"">
                        <p style=""font-size: 20px; font-weight: bold; margin: 0;"">Is there a person in this image?</p>
                    </div>
                </div>","0","main_experiment_trial","4","coin_causal","causal_sequence","","","",""
"","","","","","html-keyboard-response","25","117976","0.0-25.0","3D404EA453E44C2085B0DCF9B08C01B0","019cee76-f747-7e37-a618-cb386e92a0e3","019cee5f-9f1f-7e58-80c1-9ba679249cc3","","null","
                <div class=""stimulus-container"">
                    <img src=""images/causal_sequence/coin_causal/coin_causal_5.png"" class=""exp-image"">
                    <div class=""question-area""></div> 
                </div>","null","","","","","","","",""
"","","","","","html-button-response","26","118429","0.0-26.0","3D404EA453E44C2085B0DCF9B08C01B0","019cee76-f747-7e37-a618-cb386e92a0e3","019cee5f-9f1f-7e58-80c1-9ba679249cc3","","452","
                <div class=""stimulus-container"">
                    <img src=""images/causal_sequence/coin_causal/coin_causal_5.png"" class=""exp-image"">
                    <div class=""question-area"">
                        <p style=""font-size: 20px; font-weight: bold; margin: 0;"">Is there a person in this image?</p>
                    </div>
                </div>","0","main_experiment_trial","5","coin_causal","causal_sequence","","","",""
"","","","","","html-keyboard-response","27","123430","0.0-27.0","3D404EA453E44C2085B0DCF9B08C01B0","019cee76-f747-7e37-a618-cb386e92a0e3","019cee5f-9f1f-7e58-80c1-9ba679249cc3","","null","
                <div class=""stimulus-container"">
                    <img src=""images/causal_sequence/coin_causal/coin_causal_6.png"" class=""exp-image"">
                    <div class=""question-area""></div> 
                </div>","null","","","","","","","",""
"","","","","","html-button-response","28","123919","0.0-28.0","3D404EA453E44C2085B0DCF9B08C01B0","019cee76-f747-7e37-a618-cb386e92a0e3","019cee5f-9f1f-7e58-80c1-9ba679249cc3","","488","
                <div class=""stimulus-container"">
                    <img src=""images/causal_sequence/coin_causal/coin_causal_6.png"" class=""exp-image"">
                    <div class=""question-area"">
                        <p style=""font-size: 20px; font-weight: bold; margin: 0;"">Is there a person in this image?</p>
                    </div>
                </div>","0","main_experiment_trial","6","coin_causal","causal_sequence","","","",""
"","","","","","html-keyboard-response","29","128919","0.0-29.0","3D404EA453E44C2085B0DCF9B08C01B0","019cee76-f747-7e37-a618-cb386e92a0e3","019cee5f-9f1f-7e58-80c1-9ba679249cc3","","null","
                <div class=""stimulus-container"">
                    <img src=""images/causal_sequence/coin_causal/coin_causal_7.png"" class=""exp-image"">
                    <div class=""question-area""></div> 
                </div>","null","","","","","","","",""
"","","","","","html-button-response","30","129378","0.0-30.0","3D404EA453E44C2085B0DCF9B08C01B0","019cee76-f747-7e37-a618-cb386e92a0e3","019cee5f-9f1f-7e58-80c1-9ba679249cc3","","458","
                <div class=""stimulus-container"">
                    <img src=""images/causal_sequence/coin_causal/coin_causal_7.png"" class=""exp-image"">
                    <div class=""question-area"">
                        <p style=""font-size: 20px; font-weight: bold; margin: 0;"">Is there a person in this image?</p>
                    </div>
                </div>","1","main_experiment_trial","7","coin_causal","causal_sequence","","","",""
"","","","","","html-keyboard-response","31","134379","0.0-31.0","3D404EA453E44C2085B0DCF9B08C01B0","019cee76-f747-7e37-a618-cb386e92a0e3","019cee5f-9f1f-7e58-80c1-9ba679249cc3","","null","
                <div class=""stimulus-container"">
                    <img src=""images/causal_sequence/coin_causal/coin_causal_8.png"" class=""exp-image"">
                    <div class=""question-area""></div> 
                </div>","null","","","","","","","",""
"","","","","","html-button-response","32","135303","0.0-32.0","3D404EA453E44C2085B0DCF9B08C01B0","019cee76-f747-7e37-a618-cb386e92a0e3","019cee5f-9f1f-7e58-80c1-9ba679249cc3","","924","
                <div class=""stimulus-container"">
                    <img src=""images/causal_sequence/coin_causal/coin_causal_8.png"" class=""exp-image"">
                    <div class=""question-area"">
                        <p style=""font-size: 20px; font-weight: bold; margin: 0;"">Is there a person in this image?</p>
                    </div>
                </div>","0","main_experiment_trial","8","coin_causal","causal_sequence","","","",""
"","","","","","html-keyboard-response","33","140305","0.0-33.0","3D404EA453E44C2085B0DCF9B08C01B0","019cee76-f747-7e37-a618-cb386e92a0e3","019cee5f-9f1f-7e58-80c1-9ba679249cc3","","null","
                <div class=""stimulus-container"">
                    <img src=""images/causal_sequence/coin_causal/coin_causal_9.png"" class=""exp-image"">
                    <div class=""question-area""></div> 
                </div>","null","","","","","","","",""
"","","","","","html-button-response","34","141203","0.0-34.0","3D404EA453E44C2085B0DCF9B08C01B0","019cee76-f747-7e37-a618-cb386e92a0e3","019cee5f-9f1f-7e58-80c1-9ba679249cc3","","897","
                <div class=""stimulus-container"">
                    <img src=""images/causal_sequence/coin_causal/coin_causal_9.png"" class=""exp-image"">
                    <div class=""question-area"">
                        <p style=""font-size: 20px; font-weight: bold; margin: 0;"">Is there a person in this image?</p>
                    </div>
                </div>","0","main_experiment_trial","9","coin_causal","causal_sequence","","","",""
"","","","","","html-keyboard-response","35","146204","0.0-35.0","3D404EA453E44C2085B0DCF9B08C01B0","019cee76-f747-7e37-a618-cb386e92a0e3","019cee5f-9f1f-7e58-80c1-9ba679249cc3","","null","
                <div class=""stimulus-container"">
                    <img src=""images/causal_sequence/coin_causal/coin_causal_ten.png"" class=""exp-image"">
                    <div class=""question-area""></div> 
                </div>","null","","","","","","","",""
"","","","","","html-button-response","36","146650","0.0-36.0","3D404EA453E44C2085B0DCF9B08C01B0","019cee76-f747-7e37-a618-cb386e92a0e3","019cee5f-9f1f-7e58-80c1-9ba679249cc3","","445","
                <div class=""stimulus-container"">
                    <img src=""images/causal_sequence/coin_causal/coin_causal_ten.png"" class=""exp-image"">
                    <div class=""question-area"">
                        <p style=""font-size: 20px; font-weight: bold; margin: 0;"">Is there a person in this image?</p>
                    </div>
                </div>","0","main_experiment_trial","ten","coin_causal","causal_sequence","","","",""
"","","","","","html-keyboard-response","37","147651","0.0-37.0","3D404EA453E44C2085B0DCF9B08C01B0","019cee76-f747-7e37-a618-cb386e92a0e3","019cee5f-9f1f-7e58-80c1-9ba679249cc3","","null","<div style=""background-color: white; width: 100vw; height: 100vh;""></div>","null","","","","","","","",""
"","","","","","html-keyboard-response","38","152653","0.0-38.0","3D404EA453E44C2085B0DCF9B08C01B0","019cee76-f747-7e37-a618-cb386e92a0e3","019cee5f-9f1f-7e58-80c1-9ba679249cc3","","null","
                <div class=""stimulus-container"">
                    <img src=""images/schematic_sequence/supermarket_scheme/supermarket_scheme_1.png"" class=""exp-image"">
                    <div class=""question-area""></div> 
                </div>","null","","","","","","","",""
"","","","","","html-button-response","39","153498","0.0-39.0","3D404EA453E44C2085B0DCF9B08C01B0","019cee76-f747-7e37-a618-cb386e92a0e3","019cee5f-9f1f-7e58-80c1-9ba679249cc3","","844","
                <div class=""stimulus-container"">
                    <img src=""images/schematic_sequence/supermarket_scheme/supermarket_scheme_1.png"" class=""exp-image"">
                    <div class=""question-area"">
                        <p style=""font-size: 20px; font-weight: bold; margin: 0;"">Is there a person in this image?</p>
                    </div>
                </div>","1","main_experiment_trial","1","supermarket_scheme","schematic_sequence","","","",""
"","","","","","html-keyboard-response","40","158500","0.0-40.0","3D404EA453E44C2085B0DCF9B08C01B0","019cee76-f747-7e37-a618-cb386e92a0e3","019cee5f-9f1f-7e58-80c1-9ba679249cc3","","null","
                <div class=""stimulus-container"">
                    <img src=""images/schematic_sequence/supermarket_scheme/supermarket_scheme_2.png"" class=""exp-image"">
                    <div class=""question-area""></div> 
                </div>","null","","","","","","","",""
"","","","","","html-button-response","41","159185","0.0-41.0","3D404EA453E44C2085B0DCF9B08C01B0","019cee76-f747-7e37-a618-cb386e92a0e3","019cee5f-9f1f-7e58-80c1-9ba679249cc3","","685","
                <div class=""stimulus-container"">
                    <img src=""images/schematic_sequence/supermarket_scheme/supermarket_scheme_2.png"" class=""exp-image"">
                    <div class=""question-area"">
                        <p style=""font-size: 20px; font-weight: bold; margin: 0;"">Is there a person in this image?</p>
                    </div>
                </div>","1","main_experiment_trial","2","supermarket_scheme","schematic_sequence","","","",""
"","","","","","html-keyboard-response","42","164186","0.0-42.0","3D404EA453E44C2085B0DCF9B08C01B0","019cee76-f747-7e37-a618-cb386e92a0e3","019cee5f-9f1f-7e58-80c1-9ba679249cc3","","null","
                <div class=""stimulus-container"">
                    <img src=""images/schematic_sequence/supermarket_scheme/supermarket_scheme_3.png"" class=""exp-image"">
                    <div class=""question-area""></div> 
                </div>","null","","","","","","","",""
"","","","","","html-button-response","43","164621","0.0-43.0","3D404EA453E44C2085B0DCF9B08C01B0","019cee76-f747-7e37-a618-cb386e92a0e3","019cee5f-9f1f-7e58-80c1-9ba679249cc3","","435","
                <div class=""stimulus-container"">
                    <img src=""images/schematic_sequence/supermarket_scheme/supermarket_scheme_3.png"" class=""exp-image"">
                    <div class=""question-area"">
                        <p style=""font-size: 20px; font-weight: bold; margin: 0;"">Is there a person in this image?</p>
                    </div>
                </div>","1","main_experiment_trial","3","supermarket_scheme","schematic_sequence","","","",""
"","","","","","html-keyboard-response","44","169622","0.0-44.0","3D404EA453E44C2085B0DCF9B08C01B0","019cee76-f747-7e37-a618-cb386e92a0e3","019cee5f-9f1f-7e58-80c1-9ba679249cc3","","null","
                <div class=""stimulus-container"">
                    <img src=""images/schematic_sequence/supermarket_scheme/supermarket_scheme_4.png"" class=""exp-image"">
                    <div class=""question-area""></div> 
                </div>","null","","","","","","","",""
"","","","","","html-button-response","45","170298","0.0-45.0","3D404EA453E44C2085B0DCF9B08C01B0","019cee76-f747-7e37-a618-cb386e92a0e3","019cee5f-9f1f-7e58-80c1-9ba679249cc3","","676","
                <div class=""stimulus-container"">
                    <img src=""images/schematic_sequence/supermarket_scheme/supermarket_scheme_4.png"" class=""exp-image"">
                    <div class=""question-area"">
                        <p style=""font-size: 20px; font-weight: bold; margin: 0;"">Is there a person in this image?</p>
                    </div>
                </div>","0","main_experiment_trial","4","supermarket_scheme","schematic_sequence","","","",""
"","","","","","html-keyboard-response","46","175300","0.0-46.0","3D404EA453E44C2085B0DCF9B08C01B0","019cee76-f747-7e37-a618-cb386e92a0e3","019cee5f-9f1f-7e58-80c1-9ba679249cc3","","null","
                <div class=""stimulus-container"">
                    <img src=""images/schematic_sequence/supermarket_scheme/supermarket_scheme_5.png"" class=""exp-image"">
                    <div class=""question-area""></div> 
                </div>","null","","","","","","","",""
"","","","","","html-button-response","47","176459","0.0-47.0","3D404EA453E44C2085B0DCF9B08C01B0","019cee76-f747-7e37-a618-cb386e92a0e3","019cee5f-9f1f-7e58-80c1-9ba679249cc3","","1159","
                <div class=""stimulus-container"">
                    <img src=""images/schematic_sequence/supermarket_scheme/supermarket_scheme_5.png"" class=""exp-image"">
                    <div class=""question-area"">
                        <p style=""font-size: 20px; font-weight: bold; margin: 0;"">Is there a person in this image?</p>
                    </div>
                </div>","1","main_experiment_trial","5","supermarket_scheme","schematic_sequence","","","",""
"","","","","","html-keyboard-response","48","181460","0.0-48.0","3D404EA453E44C2085B0DCF9B08C01B0","019cee76-f747-7e37-a618-cb386e92a0e3","019cee5f-9f1f-7e58-80c1-9ba679249cc3","","null","
                <div class=""stimulus-container"">
                    <img src=""images/schematic_sequence/supermarket_scheme/supermarket_scheme_6.png"" class=""exp-image"">
                    <div class=""question-area""></div> 
                </div>","null","","","","","","","",""
"","","","","","html-button-response","49","183106","0.0-49.0","3D404EA453E44C2085B0DCF9B08C01B0","019cee76-f747-7e37-a618-cb386e92a0e3","019cee5f-9f1f-7e58-80c1-9ba679249cc3","","1646","
                <div class=""stimulus-container"">
                    <img src=""images/schematic_sequence/supermarket_scheme/supermarket_scheme_6.png"" class=""exp-image"">
                    <div class=""question-area"">
                        <p style=""font-size: 20px; font-weight: bold; margin: 0;"">Is there a person in this image?</p>
                    </div>
                </div>","0","main_experiment_trial","6","supermarket_scheme","schematic_sequence","","","",""
"","","","","","html-keyboard-response","50","188108","0.0-50.0","3D404EA453E44C2085B0DCF9B08C01B0","019cee76-f747-7e37-a618-cb386e92a0e3","019cee5f-9f1f-7e58-80c1-9ba679249cc3","","null","
                <div class=""stimulus-container"">
                    <img src=""images/schematic_sequence/supermarket_scheme/supermarket_scheme_7.png"" class=""exp-image"">
                    <div class=""question-area""></div> 
                </div>","null","","","","","","","",""
"","","","","","html-button-response","51","188947","0.0-51.0","3D404EA453E44C2085B0DCF9B08C01B0","019cee76-f747-7e37-a618-cb386e92a0e3","019cee5f-9f1f-7e58-80c1-9ba679249cc3","","839","
                <div class=""stimulus-container"">
                    <img src=""images/schematic_sequence/supermarket_scheme/supermarket_scheme_7.png"" class=""exp-image"">
                    <div class=""question-area"">
                        <p style=""font-size: 20px; font-weight: bold; margin: 0;"">Is there a person in this image?</p>
                    </div>
                </div>","0","main_experiment_trial","7","supermarket_scheme","schematic_sequence","","","",""
"","","","","","html-keyboard-response","52","193948","0.0-52.0","3D404EA453E44C2085B0DCF9B08C01B0","019cee76-f747-7e37-a618-cb386e92a0e3","019cee5f-9f1f-7e58-80c1-9ba679249cc3","","null","
                <div class=""stimulus-container"">
                    <img src=""images/schematic_sequence/supermarket_scheme/supermarket_scheme_8.png"" class=""exp-image"">
                    <div class=""question-area""></div> 
                </div>","null","","","","","","","",""
"","","","","","html-button-response","53","194428","0.0-53.0","3D404EA453E44C2085B0DCF9B08C01B0","019cee76-f747-7e37-a618-cb386e92a0e3","019cee5f-9f1f-7e58-80c1-9ba679249cc3","","479","
                <div class=""stimulus-container"">
                    <img src=""images/schematic_sequence/supermarket_scheme/supermarket_scheme_8.png"" class=""exp-image"">
                    <div class=""question-area"">
                        <p style=""font-size: 20px; font-weight: bold; margin: 0;"">Is there a person in this image?</p>
                    </div>
                </div>","0","main_experiment_trial","8","supermarket_scheme","schematic_sequence","","","",""
"","","","","","html-keyboard-response","54","199430","0.0-54.0","3D404EA453E44C2085B0DCF9B08C01B0","019cee76-f747-7e37-a618-cb386e92a0e3","019cee5f-9f1f-7e58-80c1-9ba679249cc3","","null","
                <div class=""stimulus-container"">
                    <img src=""images/schematic_sequence/supermarket_scheme/supermarket_scheme_9.png"" class=""exp-image"">
                    <div class=""question-area""></div> 
                </div>","null","","","","","","","",""
"","","","","","html-button-response","55","199884","0.0-55.0","3D404EA453E44C2085B0DCF9B08C01B0","019cee76-f747-7e37-a618-cb386e92a0e3","019cee5f-9f1f-7e58-80c1-9ba679249cc3","","454","
                <div class=""stimulus-container"">
                    <img src=""images/schematic_sequence/supermarket_scheme/supermarket_scheme_9.png"" class=""exp-image"">
                    <div class=""question-area"">
                        <p style=""font-size: 20px; font-weight: bold; margin: 0;"">Is there a person in this image?</p>
                    </div>
                </div>","0","main_experiment_trial","9","supermarket_scheme","schematic_sequence","","","",""
"","","","","","html-keyboard-response","56","204886","0.0-56.0","3D404EA453E44C2085B0DCF9B08C01B0","019cee76-f747-7e37-a618-cb386e92a0e3","019cee5f-9f1f-7e58-80c1-9ba679249cc3","","null","
                <div class=""stimulus-container"">
                    <img src=""images/schematic_sequence/supermarket_scheme/supermarket_scheme_ten.png"" class=""exp-image"">
                    <div class=""question-area""></div> 
                </div>","null","","","","","","","",""
"","","","","","html-button-response","57","205325","0.0-57.0","3D404EA453E44C2085B0DCF9B08C01B0","019cee76-f747-7e37-a618-cb386e92a0e3","019cee5f-9f1f-7e58-80c1-9ba679249cc3","","439","
                <div class=""stimulus-container"">
                    <img src=""images/schematic_sequence/supermarket_scheme/supermarket_scheme_ten.png"" class=""exp-image"">
                    <div class=""question-area"">
                        <p style=""font-size: 20px; font-weight: bold; margin: 0;"">Is there a person in this image?</p>
                    </div>
                </div>","1","main_experiment_trial","ten","supermarket_scheme","schematic_sequence","","","",""
"","","","","","html-keyboard-response","58","206327","0.0-58.0","3D404EA453E44C2085B0DCF9B08C01B0","019cee76-f747-7e37-a618-cb386e92a0e3","019cee5f-9f1f-7e58-80c1-9ba679249cc3","","null","<div style=""background-color: white; width: 100vw; height: 100vh;""></div>","null","","","","","","","",""
"","","","","","html-keyboard-response","59","211329","0.0-59.0","3D404EA453E44C2085B0DCF9B08C01B0","019cee76-f747-7e37-a618-cb386e92a0e3","019cee5f-9f1f-7e58-80c1-9ba679249cc3","","null","
                <div class=""stimulus-container"">
                    <img src=""images/schematic_sequence/restaurant_scheme/restaurant_scheme_1.png"" class=""exp-image"">
                    <div class=""question-area""></div> 
                </div>","null","","","","","","","",""
"","","","","","html-button-response","60","212382","0.0-60.0","3D404EA453E44C2085B0DCF9B08C01B0","019cee76-f747-7e37-a618-cb386e92a0e3","019cee5f-9f1f-7e58-80c1-9ba679249cc3","","1053","
                <div class=""stimulus-container"">
                    <img src=""images/schematic_sequence/restaurant_scheme/restaurant_scheme_1.png"" class=""exp-image"">
                    <div class=""question-area"">
                        <p style=""font-size: 20px; font-weight: bold; margin: 0;"">Is there a person in this image?</p>
                    </div>
                </div>","0","main_experiment_trial","1","restaurant_scheme","schematic_sequence","","","",""
"","","","","","html-keyboard-response","61","217383","0.0-61.0","3D404EA453E44C2085B0DCF9B08C01B0","019cee76-f747-7e37-a618-cb386e92a0e3","019cee5f-9f1f-7e58-80c1-9ba679249cc3","","null","
                <div class=""stimulus-container"">
                    <img src=""images/schematic_sequence/restaurant_scheme/restaurant_scheme_2.png"" class=""exp-image"">
                    <div class=""question-area""></div> 
                </div>","null","","","","","","","",""
"","","","","","html-button-response","62","217954","0.0-62.0","3D404EA453E44C2085B0DCF9B08C01B0","019cee76-f747-7e37-a618-cb386e92a0e3","019cee5f-9f1f-7e58-80c1-9ba679249cc3","","571","
                <div class=""stimulus-container"">
                    <img src=""images/schematic_sequence/restaurant_scheme/restaurant_scheme_2.png"" class=""exp-image"">
                    <div class=""question-area"">
                        <p style=""font-size: 20px; font-weight: bold; margin: 0;"">Is there a person in this image?</p>
                    </div>
                </div>","1","main_experiment_trial","2","restaurant_scheme","schematic_sequence","","","",""
"","","","","","html-keyboard-response","63","222956","0.0-63.0","3D404EA453E44C2085B0DCF9B08C01B0","019cee76-f747-7e37-a618-cb386e92a0e3","019cee5f-9f1f-7e58-80c1-9ba679249cc3","","null","
                <div class=""stimulus-container"">
                    <img src=""images/schematic_sequence/restaurant_scheme/restaurant_scheme_3.png"" class=""exp-image"">
                    <div class=""question-area""></div> 
                </div>","null","","","","","","","",""
"","","","","","html-button-response","64","223392","0.0-64.0","3D404EA453E44C2085B0DCF9B08C01B0","019cee76-f747-7e37-a618-cb386e92a0e3","019cee5f-9f1f-7e58-80c1-9ba679249cc3","","435","
                <div class=""stimulus-container"">
                    <img src=""images/schematic_sequence/restaurant_scheme/restaurant_scheme_3.png"" class=""exp-image"">
                    <div class=""question-area"">
                        <p style=""font-size: 20px; font-weight: bold; margin: 0;"">Is there a person in this image?</p>
                    </div>
                </div>","1","main_experiment_trial","3","restaurant_scheme","schematic_sequence","","","",""
"","","","","","html-keyboard-response","65","228393","0.0-65.0","3D404EA453E44C2085B0DCF9B08C01B0","019cee76-f747-7e37-a618-cb386e92a0e3","019cee5f-9f1f-7e58-80c1-9ba679249cc3","","null","
                <div class=""stimulus-container"">
                    <img src=""images/schematic_sequence/restaurant_scheme/restaurant_scheme_4.png"" class=""exp-image"">
                    <div class=""question-area""></div> 
                </div>","null","","","","","","","",""
"","","","","","html-button-response","66","229473","0.0-66.0","3D404EA453E44C2085B0DCF9B08C01B0","019cee76-f747-7e37-a618-cb386e92a0e3","019cee5f-9f1f-7e58-80c1-9ba679249cc3","","1080","
                <div class=""stimulus-container"">
                    <img src=""images/schematic_sequence/restaurant_scheme/restaurant_scheme_4.png"" class=""exp-image"">
                    <div class=""question-area"">
                        <p style=""font-size: 20px; font-weight: bold; margin: 0;"">Is there a person in this image?</p>
                    </div>
                </div>","0","main_experiment_trial","4","restaurant_scheme","schematic_sequence","","","",""
"","","","","","html-keyboard-response","67","234475","0.0-67.0","3D404EA453E44C2085B0DCF9B08C01B0","019cee76-f747-7e37-a618-cb386e92a0e3","019cee5f-9f1f-7e58-80c1-9ba679249cc3","","null","
                <div class=""stimulus-container"">
                    <img src=""images/schematic_sequence/restaurant_scheme/restaurant_scheme_5.png"" class=""exp-image"">
                    <div class=""question-area""></div> 
                </div>","null","","","","","","","",""
"","","","","","html-button-response","68","235479","0.0-68.0","3D404EA453E44C2085B0DCF9B08C01B0","019cee76-f747-7e37-a618-cb386e92a0e3","019cee5f-9f1f-7e58-80c1-9ba679249cc3","","1003","
                <div class=""stimulus-container"">
                    <img src=""images/schematic_sequence/restaurant_scheme/restaurant_scheme_5.png"" class=""exp-image"">
                    <div class=""question-area"">
                        <p style=""font-size: 20px; font-weight: bold; margin: 0;"">Is there a person in this image?</p>
                    </div>
                </div>","0","main_experiment_trial","5","restaurant_scheme","schematic_sequence","","","",""
"","","","","","html-keyboard-response","69","240480","0.0-69.0","3D404EA453E44C2085B0DCF9B08C01B0","019cee76-f747-7e37-a618-cb386e92a0e3","019cee5f-9f1f-7e58-80c1-9ba679249cc3","","null","
                <div class=""stimulus-container"">
                    <img src=""images/schematic_sequence/restaurant_scheme/restaurant_scheme_6.png"" class=""exp-image"">
                    <div class=""question-area""></div> 
                </div>","null","","","","","","","",""
"","","","","","html-button-response","70","241712","0.0-70.0","3D404EA453E44C2085B0DCF9B08C01B0","019cee76-f747-7e37-a618-cb386e92a0e3","019cee5f-9f1f-7e58-80c1-9ba679249cc3","","1231","
                <div class=""stimulus-container"">
                    <img src=""images/schematic_sequence/restaurant_scheme/restaurant_scheme_6.png"" class=""exp-image"">
                    <div class=""question-area"">
                        <p style=""font-size: 20px; font-weight: bold; margin: 0;"">Is there a person in this image?</p>
                    </div>
                </div>","1","main_experiment_trial","6","restaurant_scheme","schematic_sequence","","","",""
"","","","","","html-keyboard-response","71","246713","0.0-71.0","3D404EA453E44C2085B0DCF9B08C01B0","019cee76-f747-7e37-a618-cb386e92a0e3","019cee5f-9f1f-7e58-80c1-9ba679249cc3","","null","
                <div class=""stimulus-container"">
                    <img src=""images/schematic_sequence/restaurant_scheme/restaurant_scheme_7.png"" class=""exp-image"">
                    <div class=""question-area""></div> 
                </div>","null","","","","","","","",""
"","","","","","html-button-response","72","248158","0.0-72.0","3D404EA453E44C2085B0DCF9B08C01B0","019cee76-f747-7e37-a618-cb386e92a0e3","019cee5f-9f1f-7e58-80c1-9ba679249cc3","","1444","
                <div class=""stimulus-container"">
                    <img src=""images/schematic_sequence/restaurant_scheme/restaurant_scheme_7.png"" class=""exp-image"">
                    <div class=""question-area"">
                        <p style=""font-size: 20px; font-weight: bold; margin: 0;"">Is there a person in this image?</p>
                    </div>
                </div>","1","main_experiment_trial","7","restaurant_scheme","schematic_sequence","","","",""
"","","","","","html-keyboard-response","73","253159","0.0-73.0","3D404EA453E44C2085B0DCF9B08C01B0","019cee76-f747-7e37-a618-cb386e92a0e3","019cee5f-9f1f-7e58-80c1-9ba679249cc3","","null","
                <div class=""stimulus-container"">
                    <img src=""images/schematic_sequence/restaurant_scheme/restaurant_scheme_8.png"" class=""exp-image"">
                    <div class=""question-area""></div> 
                </div>","null","","","","","","","",""
"","","","","","html-button-response","74","255931","0.0-74.0","3D404EA453E44C2085B0DCF9B08C01B0","019cee76-f747-7e37-a618-cb386e92a0e3","019cee5f-9f1f-7e58-80c1-9ba679249cc3","","2771","
                <div class=""stimulus-container"">
                    <img src=""images/schematic_sequence/restaurant_scheme/restaurant_scheme_8.png"" class=""exp-image"">
                    <div class=""question-area"">
                        <p style=""font-size: 20px; font-weight: bold; margin: 0;"">Is there a person in this image?</p>
                    </div>
                </div>","0","main_experiment_trial","8","restaurant_scheme","schematic_sequence","","","",""
"","","","","","html-keyboard-response","75","260932","0.0-75.0","3D404EA453E44C2085B0DCF9B08C01B0","019cee76-f747-7e37-a618-cb386e92a0e3","019cee5f-9f1f-7e58-80c1-9ba679249cc3","","null","
                <div class=""stimulus-container"">
                    <img src=""images/schematic_sequence/restaurant_scheme/restaurant_scheme_9.png"" class=""exp-image"">
                    <div class=""question-area""></div> 
                </div>","null","","","","","","","",""
"","","","","","html-button-response","76","262224","0.0-76.0","3D404EA453E44C2085B0DCF9B08C01B0","019cee76-f747-7e37-a618-cb386e92a0e3","019cee5f-9f1f-7e58-80c1-9ba679249cc3","","1291","
                <div class=""stimulus-container"">
                    <img src=""images/schematic_sequence/restaurant_scheme/restaurant_scheme_9.png"" class=""exp-image"">
                    <div class=""question-area"">
                        <p style=""font-size: 20px; font-weight: bold; margin: 0;"">Is there a person in this image?</p>
                    </div>
                </div>","0","main_experiment_trial","9","restaurant_scheme","schematic_sequence","","","",""
"","","","","","html-keyboard-response","77","267224","0.0-77.0","3D404EA453E44C2085B0DCF9B08C01B0","019cee76-f747-7e37-a618-cb386e92a0e3","019cee5f-9f1f-7e58-80c1-9ba679249cc3","","null","
                <div class=""stimulus-container"">
                    <img src=""images/schematic_sequence/restaurant_scheme/restaurant_scheme_ten.png"" class=""exp-image"">
                    <div class=""question-area""></div> 
                </div>","null","","","","","","","",""
"","","","","","html-button-response","78","270120","0.0-78.0","3D404EA453E44C2085B0DCF9B08C01B0","019cee76-f747-7e37-a618-cb386e92a0e3","019cee5f-9f1f-7e58-80c1-9ba679249cc3","","2895","
                <div class=""stimulus-container"">
                    <img src=""images/schematic_sequence/restaurant_scheme/restaurant_scheme_ten.png"" class=""exp-image"">
                    <div class=""question-area"">
                        <p style=""font-size: 20px; font-weight: bold; margin: 0;"">Is there a person in this image?</p>
                    </div>
                </div>","0","main_experiment_trial","ten","restaurant_scheme","schematic_sequence","","","",""
"","","","","","html-keyboard-response","79","271122","0.0-79.0","3D404EA453E44C2085B0DCF9B08C01B0","019cee76-f747-7e37-a618-cb386e92a0e3","019cee5f-9f1f-7e58-80c1-9ba679249cc3","","null","<div style=""background-color: white; width: 100vw; height: 100vh;""></div>","null","","","","","","","",""
"","","","","","html-keyboard-response","80","276123","0.0-80.0","3D404EA453E44C2085B0DCF9B08C01B0","019cee76-f747-7e37-a618-cb386e92a0e3","019cee5f-9f1f-7e58-80c1-9ba679249cc3","","null","
                <div class=""stimulus-container"">
                    <img src=""images/causal_sequence/saving_a_cat_causal/saving_a_cat_causal_1.png"" class=""exp-image"">
                    <div class=""question-area""></div> 
                </div>","null","","","","","","","",""
"","","","","","html-button-response","81","276549","0.0-81.0","3D404EA453E44C2085B0DCF9B08C01B0","019cee76-f747-7e37-a618-cb386e92a0e3","019cee5f-9f1f-7e58-80c1-9ba679249cc3","","425","
                <div class=""stimulus-container"">
                    <img src=""images/causal_sequence/saving_a_cat_causal/saving_a_cat_causal_1.png"" class=""exp-image"">
                    <div class=""question-area"">
                        <p style=""font-size: 20px; font-weight: bold; margin: 0;"">Is there a person in this image?</p>
                    </div>
                </div>","0","main_experiment_trial","1","saving_a_cat_causal","causal_sequence","","","",""
"","","","","","html-keyboard-response","82","281549","0.0-82.0","3D404EA453E44C2085B0DCF9B08C01B0","019cee76-f747-7e37-a618-cb386e92a0e3","019cee5f-9f1f-7e58-80c1-9ba679249cc3","","null","
                <div class=""stimulus-container"">
                    <img src=""images/causal_sequence/saving_a_cat_causal/saving_a_cat_causal_2.png"" class=""exp-image"">
                    <div class=""question-area""></div> 
                </div>","null","","","","","","","",""
"","","","","","html-button-response","83","282701","0.0-83.0","3D404EA453E44C2085B0DCF9B08C01B0","019cee76-f747-7e37-a618-cb386e92a0e3","019cee5f-9f1f-7e58-80c1-9ba679249cc3","","1151","
                <div class=""stimulus-container"">
                    <img src=""images/causal_sequence/saving_a_cat_causal/saving_a_cat_causal_2.png"" class=""exp-image"">
                    <div class=""question-area"">
                        <p style=""font-size: 20px; font-weight: bold; margin: 0;"">Is there a person in this image?</p>
                    </div>
                </div>","1","main_experiment_trial","2","saving_a_cat_causal","causal_sequence","","","",""
"","","","","","html-keyboard-response","84","287702","0.0-84.0","3D404EA453E44C2085B0DCF9B08C01B0","019cee76-f747-7e37-a618-cb386e92a0e3","019cee5f-9f1f-7e58-80c1-9ba679249cc3","","null","
                <div class=""stimulus-container"">
                    <img src=""images/causal_sequence/saving_a_cat_causal/saving_a_cat_causal_3.png"" class=""exp-image"">
                    <div class=""question-area""></div> 
                </div>","null","","","","","","","",""
"","","","","","html-button-response","85","289342","0.0-85.0","3D404EA453E44C2085B0DCF9B08C01B0","019cee76-f747-7e37-a618-cb386e92a0e3","019cee5f-9f1f-7e58-80c1-9ba679249cc3","","1640","
                <div class=""stimulus-container"">
                    <img src=""images/causal_sequence/saving_a_cat_causal/saving_a_cat_causal_3.png"" class=""exp-image"">
                    <div class=""question-area"">
                        <p style=""font-size: 20px; font-weight: bold; margin: 0;"">Is there a person in this image?</p>
                    </div>
                </div>","1","main_experiment_trial","3","saving_a_cat_causal","causal_sequence","","","",""
"","","","","","html-keyboard-response","86","294345","0.0-86.0","3D404EA453E44C2085B0DCF9B08C01B0","019cee76-f747-7e37-a618-cb386e92a0e3","019cee5f-9f1f-7e58-80c1-9ba679249cc3","","null","
                <div class=""stimulus-container"">
                    <img src=""images/causal_sequence/saving_a_cat_causal/saving_a_cat_causal_4.png"" class=""exp-image"">
                    <div class=""question-area""></div> 
                </div>","null","","","","","","","",""
"","","","","","html-button-response","87","295434","0.0-87.0","3D404EA453E44C2085B0DCF9B08C01B0","019cee76-f747-7e37-a618-cb386e92a0e3","019cee5f-9f1f-7e58-80c1-9ba679249cc3","","1088","
                <div class=""stimulus-container"">
                    <img src=""images/causal_sequence/saving_a_cat_causal/saving_a_cat_causal_4.png"" class=""exp-image"">
                    <div class=""question-area"">
                        <p style=""font-size: 20px; font-weight: bold; margin: 0;"">Is there a person in this image?</p>
                    </div>
                </div>","0","main_experiment_trial","4","saving_a_cat_causal","causal_sequence","","","",""
"","","","","","html-keyboard-response","88","300435","0.0-88.0","3D404EA453E44C2085B0DCF9B08C01B0","019cee76-f747-7e37-a618-cb386e92a0e3","019cee5f-9f1f-7e58-80c1-9ba679249cc3","","null","
                <div class=""stimulus-container"">
                    <img src=""images/causal_sequence/saving_a_cat_causal/saving_a_cat_causal_5.png"" class=""exp-image"">
                    <div class=""question-area""></div> 
                </div>","null","","","","","","","",""
"","","","","","html-button-response","89","301249","0.0-89.0","3D404EA453E44C2085B0DCF9B08C01B0","019cee76-f747-7e37-a618-cb386e92a0e3","019cee5f-9f1f-7e58-80c1-9ba679249cc3","","814","
                <div class=""stimulus-container"">
                    <img src=""images/causal_sequence/saving_a_cat_causal/saving_a_cat_causal_5.png"" class=""exp-image"">
                    <div class=""question-area"">
                        <p style=""font-size: 20px; font-weight: bold; margin: 0;"">Is there a person in this image?</p>
                    </div>
                </div>","0","main_experiment_trial","5","saving_a_cat_causal","causal_sequence","","","",""
"","","","","","html-keyboard-response","90","306250","0.0-90.0","3D404EA453E44C2085B0DCF9B08C01B0","019cee76-f747-7e37-a618-cb386e92a0e3","019cee5f-9f1f-7e58-80c1-9ba679249cc3","","null","
                <div class=""stimulus-container"">
                    <img src=""images/causal_sequence/saving_a_cat_causal/saving_a_cat_causal_6.png"" class=""exp-image"">
                    <div class=""question-area""></div> 
                </div>","null","","","","","","","",""
"","","","","","html-button-response","91","309251","0.0-91.0","3D404EA453E44C2085B0DCF9B08C01B0","019cee76-f747-7e37-a618-cb386e92a0e3","019cee5f-9f1f-7e58-80c1-9ba679249cc3","","null","
                <div class=""stimulus-container"">
                    <img src=""images/causal_sequence/saving_a_cat_causal/saving_a_cat_causal_6.png"" class=""exp-image"">
                    <div class=""question-area"">
                        <p style=""font-size: 20px; font-weight: bold; margin: 0;"">Is there a person in this image?</p>
                    </div>
                </div>","null","main_experiment_trial","6","saving_a_cat_causal","causal_sequence","","","",""
"","","","","","html-keyboard-response","92","314252","0.0-92.0","3D404EA453E44C2085B0DCF9B08C01B0","019cee76-f747-7e37-a618-cb386e92a0e3","019cee5f-9f1f-7e58-80c1-9ba679249cc3","","null","
                <div class=""stimulus-container"">
                    <img src=""images/causal_sequence/saving_a_cat_causal/saving_a_cat_causal_7.png"" class=""exp-image"">
                    <div class=""question-area""></div> 
                </div>","null","","","","","","","",""
"","","","","","html-button-response","93","315564","0.0-93.0","3D404EA453E44C2085B0DCF9B08C01B0","019cee76-f747-7e37-a618-cb386e92a0e3","019cee5f-9f1f-7e58-80c1-9ba679249cc3","","1311","
                <div class=""stimulus-container"">
                    <img src=""images/causal_sequence/saving_a_cat_causal/saving_a_cat_causal_7.png"" class=""exp-image"">
                    <div class=""question-area"">
                        <p style=""font-size: 20px; font-weight: bold; margin: 0;"">Is there a person in this image?</p>
                    </div>
                </div>","0","main_experiment_trial","7","saving_a_cat_causal","causal_sequence","","","",""
"","","","","","html-keyboard-response","94","320565","0.0-94.0","3D404EA453E44C2085B0DCF9B08C01B0","019cee76-f747-7e37-a618-cb386e92a0e3","019cee5f-9f1f-7e58-80c1-9ba679249cc3","","null","
                <div class=""stimulus-container"">
                    <img src=""images/causal_sequence/saving_a_cat_causal/saving_a_cat_causal_8.png"" class=""exp-image"">
                    <div class=""question-area""></div> 
                </div>","null","","","","","","","",""
"","","","","","html-button-response","95","322297","0.0-95.0","3D404EA453E44C2085B0DCF9B08C01B0","019cee76-f747-7e37-a618-cb386e92a0e3","019cee5f-9f1f-7e58-80c1-9ba679249cc3","","1731","
                <div class=""stimulus-container"">
                    <img src=""images/causal_sequence/saving_a_cat_causal/saving_a_cat_causal_8.png"" class=""exp-image"">
                    <div class=""question-area"">
                        <p style=""font-size: 20px; font-weight: bold; margin: 0;"">Is there a person in this image?</p>
                    </div>
                </div>","0","main_experiment_trial","8","saving_a_cat_causal","causal_sequence","","","",""
"","","","","","html-keyboard-response","96","327299","0.0-96.0","3D404EA453E44C2085B0DCF9B08C01B0","019cee76-f747-7e37-a618-cb386e92a0e3","019cee5f-9f1f-7e58-80c1-9ba679249cc3","","null","
                <div class=""stimulus-container"">
                    <img src=""images/causal_sequence/saving_a_cat_causal/saving_a_cat_causal_9.png"" class=""exp-image"">
                    <div class=""question-area""></div> 
                </div>","null","","","","","","","",""
"","","","","","html-button-response","97","329088","0.0-97.0","3D404EA453E44C2085B0DCF9B08C01B0","019cee76-f747-7e37-a618-cb386e92a0e3","019cee5f-9f1f-7e58-80c1-9ba679249cc3","","1789","
                <div class=""stimulus-container"">
                    <img src=""images/causal_sequence/saving_a_cat_causal/saving_a_cat_causal_9.png"" class=""exp-image"">
                    <div class=""question-area"">
                        <p style=""font-size: 20px; font-weight: bold; margin: 0;"">Is there a person in this image?</p>
                    </div>
                </div>","0","main_experiment_trial","9","saving_a_cat_causal","causal_sequence","","","",""
"","","","","","html-keyboard-response","98","334089","0.0-98.0","3D404EA453E44C2085B0DCF9B08C01B0","019cee76-f747-7e37-a618-cb386e92a0e3","019cee5f-9f1f-7e58-80c1-9ba679249cc3","","null","
                <div class=""stimulus-container"">
                    <img src=""images/causal_sequence/saving_a_cat_causal/saving_a_cat_causal_ten.png"" class=""exp-image"">
                    <div class=""question-area""></div> 
                </div>","null","","","","","","","",""
"","","","","","html-button-response","99","336540","0.0-99.0","3D404EA453E44C2085B0DCF9B08C01B0","019cee76-f747-7e37-a618-cb386e92a0e3","019cee5f-9f1f-7e58-80c1-9ba679249cc3","","2451","
                <div class=""stimulus-container"">
                    <img src=""images/causal_sequence/saving_a_cat_causal/saving_a_cat_causal_ten.png"" class=""exp-image"">
                    <div class=""question-area"">
                        <p style=""font-size: 20px; font-weight: bold; margin: 0;"">Is there a person in this image?</p>
                    </div>
                </div>","0","main_experiment_trial","ten","saving_a_cat_causal","causal_sequence","","","",""
"","","","","","html-keyboard-response","100","337541","0.0-100.0","3D404EA453E44C2085B0DCF9B08C01B0","019cee76-f747-7e37-a618-cb386e92a0e3","019cee5f-9f1f-7e58-80c1-9ba679249cc3","","null","<div style=""background-color: white; width: 100vw; height: 100vh;""></div>","null","","","","","","","",""
"","","","","","html-keyboard-response","101","342542","0.0-101.0","3D404EA453E44C2085B0DCF9B08C01B0","019cee76-f747-7e37-a618-cb386e92a0e3","019cee5f-9f1f-7e58-80c1-9ba679249cc3","","null","
                <div class=""stimulus-container"">
                    <img src=""images/schematic_sequence/flight_scheme/flight_scheme_1.png"" class=""exp-image"">
                    <div class=""question-area""></div> 
                </div>","null","","","","","","","",""
"","","","","","html-button-response","102","343519","0.0-102.0","3D404EA453E44C2085B0DCF9B08C01B0","019cee76-f747-7e37-a618-cb386e92a0e3","019cee5f-9f1f-7e58-80c1-9ba679249cc3","","976","
                <div class=""stimulus-container"">
                    <img src=""images/schematic_sequence/flight_scheme/flight_scheme_1.png"" class=""exp-image"">
                    <div class=""question-area"">
                        <p style=""font-size: 20px; font-weight: bold; margin: 0;"">Is there a person in this image?</p>
                    </div>
                </div>","0","main_experiment_trial","1","flight_scheme","schematic_sequence","","","",""
"","","","","","html-keyboard-response","103","348522","0.0-103.0","3D404EA453E44C2085B0DCF9B08C01B0","019cee76-f747-7e37-a618-cb386e92a0e3","019cee5f-9f1f-7e58-80c1-9ba679249cc3","","null","
                <div class=""stimulus-container"">
                    <img src=""images/schematic_sequence/flight_scheme/flight_scheme_2.png"" class=""exp-image"">
                    <div class=""question-area""></div> 
                </div>","null","","","","","","","",""
"","","","","","html-button-response","104","351524","0.0-104.0","3D404EA453E44C2085B0DCF9B08C01B0","019cee76-f747-7e37-a618-cb386e92a0e3","019cee5f-9f1f-7e58-80c1-9ba679249cc3","","null","
                <div class=""stimulus-container"">
                    <img src=""images/schematic_sequence/flight_scheme/flight_scheme_2.png"" class=""exp-image"">
                    <div class=""question-area"">
                        <p style=""font-size: 20px; font-weight: bold; margin: 0;"">Is there a person in this image?</p>
                    </div>
                </div>","null","main_experiment_trial","2","flight_scheme","schematic_sequence","","","",""
"","","","","","html-keyboard-response","105","356526","0.0-105.0","3D404EA453E44C2085B0DCF9B08C01B0","019cee76-f747-7e37-a618-cb386e92a0e3","019cee5f-9f1f-7e58-80c1-9ba679249cc3","","null","
                <div class=""stimulus-container"">
                    <img src=""images/schematic_sequence/flight_scheme/flight_scheme_3.png"" class=""exp-image"">
                    <div class=""question-area""></div> 
                </div>","null","","","","","","","",""
"","","","","","html-button-response","106","357325","0.0-106.0","3D404EA453E44C2085B0DCF9B08C01B0","019cee76-f747-7e37-a618-cb386e92a0e3","019cee5f-9f1f-7e58-80c1-9ba679249cc3","","799","
                <div class=""stimulus-container"">
                    <img src=""images/schematic_sequence/flight_scheme/flight_scheme_3.png"" class=""exp-image"">
                    <div class=""question-area"">
                        <p style=""font-size: 20px; font-weight: bold; margin: 0;"">Is there a person in this image?</p>
                    </div>
                </div>","0","main_experiment_trial","3","flight_scheme","schematic_sequence","","","",""
"","","","","","html-keyboard-response","107","362328","0.0-107.0","3D404EA453E44C2085B0DCF9B08C01B0","019cee76-f747-7e37-a618-cb386e92a0e3","019cee5f-9f1f-7e58-80c1-9ba679249cc3","","null","
                <div class=""stimulus-container"">
                    <img src=""images/schematic_sequence/flight_scheme/flight_scheme_4.png"" class=""exp-image"">
                    <div class=""question-area""></div> 
                </div>","null","","","","","","","",""
"","","","","","html-button-response","108","363147","0.0-108.0","3D404EA453E44C2085B0DCF9B08C01B0","019cee76-f747-7e37-a618-cb386e92a0e3","019cee5f-9f1f-7e58-80c1-9ba679249cc3","","819","
                <div class=""stimulus-container"">
                    <img src=""images/schematic_sequence/flight_scheme/flight_scheme_4.png"" class=""exp-image"">
                    <div class=""question-area"">
                        <p style=""font-size: 20px; font-weight: bold; margin: 0;"">Is there a person in this image?</p>
                    </div>
                </div>","0","main_experiment_trial","4","flight_scheme","schematic_sequence","","","",""
"","","","","","html-keyboard-response","109","368149","0.0-109.0","3D404EA453E44C2085B0DCF9B08C01B0","019cee76-f747-7e37-a618-cb386e92a0e3","019cee5f-9f1f-7e58-80c1-9ba679249cc3","","null","
                <div class=""stimulus-container"">
                    <img src=""images/schematic_sequence/flight_scheme/flight_scheme_5.png"" class=""exp-image"">
                    <div class=""question-area""></div> 
                </div>","null","","","","","","","",""
"","","","","","html-button-response","110","368509","0.0-110.0","3D404EA453E44C2085B0DCF9B08C01B0","019cee76-f747-7e37-a618-cb386e92a0e3","019cee5f-9f1f-7e58-80c1-9ba679249cc3","","360","
                <div class=""stimulus-container"">
                    <img src=""images/schematic_sequence/flight_scheme/flight_scheme_5.png"" class=""exp-image"">
                    <div class=""question-area"">
                        <p style=""font-size: 20px; font-weight: bold; margin: 0;"">Is there a person in this image?</p>
                    </div>
                </div>","0","main_experiment_trial","5","flight_scheme","schematic_sequence","","","",""
"","","","","","html-keyboard-response","111","373510","0.0-111.0","3D404EA453E44C2085B0DCF9B08C01B0","019cee76-f747-7e37-a618-cb386e92a0e3","019cee5f-9f1f-7e58-80c1-9ba679249cc3","","null","
                <div class=""stimulus-container"">
                    <img src=""images/schematic_sequence/flight_scheme/flight_scheme_6.png"" class=""exp-image"">
                    <div class=""question-area""></div> 
                </div>","null","","","","","","","",""
"","","","","","html-button-response","112","374390","0.0-112.0","3D404EA453E44C2085B0DCF9B08C01B0","019cee76-f747-7e37-a618-cb386e92a0e3","019cee5f-9f1f-7e58-80c1-9ba679249cc3","","880","
                <div class=""stimulus-container"">
                    <img src=""images/schematic_sequence/flight_scheme/flight_scheme_6.png"" class=""exp-image"">
                    <div class=""question-area"">
                        <p style=""font-size: 20px; font-weight: bold; margin: 0;"">Is there a person in this image?</p>
                    </div>
                </div>","1","main_experiment_trial","6","flight_scheme","schematic_sequence","","","",""
"","","","","","html-keyboard-response","113","379391","0.0-113.0","3D404EA453E44C2085B0DCF9B08C01B0","019cee76-f747-7e37-a618-cb386e92a0e3","019cee5f-9f1f-7e58-80c1-9ba679249cc3","","null","
                <div class=""stimulus-container"">
                    <img src=""images/schematic_sequence/flight_scheme/flight_scheme_7.png"" class=""exp-image"">
                    <div class=""question-area""></div> 
                </div>","null","","","","","","","",""
"","","","","","html-button-response","114","379921","0.0-114.0","3D404EA453E44C2085B0DCF9B08C01B0","019cee76-f747-7e37-a618-cb386e92a0e3","019cee5f-9f1f-7e58-80c1-9ba679249cc3","","529","
                <div class=""stimulus-container"">
                    <img src=""images/schematic_sequence/flight_scheme/flight_scheme_7.png"" class=""exp-image"">
                    <div class=""question-area"">
                        <p style=""font-size: 20px; font-weight: bold; margin: 0;"">Is there a person in this image?</p>
                    </div>
                </div>","0","main_experiment_trial","7","flight_scheme","schematic_sequence","","","",""
"","","","","","html-keyboard-response","115","384923","0.0-115.0","3D404EA453E44C2085B0DCF9B08C01B0","019cee76-f747-7e37-a618-cb386e92a0e3","019cee5f-9f1f-7e58-80c1-9ba679249cc3","","null","
                <div class=""stimulus-container"">
                    <img src=""images/schematic_sequence/flight_scheme/flight_scheme_8.png"" class=""exp-image"">
                    <div class=""question-area""></div> 
                </div>","null","","","","","","","",""
"","","","","","html-button-response","116","385737","0.0-116.0","3D404EA453E44C2085B0DCF9B08C01B0","019cee76-f747-7e37-a618-cb386e92a0e3","019cee5f-9f1f-7e58-80c1-9ba679249cc3","","813","
                <div class=""stimulus-container"">
                    <img src=""images/schematic_sequence/flight_scheme/flight_scheme_8.png"" class=""exp-image"">
                    <div class=""question-area"">
                        <p style=""font-size: 20px; font-weight: bold; margin: 0;"">Is there a person in this image?</p>
                    </div>
                </div>","1","main_experiment_trial","8","flight_scheme","schematic_sequence","","","",""
"","","","","","html-keyboard-response","117","390738","0.0-117.0","3D404EA453E44C2085B0DCF9B08C01B0","019cee76-f747-7e37-a618-cb386e92a0e3","019cee5f-9f1f-7e58-80c1-9ba679249cc3","","null","
                <div class=""stimulus-container"">
                    <img src=""images/schematic_sequence/flight_scheme/flight_scheme_9.png"" class=""exp-image"">
                    <div class=""question-area""></div> 
                </div>","null","","","","","","","",""
"","","","","","html-button-response","118","391941","0.0-118.0","3D404EA453E44C2085B0DCF9B08C01B0","019cee76-f747-7e37-a618-cb386e92a0e3","019cee5f-9f1f-7e58-80c1-9ba679249cc3","","1203","
                <div class=""stimulus-container"">
                    <img src=""images/schematic_sequence/flight_scheme/flight_scheme_9.png"" class=""exp-image"">
                    <div class=""question-area"">
                        <p style=""font-size: 20px; font-weight: bold; margin: 0;"">Is there a person in this image?</p>
                    </div>
                </div>","0","main_experiment_trial","9","flight_scheme","schematic_sequence","","","",""
"","","","","","html-keyboard-response","119","396942","0.0-119.0","3D404EA453E44C2085B0DCF9B08C01B0","019cee76-f747-7e37-a618-cb386e92a0e3","019cee5f-9f1f-7e58-80c1-9ba679249cc3","","null","
                <div class=""stimulus-container"">
                    <img src=""images/schematic_sequence/flight_scheme/flight_scheme_ten.png"" class=""exp-image"">
                    <div class=""question-area""></div> 
                </div>","null","","","","","","","",""
"","","","","","html-button-response","120","398758","0.0-120.0","3D404EA453E44C2085B0DCF9B08C01B0","019cee76-f747-7e37-a618-cb386e92a0e3","019cee5f-9f1f-7e58-80c1-9ba679249cc3","","1816","
                <div class=""stimulus-container"">
                    <img src=""images/schematic_sequence/flight_scheme/flight_scheme_ten.png"" class=""exp-image"">
                    <div class=""question-area"">
                        <p style=""font-size: 20px; font-weight: bold; margin: 0;"">Is there a person in this image?</p>
                    </div>
                </div>","0","main_experiment_trial","ten","flight_scheme","schematic_sequence","","","",""
"","","","","","html-keyboard-response","121","399760","0.0-121.0","3D404EA453E44C2085B0DCF9B08C01B0","019cee76-f747-7e37-a618-cb386e92a0e3","019cee5f-9f1f-7e58-80c1-9ba679249cc3","","null","<div style=""background-color: white; width: 100vw; height: 100vh;""></div>","null","","","","","","","",""
"","","","","","html-keyboard-response","122","404761","0.0-122.0","3D404EA453E44C2085B0DCF9B08C01B0","019cee76-f747-7e37-a618-cb386e92a0e3","019cee5f-9f1f-7e58-80c1-9ba679249cc3","","null","
                <div class=""stimulus-container"">
                    <img src=""images/schematic_sequence/interview_scheme/interview_scheme_1.png"" class=""exp-image"">
                    <div class=""question-area""></div> 
                </div>","null","","","","","","","",""
"","","","","","html-button-response","123","406288","0.0-123.0","3D404EA453E44C2085B0DCF9B08C01B0","019cee76-f747-7e37-a618-cb386e92a0e3","019cee5f-9f1f-7e58-80c1-9ba679249cc3","","1526","
                <div class=""stimulus-container"">
                    <img src=""images/schematic_sequence/interview_scheme/interview_scheme_1.png"" class=""exp-image"">
                    <div class=""question-area"">
                        <p style=""font-size: 20px; font-weight: bold; margin: 0;"">Is there a person in this image?</p>
                    </div>
                </div>","1","main_experiment_trial","1","interview_scheme","schematic_sequence","","","",""
"","","","","","html-keyboard-response","124","411289","0.0-124.0","3D404EA453E44C2085B0DCF9B08C01B0","019cee76-f747-7e37-a618-cb386e92a0e3","019cee5f-9f1f-7e58-80c1-9ba679249cc3","","null","
                <div class=""stimulus-container"">
                    <img src=""images/schematic_sequence/interview_scheme/interview_scheme_2.png"" class=""exp-image"">
                    <div class=""question-area""></div> 
                </div>","null","","","","","","","",""
"","","","","","html-button-response","125","411729","0.0-125.0","3D404EA453E44C2085B0DCF9B08C01B0","019cee76-f747-7e37-a618-cb386e92a0e3","019cee5f-9f1f-7e58-80c1-9ba679249cc3","","440","
                <div class=""stimulus-container"">
                    <img src=""images/schematic_sequence/interview_scheme/interview_scheme_2.png"" class=""exp-image"">
                    <div class=""question-area"">
                        <p style=""font-size: 20px; font-weight: bold; margin: 0;"">Is there a person in this image?</p>
                    </div>
                </div>","0","main_experiment_trial","2","interview_scheme","schematic_sequence","","","",""
"","","","","","html-keyboard-response","126","416729","0.0-126.0","3D404EA453E44C2085B0DCF9B08C01B0","019cee76-f747-7e37-a618-cb386e92a0e3","019cee5f-9f1f-7e58-80c1-9ba679249cc3","","null","
                <div class=""stimulus-container"">
                    <img src=""images/schematic_sequence/interview_scheme/interview_scheme_3.png"" class=""exp-image"">
                    <div class=""question-area""></div> 
                </div>","null","","","","","","","",""
"","","","","","html-button-response","127","417912","0.0-127.0","3D404EA453E44C2085B0DCF9B08C01B0","019cee76-f747-7e37-a618-cb386e92a0e3","019cee5f-9f1f-7e58-80c1-9ba679249cc3","","1182","
                <div class=""stimulus-container"">
                    <img src=""images/schematic_sequence/interview_scheme/interview_scheme_3.png"" class=""exp-image"">
                    <div class=""question-area"">
                        <p style=""font-size: 20px; font-weight: bold; margin: 0;"">Is there a person in this image?</p>
                    </div>
                </div>","1","main_experiment_trial","3","interview_scheme","schematic_sequence","","","",""
"","","","","","html-keyboard-response","128","422913","0.0-128.0","3D404EA453E44C2085B0DCF9B08C01B0","019cee76-f747-7e37-a618-cb386e92a0e3","019cee5f-9f1f-7e58-80c1-9ba679249cc3","","null","
                <div class=""stimulus-container"">
                    <img src=""images/schematic_sequence/interview_scheme/interview_scheme_4.png"" class=""exp-image"">
                    <div class=""question-area""></div> 
                </div>","null","","","","","","","",""
"","","","","","html-button-response","129","424597","0.0-129.0","3D404EA453E44C2085B0DCF9B08C01B0","019cee76-f747-7e37-a618-cb386e92a0e3","019cee5f-9f1f-7e58-80c1-9ba679249cc3","","1683","
                <div class=""stimulus-container"">
                    <img src=""images/schematic_sequence/interview_scheme/interview_scheme_4.png"" class=""exp-image"">
                    <div class=""question-area"">
                        <p style=""font-size: 20px; font-weight: bold; margin: 0;"">Is there a person in this image?</p>
                    </div>
                </div>","1","main_experiment_trial","4","interview_scheme","schematic_sequence","","","",""
"","","","","","html-keyboard-response","130","429597","0.0-130.0","3D404EA453E44C2085B0DCF9B08C01B0","019cee76-f747-7e37-a618-cb386e92a0e3","019cee5f-9f1f-7e58-80c1-9ba679249cc3","","null","
                <div class=""stimulus-container"">
                    <img src=""images/schematic_sequence/interview_scheme/interview_scheme_5.png"" class=""exp-image"">
                    <div class=""question-area""></div> 
                </div>","null","","","","","","","",""
"","","","","","html-button-response","131","430277","0.0-131.0","3D404EA453E44C2085B0DCF9B08C01B0","019cee76-f747-7e37-a618-cb386e92a0e3","019cee5f-9f1f-7e58-80c1-9ba679249cc3","","680","
                <div class=""stimulus-container"">
                    <img src=""images/schematic_sequence/interview_scheme/interview_scheme_5.png"" class=""exp-image"">
                    <div class=""question-area"">
                        <p style=""font-size: 20px; font-weight: bold; margin: 0;"">Is there a person in this image?</p>
                    </div>
                </div>","0","main_experiment_trial","5","interview_scheme","schematic_sequence","","","",""
"","","","","","html-keyboard-response","132","435280","0.0-132.0","3D404EA453E44C2085B0DCF9B08C01B0","019cee76-f747-7e37-a618-cb386e92a0e3","019cee5f-9f1f-7e58-80c1-9ba679249cc3","","null","
                <div class=""stimulus-container"">
                    <img src=""images/schematic_sequence/interview_scheme/interview_scheme_6.png"" class=""exp-image"">
                    <div class=""question-area""></div> 
                </div>","null","","","","","","","",""
"","","","","","html-button-response","133","436501","0.0-133.0","3D404EA453E44C2085B0DCF9B08C01B0","019cee76-f747-7e37-a618-cb386e92a0e3","019cee5f-9f1f-7e58-80c1-9ba679249cc3","","1221","
                <div class=""stimulus-container"">
                    <img src=""images/schematic_sequence/interview_scheme/interview_scheme_6.png"" class=""exp-image"">
                    <div class=""question-area"">
                        <p style=""font-size: 20px; font-weight: bold; margin: 0;"">Is there a person in this image?</p>
                    </div>
                </div>","0","main_experiment_trial","6","interview_scheme","schematic_sequence","","","",""
"","","","","","html-keyboard-response","134","441503","0.0-134.0","3D404EA453E44C2085B0DCF9B08C01B0","019cee76-f747-7e37-a618-cb386e92a0e3","019cee5f-9f1f-7e58-80c1-9ba679249cc3","","null","
                <div class=""stimulus-container"">
                    <img src=""images/schematic_sequence/interview_scheme/interview_scheme_7.png"" class=""exp-image"">
                    <div class=""question-area""></div> 
                </div>","null","","","","","","","",""
"","","","","","html-button-response","135","442200","0.0-135.0","3D404EA453E44C2085B0DCF9B08C01B0","019cee76-f747-7e37-a618-cb386e92a0e3","019cee5f-9f1f-7e58-80c1-9ba679249cc3","","696","
                <div class=""stimulus-container"">
                    <img src=""images/schematic_sequence/interview_scheme/interview_scheme_7.png"" class=""exp-image"">
                    <div class=""question-area"">
                        <p style=""font-size: 20px; font-weight: bold; margin: 0;"">Is there a person in this image?</p>
                    </div>
                </div>","0","main_experiment_trial","7","interview_scheme","schematic_sequence","","","",""
"","","","","","html-keyboard-response","136","447201","0.0-136.0","3D404EA453E44C2085B0DCF9B08C01B0","019cee76-f747-7e37-a618-cb386e92a0e3","019cee5f-9f1f-7e58-80c1-9ba679249cc3","","null","
                <div class=""stimulus-container"">
                    <img src=""images/schematic_sequence/interview_scheme/interview_scheme_8.png"" class=""exp-image"">
                    <div class=""question-area""></div> 
                </div>","null","","","","","","","",""
"","","","","","html-button-response","137","447865","0.0-137.0","3D404EA453E44C2085B0DCF9B08C01B0","019cee76-f747-7e37-a618-cb386e92a0e3","019cee5f-9f1f-7e58-80c1-9ba679249cc3","","664","
                <div class=""stimulus-container"">
                    <img src=""images/schematic_sequence/interview_scheme/interview_scheme_8.png"" class=""exp-image"">
                    <div class=""question-area"">
                        <p style=""font-size: 20px; font-weight: bold; margin: 0;"">Is there a person in this image?</p>
                    </div>
                </div>","0","main_experiment_trial","8","interview_scheme","schematic_sequence","","","",""
"","","","","","html-keyboard-response","138","452867","0.0-138.0","3D404EA453E44C2085B0DCF9B08C01B0","019cee76-f747-7e37-a618-cb386e92a0e3","019cee5f-9f1f-7e58-80c1-9ba679249cc3","","null","
                <div class=""stimulus-container"">
                    <img src=""images/schematic_sequence/interview_scheme/interview_scheme_9.png"" class=""exp-image"">
                    <div class=""question-area""></div> 
                </div>","null","","","","","","","",""
"","","","","","html-button-response","139","453627","0.0-139.0","3D404EA453E44C2085B0DCF9B08C01B0","019cee76-f747-7e37-a618-cb386e92a0e3","019cee5f-9f1f-7e58-80c1-9ba679249cc3","","760","
                <div class=""stimulus-container"">
                    <img src=""images/schematic_sequence/interview_scheme/interview_scheme_9.png"" class=""exp-image"">
                    <div class=""question-area"">
                        <p style=""font-size: 20px; font-weight: bold; margin: 0;"">Is there a person in this image?</p>
                    </div>
                </div>","0","main_experiment_trial","9","interview_scheme","schematic_sequence","","","",""
"","","","","","html-keyboard-response","140","458628","0.0-140.0","3D404EA453E44C2085B0DCF9B08C01B0","019cee76-f747-7e37-a618-cb386e92a0e3","019cee5f-9f1f-7e58-80c1-9ba679249cc3","","null","
                <div class=""stimulus-container"">
                    <img src=""images/schematic_sequence/interview_scheme/interview_scheme_ten.png"" class=""exp-image"">
                    <div class=""question-area""></div> 
                </div>","null","","","","","","","",""
"","","","","","html-button-response","141","460068","0.0-141.0","3D404EA453E44C2085B0DCF9B08C01B0","019cee76-f747-7e37-a618-cb386e92a0e3","019cee5f-9f1f-7e58-80c1-9ba679249cc3","","1439","
                <div class=""stimulus-container"">
                    <img src=""images/schematic_sequence/interview_scheme/interview_scheme_ten.png"" class=""exp-image"">
                    <div class=""question-area"">
                        <p style=""font-size: 20px; font-weight: bold; margin: 0;"">Is there a person in this image?</p>
                    </div>
                </div>","0","main_experiment_trial","ten","interview_scheme","schematic_sequence","","","",""
"","","","","","html-keyboard-response","142","461069","0.0-142.0","3D404EA453E44C2085B0DCF9B08C01B0","019cee76-f747-7e37-a618-cb386e92a0e3","019cee5f-9f1f-7e58-80c1-9ba679249cc3","","null","<div style=""background-color: white; width: 100vw; height: 100vh;""></div>","null","","","","","","","",""
"","","","","","html-keyboard-response","143","466071","0.0-143.0","3D404EA453E44C2085B0DCF9B08C01B0","019cee76-f747-7e37-a618-cb386e92a0e3","019cee5f-9f1f-7e58-80c1-9ba679249cc3","","null","
                <div class=""stimulus-container"">
                    <img src=""images/schematic_sequence/dinner_party_scheme/dinner_party_scheme_1.png"" class=""exp-image"">
                    <div class=""question-area""></div> 
                </div>","null","","","","","","","",""
"","","","","","html-button-response","144","466946","0.0-144.0","3D404EA453E44C2085B0DCF9B08C01B0","019cee76-f747-7e37-a618-cb386e92a0e3","019cee5f-9f1f-7e58-80c1-9ba679249cc3","","875","
                <div class=""stimulus-container"">
                    <img src=""images/schematic_sequence/dinner_party_scheme/dinner_party_scheme_1.png"" class=""exp-image"">
                    <div class=""question-area"">
                        <p style=""font-size: 20px; font-weight: bold; margin: 0;"">Is there a person in this image?</p>
                    </div>
                </div>","0","main_experiment_trial","1","dinner_party_scheme","schematic_sequence","","","",""
"","","","","","html-keyboard-response","145","471948","0.0-145.0","3D404EA453E44C2085B0DCF9B08C01B0","019cee76-f747-7e37-a618-cb386e92a0e3","019cee5f-9f1f-7e58-80c1-9ba679249cc3","","null","
                <div class=""stimulus-container"">
                    <img src=""images/schematic_sequence/dinner_party_scheme/dinner_party_scheme_2.png"" class=""exp-image"">
                    <div class=""question-area""></div> 
                </div>","null","","","","","","","",""
"","","","","","html-button-response","146","472807","0.0-146.0","3D404EA453E44C2085B0DCF9B08C01B0","019cee76-f747-7e37-a618-cb386e92a0e3","019cee5f-9f1f-7e58-80c1-9ba679249cc3","","858","
                <div class=""stimulus-container"">
                    <img src=""images/schematic_sequence/dinner_party_scheme/dinner_party_scheme_2.png"" class=""exp-image"">
                    <div class=""question-area"">
                        <p style=""font-size: 20px; font-weight: bold; margin: 0;"">Is there a person in this image?</p>
                    </div>
                </div>","0","main_experiment_trial","2","dinner_party_scheme","schematic_sequence","","","",""
"","","","","","html-keyboard-response","147","477807","0.0-147.0","3D404EA453E44C2085B0DCF9B08C01B0","019cee76-f747-7e37-a618-cb386e92a0e3","019cee5f-9f1f-7e58-80c1-9ba679249cc3","","null","
                <div class=""stimulus-container"">
                    <img src=""images/schematic_sequence/dinner_party_scheme/dinner_party_scheme_3.png"" class=""exp-image"">
                    <div class=""question-area""></div> 
                </div>","null","","","","","","","",""
"","","","","","html-button-response","148","478930","0.0-148.0","3D404EA453E44C2085B0DCF9B08C01B0","019cee76-f747-7e37-a618-cb386e92a0e3","019cee5f-9f1f-7e58-80c1-9ba679249cc3","","1123","
                <div class=""stimulus-container"">
                    <img src=""images/schematic_sequence/dinner_party_scheme/dinner_party_scheme_3.png"" class=""exp-image"">
                    <div class=""question-area"">
                        <p style=""font-size: 20px; font-weight: bold; margin: 0;"">Is there a person in this image?</p>
                    </div>
                </div>","0","main_experiment_trial","3","dinner_party_scheme","schematic_sequence","","","",""
"","","","","","html-keyboard-response","149","483931","0.0-149.0","3D404EA453E44C2085B0DCF9B08C01B0","019cee76-f747-7e37-a618-cb386e92a0e3","019cee5f-9f1f-7e58-80c1-9ba679249cc3","","null","
                <div class=""stimulus-container"">
                    <img src=""images/schematic_sequence/dinner_party_scheme/dinner_party_scheme_4.png"" class=""exp-image"">
                    <div class=""question-area""></div> 
                </div>","null","","","","","","","",""
"","","","","","html-button-response","150","485303","0.0-150.0","3D404EA453E44C2085B0DCF9B08C01B0","019cee76-f747-7e37-a618-cb386e92a0e3","019cee5f-9f1f-7e58-80c1-9ba679249cc3","","1371","
                <div class=""stimulus-container"">
                    <img src=""images/schematic_sequence/dinner_party_scheme/dinner_party_scheme_4.png"" class=""exp-image"">
                    <div class=""question-area"">
                        <p style=""font-size: 20px; font-weight: bold; margin: 0;"">Is there a person in this image?</p>
                    </div>
                </div>","0","main_experiment_trial","4","dinner_party_scheme","schematic_sequence","","","",""
"","","","","","html-keyboard-response","151","490305","0.0-151.0","3D404EA453E44C2085B0DCF9B08C01B0","019cee76-f747-7e37-a618-cb386e92a0e3","019cee5f-9f1f-7e58-80c1-9ba679249cc3","","null","
                <div class=""stimulus-container"">
                    <img src=""images/schematic_sequence/dinner_party_scheme/dinner_party_scheme_5.png"" class=""exp-image"">
                    <div class=""question-area""></div> 
                </div>","null","","","","","","","",""
"","","","","","html-button-response","152","491530","0.0-152.0","3D404EA453E44C2085B0DCF9B08C01B0","019cee76-f747-7e37-a618-cb386e92a0e3","019cee5f-9f1f-7e58-80c1-9ba679249cc3","","1224","
                <div class=""stimulus-container"">
                    <img src=""images/schematic_sequence/dinner_party_scheme/dinner_party_scheme_5.png"" class=""exp-image"">
                    <div class=""question-area"">
                        <p style=""font-size: 20px; font-weight: bold; margin: 0;"">Is there a person in this image?</p>
                    </div>
                </div>","0","main_experiment_trial","5","dinner_party_scheme","schematic_sequence","","","",""
"","","","","","html-keyboard-response","153","496532","0.0-153.0","3D404EA453E44C2085B0DCF9B08C01B0","019cee76-f747-7e37-a618-cb386e92a0e3","019cee5f-9f1f-7e58-80c1-9ba679249cc3","","null","
                <div class=""stimulus-container"">
                    <img src=""images/schematic_sequence/dinner_party_scheme/dinner_party_scheme_6.png"" class=""exp-image"">
                    <div class=""question-area""></div> 
                </div>","null","","","","","","","",""
"","","","","","html-button-response","154","497236","0.0-154.0","3D404EA453E44C2085B0DCF9B08C01B0","019cee76-f747-7e37-a618-cb386e92a0e3","019cee5f-9f1f-7e58-80c1-9ba679249cc3","","704","
                <div class=""stimulus-container"">
                    <img src=""images/schematic_sequence/dinner_party_scheme/dinner_party_scheme_6.png"" class=""exp-image"">
                    <div class=""question-area"">
                        <p style=""font-size: 20px; font-weight: bold; margin: 0;"">Is there a person in this image?</p>
                    </div>
                </div>","0","main_experiment_trial","6","dinner_party_scheme","schematic_sequence","","","",""
"","","","","","html-keyboard-response","155","502238","0.0-155.0","3D404EA453E44C2085B0DCF9B08C01B0","019cee76-f747-7e37-a618-cb386e92a0e3","019cee5f-9f1f-7e58-80c1-9ba679249cc3","","null","
                <div class=""stimulus-container"">
                    <img src=""images/schematic_sequence/dinner_party_scheme/dinner_party_scheme_7.png"" class=""exp-image"">
                    <div class=""question-area""></div> 
                </div>","null","","","","","","","",""
"","","","","","html-button-response","156","502793","0.0-156.0","3D404EA453E44C2085B0DCF9B08C01B0","019cee76-f747-7e37-a618-cb386e92a0e3","019cee5f-9f1f-7e58-80c1-9ba679249cc3","","555","
                <div class=""stimulus-container"">
                    <img src=""images/schematic_sequence/dinner_party_scheme/dinner_party_scheme_7.png"" class=""exp-image"">
                    <div class=""question-area"">
                        <p style=""font-size: 20px; font-weight: bold; margin: 0;"">Is there a person in this image?</p>
                    </div>
                </div>","0","main_experiment_trial","7","dinner_party_scheme","schematic_sequence","","","",""
"","","","","","html-keyboard-response","157","507795","0.0-157.0","3D404EA453E44C2085B0DCF9B08C01B0","019cee76-f747-7e37-a618-cb386e92a0e3","019cee5f-9f1f-7e58-80c1-9ba679249cc3","","null","
                <div class=""stimulus-container"">
                    <img src=""images/schematic_sequence/dinner_party_scheme/dinner_party_scheme_8.png"" class=""exp-image"">
                    <div class=""question-area""></div> 
                </div>","null","","","","","","","",""
"","","","","","html-button-response","158","508186","0.0-158.0","3D404EA453E44C2085B0DCF9B08C01B0","019cee76-f747-7e37-a618-cb386e92a0e3","019cee5f-9f1f-7e58-80c1-9ba679249cc3","","391","
                <div class=""stimulus-container"">
                    <img src=""images/schematic_sequence/dinner_party_scheme/dinner_party_scheme_8.png"" class=""exp-image"">
                    <div class=""question-area"">
                        <p style=""font-size: 20px; font-weight: bold; margin: 0;"">Is there a person in this image?</p>
                    </div>
                </div>","0","main_experiment_trial","8","dinner_party_scheme","schematic_sequence","","","",""
"","","","","","html-keyboard-response","159","513188","0.0-159.0","3D404EA453E44C2085B0DCF9B08C01B0","019cee76-f747-7e37-a618-cb386e92a0e3","019cee5f-9f1f-7e58-80c1-9ba679249cc3","","null","
                <div class=""stimulus-container"">
                    <img src=""images/schematic_sequence/dinner_party_scheme/dinner_party_scheme_9.png"" class=""exp-image"">
                    <div class=""question-area""></div> 
                </div>","null","","","","","","","",""
"","","","","","html-button-response","160","513900","0.0-160.0","3D404EA453E44C2085B0DCF9B08C01B0","019cee76-f747-7e37-a618-cb386e92a0e3","019cee5f-9f1f-7e58-80c1-9ba679249cc3","","711","
                <div class=""stimulus-container"">
                    <img src=""images/schematic_sequence/dinner_party_scheme/dinner_party_scheme_9.png"" class=""exp-image"">
                    <div class=""question-area"">
                        <p style=""font-size: 20px; font-weight: bold; margin: 0;"">Is there a person in this image?</p>
                    </div>
                </div>","0","main_experiment_trial","9","dinner_party_scheme","schematic_sequence","","","",""
"","","","","","html-keyboard-response","161","518902","0.0-161.0","3D404EA453E44C2085B0DCF9B08C01B0","019cee76-f747-7e37-a618-cb386e92a0e3","019cee5f-9f1f-7e58-80c1-9ba679249cc3","","null","
                <div class=""stimulus-container"">
                    <img src=""images/schematic_sequence/dinner_party_scheme/dinner_party_scheme_ten.png"" class=""exp-image"">
                    <div class=""question-area""></div> 
                </div>","null","","","","","","","",""
"","","","","","html-button-response","162","520729","0.0-162.0","3D404EA453E44C2085B0DCF9B08C01B0","019cee76-f747-7e37-a618-cb386e92a0e3","019cee5f-9f1f-7e58-80c1-9ba679249cc3","","1827","
                <div class=""stimulus-container"">
                    <img src=""images/schematic_sequence/dinner_party_scheme/dinner_party_scheme_ten.png"" class=""exp-image"">
                    <div class=""question-area"">
                        <p style=""font-size: 20px; font-weight: bold; margin: 0;"">Is there a person in this image?</p>
                    </div>
                </div>","0","main_experiment_trial","ten","dinner_party_scheme","schematic_sequence","","","",""
"","","","","","html-keyboard-response","163","521731","0.0-163.0","3D404EA453E44C2085B0DCF9B08C01B0","019cee76-f747-7e37-a618-cb386e92a0e3","019cee5f-9f1f-7e58-80c1-9ba679249cc3","","null","<div style=""background-color: white; width: 100vw; height: 100vh;""></div>","null","","","","","","","",""
"","","","","","html-keyboard-response","164","526733","0.0-164.0","3D404EA453E44C2085B0DCF9B08C01B0","019cee76-f747-7e37-a618-cb386e92a0e3","019cee5f-9f1f-7e58-80c1-9ba679249cc3","","null","
                <div class=""stimulus-container"">
                    <img src=""images/causal_sequence/the_performance_causal/the_performance_causal_1.png"" class=""exp-image"">
                    <div class=""question-area""></div> 
                </div>","null","","","","","","","",""
"","","","","","html-button-response","165","528255","0.0-165.0","3D404EA453E44C2085B0DCF9B08C01B0","019cee76-f747-7e37-a618-cb386e92a0e3","019cee5f-9f1f-7e58-80c1-9ba679249cc3","","1521","
                <div class=""stimulus-container"">
                    <img src=""images/causal_sequence/the_performance_causal/the_performance_causal_1.png"" class=""exp-image"">
                    <div class=""question-area"">
                        <p style=""font-size: 20px; font-weight: bold; margin: 0;"">Is there a person in this image?</p>
                    </div>
                </div>","0","main_experiment_trial","1","the_performance_causal","causal_sequence","","","",""
"","","","","","html-keyboard-response","166","533256","0.0-166.0","3D404EA453E44C2085B0DCF9B08C01B0","019cee76-f747-7e37-a618-cb386e92a0e3","019cee5f-9f1f-7e58-80c1-9ba679249cc3","","null","
                <div class=""stimulus-container"">
                    <img src=""images/causal_sequence/the_performance_causal/the_performance_causal_2.png"" class=""exp-image"">
                    <div class=""question-area""></div> 
                </div>","null","","","","","","","",""
"","","","","","html-button-response","167","534484","0.0-167.0","3D404EA453E44C2085B0DCF9B08C01B0","019cee76-f747-7e37-a618-cb386e92a0e3","019cee5f-9f1f-7e58-80c1-9ba679249cc3","","1227","
                <div class=""stimulus-container"">
                    <img src=""images/causal_sequence/the_performance_causal/the_performance_causal_2.png"" class=""exp-image"">
                    <div class=""question-area"">
                        <p style=""font-size: 20px; font-weight: bold; margin: 0;"">Is there a person in this image?</p>
                    </div>
                </div>","0","main_experiment_trial","2","the_performance_causal","causal_sequence","","","",""
"","","","","","html-keyboard-response","168","539485","0.0-168.0","3D404EA453E44C2085B0DCF9B08C01B0","019cee76-f747-7e37-a618-cb386e92a0e3","019cee5f-9f1f-7e58-80c1-9ba679249cc3","","null","
                <div class=""stimulus-container"">
                    <img src=""images/causal_sequence/the_performance_causal/the_performance_causal_3.png"" class=""exp-image"">
                    <div class=""question-area""></div> 
                </div>","null","","","","","","","",""
"","","","","","html-button-response","169","540598","0.0-169.0","3D404EA453E44C2085B0DCF9B08C01B0","019cee76-f747-7e37-a618-cb386e92a0e3","019cee5f-9f1f-7e58-80c1-9ba679249cc3","","1112","
                <div class=""stimulus-container"">
                    <img src=""images/causal_sequence/the_performance_causal/the_performance_causal_3.png"" class=""exp-image"">
                    <div class=""question-area"">
                        <p style=""font-size: 20px; font-weight: bold; margin: 0;"">Is there a person in this image?</p>
                    </div>
                </div>","0","main_experiment_trial","3","the_performance_causal","causal_sequence","","","",""
"","","","","","html-keyboard-response","170","545601","0.0-170.0","3D404EA453E44C2085B0DCF9B08C01B0","019cee76-f747-7e37-a618-cb386e92a0e3","019cee5f-9f1f-7e58-80c1-9ba679249cc3","","null","
                <div class=""stimulus-container"">
                    <img src=""images/causal_sequence/the_performance_causal/the_performance_causal_4.png"" class=""exp-image"">
                    <div class=""question-area""></div> 
                </div>","null","","","","","","","",""
"","","","","","html-button-response","171","546881","0.0-171.0","3D404EA453E44C2085B0DCF9B08C01B0","019cee76-f747-7e37-a618-cb386e92a0e3","019cee5f-9f1f-7e58-80c1-9ba679249cc3","","1280","
                <div class=""stimulus-container"">
                    <img src=""images/causal_sequence/the_performance_causal/the_performance_causal_4.png"" class=""exp-image"">
                    <div class=""question-area"">
                        <p style=""font-size: 20px; font-weight: bold; margin: 0;"">Is there a person in this image?</p>
                    </div>
                </div>","0","main_experiment_trial","4","the_performance_causal","causal_sequence","","","",""
"","","","","","html-keyboard-response","172","551884","0.0-172.0","3D404EA453E44C2085B0DCF9B08C01B0","019cee76-f747-7e37-a618-cb386e92a0e3","019cee5f-9f1f-7e58-80c1-9ba679249cc3","","null","
                <div class=""stimulus-container"">
                    <img src=""images/causal_sequence/the_performance_causal/the_performance_causal_5.png"" class=""exp-image"">
                    <div class=""question-area""></div> 
                </div>","null","","","","","","","",""
"","","","","","html-button-response","173","552386","0.0-173.0","3D404EA453E44C2085B0DCF9B08C01B0","019cee76-f747-7e37-a618-cb386e92a0e3","019cee5f-9f1f-7e58-80c1-9ba679249cc3","","502","
                <div class=""stimulus-container"">
                    <img src=""images/causal_sequence/the_performance_causal/the_performance_causal_5.png"" class=""exp-image"">
                    <div class=""question-area"">
                        <p style=""font-size: 20px; font-weight: bold; margin: 0;"">Is there a person in this image?</p>
                    </div>
                </div>","0","main_experiment_trial","5","the_performance_causal","causal_sequence","","","",""
"","","","","","html-keyboard-response","174","557388","0.0-174.0","3D404EA453E44C2085B0DCF9B08C01B0","019cee76-f747-7e37-a618-cb386e92a0e3","019cee5f-9f1f-7e58-80c1-9ba679249cc3","","null","
                <div class=""stimulus-container"">
                    <img src=""images/causal_sequence/the_performance_causal/the_performance_causal_6.png"" class=""exp-image"">
                    <div class=""question-area""></div> 
                </div>","null","","","","","","","",""
"","","","","","html-button-response","175","558074","0.0-175.0","3D404EA453E44C2085B0DCF9B08C01B0","019cee76-f747-7e37-a618-cb386e92a0e3","019cee5f-9f1f-7e58-80c1-9ba679249cc3","","685","
                <div class=""stimulus-container"">
                    <img src=""images/causal_sequence/the_performance_causal/the_performance_causal_6.png"" class=""exp-image"">
                    <div class=""question-area"">
                        <p style=""font-size: 20px; font-weight: bold; margin: 0;"">Is there a person in this image?</p>
                    </div>
                </div>","0","main_experiment_trial","6","the_performance_causal","causal_sequence","","","",""
"","","","","","html-keyboard-response","176","563076","0.0-176.0","3D404EA453E44C2085B0DCF9B08C01B0","019cee76-f747-7e37-a618-cb386e92a0e3","019cee5f-9f1f-7e58-80c1-9ba679249cc3","","null","
                <div class=""stimulus-container"">
                    <img src=""images/causal_sequence/the_performance_causal/the_performance_causal_7.png"" class=""exp-image"">
                    <div class=""question-area""></div> 
                </div>","null","","","","","","","",""
"","","","","","html-button-response","177","564075","0.0-177.0","3D404EA453E44C2085B0DCF9B08C01B0","019cee76-f747-7e37-a618-cb386e92a0e3","019cee5f-9f1f-7e58-80c1-9ba679249cc3","","998","
                <div class=""stimulus-container"">
                    <img src=""images/causal_sequence/the_performance_causal/the_performance_causal_7.png"" class=""exp-image"">
                    <div class=""question-area"">
                        <p style=""font-size: 20px; font-weight: bold; margin: 0;"">Is there a person in this image?</p>
                    </div>
                </div>","0","main_experiment_trial","7","the_performance_causal","causal_sequence","","","",""
"","","","","","html-keyboard-response","178","569076","0.0-178.0","3D404EA453E44C2085B0DCF9B08C01B0","019cee76-f747-7e37-a618-cb386e92a0e3","019cee5f-9f1f-7e58-80c1-9ba679249cc3","","null","
                <div class=""stimulus-container"">
                    <img src=""images/causal_sequence/the_performance_causal/the_performance_causal_8.png"" class=""exp-image"">
                    <div class=""question-area""></div> 
                </div>","null","","","","","","","",""
"","","","","","html-button-response","179","569700","0.0-179.0","3D404EA453E44C2085B0DCF9B08C01B0","019cee76-f747-7e37-a618-cb386e92a0e3","019cee5f-9f1f-7e58-80c1-9ba679249cc3","","623","
                <div class=""stimulus-container"">
                    <img src=""images/causal_sequence/the_performance_causal/the_performance_causal_8.png"" class=""exp-image"">
                    <div class=""question-area"">
                        <p style=""font-size: 20px; font-weight: bold; margin: 0;"">Is there a person in this image?</p>
                    </div>
                </div>","0","main_experiment_trial","8","the_performance_causal","causal_sequence","","","",""
"","","","","","html-keyboard-response","180","574702","0.0-180.0","3D404EA453E44C2085B0DCF9B08C01B0","019cee76-f747-7e37-a618-cb386e92a0e3","019cee5f-9f1f-7e58-80c1-9ba679249cc3","","null","
                <div class=""stimulus-container"">
                    <img src=""images/causal_sequence/the_performance_causal/the_performance_causal_9.png"" class=""exp-image"">
                    <div class=""question-area""></div> 
                </div>","null","","","","","","","",""
"","","","","","html-button-response","181","575060","0.0-181.0","3D404EA453E44C2085B0DCF9B08C01B0","019cee76-f747-7e37-a618-cb386e92a0e3","019cee5f-9f1f-7e58-80c1-9ba679249cc3","","357","
                <div class=""stimulus-container"">
                    <img src=""images/causal_sequence/the_performance_causal/the_performance_causal_9.png"" class=""exp-image"">
                    <div class=""question-area"">
                        <p style=""font-size: 20px; font-weight: bold; margin: 0;"">Is there a person in this image?</p>
                    </div>
                </div>","0","main_experiment_trial","9","the_performance_causal","causal_sequence","","","",""
"","","","","","html-keyboard-response","182","580062","0.0-182.0","3D404EA453E44C2085B0DCF9B08C01B0","019cee76-f747-7e37-a618-cb386e92a0e3","019cee5f-9f1f-7e58-80c1-9ba679249cc3","","null","
                <div class=""stimulus-container"">
                    <img src=""images/causal_sequence/the_performance_causal/the_performance_causal_ten.png"" class=""exp-image"">
                    <div class=""question-area""></div> 
                </div>","null","","","","","","","",""
"","","","","","html-button-response","183","580922","0.0-183.0","3D404EA453E44C2085B0DCF9B08C01B0","019cee76-f747-7e37-a618-cb386e92a0e3","019cee5f-9f1f-7e58-80c1-9ba679249cc3","","860","
                <div class=""stimulus-container"">
                    <img src=""images/causal_sequence/the_performance_causal/the_performance_causal_ten.png"" class=""exp-image"">
                    <div class=""question-area"">
