"success","timeout","failed_images","failed_audio","failed_video","trial_type","trial_index","time_elapsed","internal_node_id","subject_id","study_id","session_id","view_history","rt","stimulus","response","task","image_index","folder","sequence_type","presentation_order","valuable_image_index","reward_type","target_X","l_dist","r_dist","chosen_image_index","selected_after_X","correct_choice"
"true","false","[]","[]","[]","preload","0","16903","0.0-0.0","0403619B5ED848A0A79ABA081779E95B","019d666a-ece3-76a0-9454-71cda89629c1","019d6630-2071-75cb-8026-6699844a2719","","","","","","","","","","","","","","","","",""
"","","","","","instructions","1","19571","0.0-1.0","0403619B5ED848A0A79ABA081779E95B","019d666a-ece3-76a0-9454-71cda89629c1","019d6630-2071-75cb-8026-6699844a2719","[{""page_index"":0,""viewing_time"":2667}]","2668","","","","","","","","","","","","","","",""
"","","","","","instructions","2","28153","0.0-2.0","0403619B5ED848A0A79ABA081779E95B","019d666a-ece3-76a0-9454-71cda89629c1","019d6630-2071-75cb-8026-6699844a2719","[{""page_index"":0,""viewing_time"":8581}]","8582","","","","","","","","","","","","","","",""
"true","","","","","fullscreen","3","53738","0.0-3.0","0403619B5ED848A0A79ABA081779E95B","019d666a-ece3-76a0-9454-71cda89629c1","019d6630-2071-75cb-8026-6699844a2719","","24583","","","","","","","","","","","","","","",""
"","","","","","instructions","4","78003","0.0-4.0","0403619B5ED848A0A79ABA081779E95B","019d666a-ece3-76a0-9454-71cda89629c1","019d6630-2071-75cb-8026-6699844a2719","[{""page_index"":0,""viewing_time"":24264}]","24265","","","","","","","","","","","","","","",""
"","","","","","instructions","5","84469","0.0-5.0","0403619B5ED848A0A79ABA081779E95B","019d666a-ece3-76a0-9454-71cda89629c1","019d6630-2071-75cb-8026-6699844a2719","[{""page_index"":0,""viewing_time"":6466}]","6466","","","","","","","","","","","","","","",""
"","","","","","html-keyboard-response","6","88473","0.0-6.0","0403619B5ED848A0A79ABA081779E95B","019d666a-ece3-76a0-9454-71cda89629c1","019d6630-2071-75cb-8026-6699844a2719","","null","
                <div class=""stimulus-container"">
                    <img src=""images/instructions/movie_1.png"" class=""exp-image"">
                    <div class=""question-area""></div> 
                </div>","null","","","","","","","","","","","","",""
"","","","","","html-button-response","7","91477","0.0-7.0","0403619B5ED848A0A79ABA081779E95B","019d666a-ece3-76a0-9454-71cda89629c1","019d6630-2071-75cb-8026-6699844a2719","","null","
                <div class=""stimulus-container"">
                    <img src=""images/instructions/movie_1.png"" class=""exp-image"">
                    <div class=""question-area"">
                        <p style=""font-size: 20px; font-weight: bold; margin: 0;"">Was there a person in this image?</p>
                    </div>
                </div>","null","example_question","1","","","","","","","","","","",""
"","","","","","html-keyboard-response","8","95479","0.0-8.0","0403619B5ED848A0A79ABA081779E95B","019d666a-ece3-76a0-9454-71cda89629c1","019d6630-2071-75cb-8026-6699844a2719","","null","
                <div class=""stimulus-container"">
                    <img src=""images/instructions/movie_2.png"" class=""exp-image"">
                    <div class=""question-area""></div> 
                </div>","null","","","","","","","","","","","","",""
"","","","","","html-button-response","9","96136","0.0-9.0","0403619B5ED848A0A79ABA081779E95B","019d666a-ece3-76a0-9454-71cda89629c1","019d6630-2071-75cb-8026-6699844a2719","","655","
                <div class=""stimulus-container"">
                    <img src=""images/instructions/movie_2.png"" class=""exp-image"">
                    <div class=""question-area"">
                        <p style=""font-size: 20px; font-weight: bold; margin: 0;"">Was there a person in this image?</p>
                    </div>
                </div>","0","example_question","2","","","","","","","","","","",""
"","","","","","html-keyboard-response","10","100139","0.0-10.0","0403619B5ED848A0A79ABA081779E95B","019d666a-ece3-76a0-9454-71cda89629c1","019d6630-2071-75cb-8026-6699844a2719","","null","
                <div class=""stimulus-container"">
                    <img src=""images/instructions/movie_3.png"" class=""exp-image"">
                    <div class=""question-area""></div> 
                </div>","null","","","","","","","","","","","","",""
"","","","","","html-button-response","11","100836","0.0-11.0","0403619B5ED848A0A79ABA081779E95B","019d666a-ece3-76a0-9454-71cda89629c1","019d6630-2071-75cb-8026-6699844a2719","","695","
                <div class=""stimulus-container"">
                    <img src=""images/instructions/movie_3.png"" class=""exp-image"">
                    <div class=""question-area"">
                        <p style=""font-size: 20px; font-weight: bold; margin: 0;"">Was there a person in this image?</p>
                    </div>
                </div>","0","example_question","3","","","","","","","","","","",""
"","","","","","html-keyboard-response","12","104839","0.0-12.0","0403619B5ED848A0A79ABA081779E95B","019d666a-ece3-76a0-9454-71cda89629c1","019d6630-2071-75cb-8026-6699844a2719","","null","
                <div class=""stimulus-container"">
                    <img src=""images/instructions/movie_4.png"" class=""exp-image"">
                    <div class=""question-area""></div> 
                </div>","null","","","","","","","","","","","","",""
"","","","","","html-button-response","13","105553","0.0-13.0","0403619B5ED848A0A79ABA081779E95B","019d666a-ece3-76a0-9454-71cda89629c1","019d6630-2071-75cb-8026-6699844a2719","","712","
                <div class=""stimulus-container"">
                    <img src=""images/instructions/movie_4.png"" class=""exp-image"">
                    <div class=""question-area"">
                        <p style=""font-size: 20px; font-weight: bold; margin: 0;"">Was there a person in this image?</p>
                    </div>
                </div>","0","example_question","4","","","","","","","","","","",""
"","","","","","instructions","14","108419","0.0-14.0","0403619B5ED848A0A79ABA081779E95B","019d666a-ece3-76a0-9454-71cda89629c1","019d6630-2071-75cb-8026-6699844a2719","[{""page_index"":0,""viewing_time"":2865}]","2865","","","","","","","","","","","","","","",""
"","","","","","instructions","15","125636","0.0-15.0","0403619B5ED848A0A79ABA081779E95B","019d666a-ece3-76a0-9454-71cda89629c1","019d6630-2071-75cb-8026-6699844a2719","[{""page_index"":0,""viewing_time"":17217}]","17217","","","","","","","","","","","","","","",""
"","","","","","html-keyboard-response","16","130638","0.0-16.0","0403619B5ED848A0A79ABA081779E95B","019d666a-ece3-76a0-9454-71cda89629c1","019d6630-2071-75cb-8026-6699844a2719","","null","<div style=""background-color: white; width: 100vw; height: 100vh;""></div>","null","","","","","","","","","","","","",""
"","","","","","html-keyboard-response","17","135641","0.0-17.0","0403619B5ED848A0A79ABA081779E95B","019d666a-ece3-76a0-9454-71cda89629c1","019d6630-2071-75cb-8026-6699844a2719","","null","
                <div class=""stimulus-container"">
                    <img src=""images/schematic_sequence/supermarket_scheme/supermarket_scheme_1.png"" class=""exp-image"">
                    <div class=""question-area""></div> 
                </div>","null","","","","","","","","","","","","",""
"","","","","","html-button-response","18","136502","0.0-18.0","0403619B5ED848A0A79ABA081779E95B","019d666a-ece3-76a0-9454-71cda89629c1","019d6630-2071-75cb-8026-6699844a2719","","859","
                <div class=""stimulus-container"">
                    <img src=""images/schematic_sequence/supermarket_scheme/supermarket_scheme_1.png"" class=""exp-image"">
                    <div class=""question-area"">
                        <p style=""font-size: 20px; font-weight: bold; margin: 0;"">Is there a person in this image?</p>
                    </div>
                </div>","1","main_experiment_trial","1","supermarket_scheme","schematic_sequence","chronological","","","","","","","",""
"","","","","","html-keyboard-response","19","141505","0.0-19.0","0403619B5ED848A0A79ABA081779E95B","019d666a-ece3-76a0-9454-71cda89629c1","019d6630-2071-75cb-8026-6699844a2719","","null","
                <div class=""stimulus-container"">
                    <img src=""images/schematic_sequence/supermarket_scheme/supermarket_scheme_2.png"" class=""exp-image"">
                    <div class=""question-area""></div> 
                </div>","null","","","","","","","","","","","","",""
"","","","","","html-button-response","20","142235","0.0-20.0","0403619B5ED848A0A79ABA081779E95B","019d666a-ece3-76a0-9454-71cda89629c1","019d6630-2071-75cb-8026-6699844a2719","","729","
                <div class=""stimulus-container"">
                    <img src=""images/schematic_sequence/supermarket_scheme/supermarket_scheme_2.png"" class=""exp-image"">
                    <div class=""question-area"">
                        <p style=""font-size: 20px; font-weight: bold; margin: 0;"">Is there a person in this image?</p>
                    </div>
                </div>","1","main_experiment_trial","2","supermarket_scheme","schematic_sequence","chronological","","","","","","","",""
"","","","","","html-keyboard-response","21","147238","0.0-21.0","0403619B5ED848A0A79ABA081779E95B","019d666a-ece3-76a0-9454-71cda89629c1","019d6630-2071-75cb-8026-6699844a2719","","null","
                <div class=""stimulus-container"">
                    <img src=""images/schematic_sequence/supermarket_scheme/supermarket_scheme_3.png"" class=""exp-image"">
                    <div class=""question-area""></div> 
                </div>","null","","","","","","","","","","","","",""
"","","","","","html-button-response","22","147835","0.0-22.0","0403619B5ED848A0A79ABA081779E95B","019d666a-ece3-76a0-9454-71cda89629c1","019d6630-2071-75cb-8026-6699844a2719","","596","
                <div class=""stimulus-container"">
                    <img src=""images/schematic_sequence/supermarket_scheme/supermarket_scheme_3.png"" class=""exp-image"">
                    <div class=""question-area"">
                        <p style=""font-size: 20px; font-weight: bold; margin: 0;"">Is there a person in this image?</p>
                    </div>
                </div>","1","main_experiment_trial","3","supermarket_scheme","schematic_sequence","chronological","","","","","","","",""
"","","","","","html-keyboard-response","23","152838","0.0-23.0","0403619B5ED848A0A79ABA081779E95B","019d666a-ece3-76a0-9454-71cda89629c1","019d6630-2071-75cb-8026-6699844a2719","","null","
                <div class=""stimulus-container"">
                    <img src=""images/schematic_sequence/supermarket_scheme/supermarket_scheme_4.png"" class=""exp-image"">
                    <div class=""question-area""></div> 
                </div>","null","","","","","","","","","","","","",""
"","","","","","html-button-response","24","153652","0.0-24.0","0403619B5ED848A0A79ABA081779E95B","019d666a-ece3-76a0-9454-71cda89629c1","019d6630-2071-75cb-8026-6699844a2719","","812","
                <div class=""stimulus-container"">
                    <img src=""images/schematic_sequence/supermarket_scheme/supermarket_scheme_4.png"" class=""exp-image"">
                    <div class=""question-area"">
                        <p style=""font-size: 20px; font-weight: bold; margin: 0;"">Is there a person in this image?</p>
                    </div>
                </div>","0","main_experiment_trial","4","supermarket_scheme","schematic_sequence","chronological","","","","","","","",""
"","","","","","html-keyboard-response","25","158654","0.0-25.0","0403619B5ED848A0A79ABA081779E95B","019d666a-ece3-76a0-9454-71cda89629c1","019d6630-2071-75cb-8026-6699844a2719","","null","
                <div class=""stimulus-container"">
                    <img src=""images/schematic_sequence/supermarket_scheme/supermarket_scheme_5.png"" class=""exp-image"">
                    <div class=""question-area""></div> 
                </div>","null","","","","","","","","","","","","",""
"","","","","","html-button-response","26","160268","0.0-26.0","0403619B5ED848A0A79ABA081779E95B","019d666a-ece3-76a0-9454-71cda89629c1","019d6630-2071-75cb-8026-6699844a2719","","1612","
                <div class=""stimulus-container"">
                    <img src=""images/schematic_sequence/supermarket_scheme/supermarket_scheme_5.png"" class=""exp-image"">
                    <div class=""question-area"">
                        <p style=""font-size: 20px; font-weight: bold; margin: 0;"">Is there a person in this image?</p>
                    </div>
                </div>","1","main_experiment_trial","5","supermarket_scheme","schematic_sequence","chronological","","","","","","","",""
"","","","","","html-keyboard-response","27","165271","0.0-27.0","0403619B5ED848A0A79ABA081779E95B","019d666a-ece3-76a0-9454-71cda89629c1","019d6630-2071-75cb-8026-6699844a2719","","null","
                <div class=""stimulus-container"">
                    <img src=""images/schematic_sequence/supermarket_scheme/supermarket_scheme_6.png"" class=""exp-image"">
                    <div class=""question-area""></div> 
                </div>","null","","","","","","","","","","","","",""
"","","","","","html-button-response","28","165968","0.0-28.0","0403619B5ED848A0A79ABA081779E95B","019d666a-ece3-76a0-9454-71cda89629c1","019d6630-2071-75cb-8026-6699844a2719","","695","
                <div class=""stimulus-container"">
                    <img src=""images/schematic_sequence/supermarket_scheme/supermarket_scheme_6.png"" class=""exp-image"">
                    <div class=""question-area"">
                        <p style=""font-size: 20px; font-weight: bold; margin: 0;"">Is there a person in this image?</p>
                    </div>
                </div>","0","main_experiment_trial","6","supermarket_scheme","schematic_sequence","chronological","","","","","","","",""
"","","","","","html-keyboard-response","29","170970","0.0-29.0","0403619B5ED848A0A79ABA081779E95B","019d666a-ece3-76a0-9454-71cda89629c1","019d6630-2071-75cb-8026-6699844a2719","","null","
                <div class=""stimulus-container"">
                    <img src=""images/schematic_sequence/supermarket_scheme/supermarket_scheme_7.png"" class=""exp-image"">
                    <div class=""question-area""></div> 
                </div>","null","","","","","","","","","","","","",""
"","","","","","html-button-response","30","171485","0.0-30.0","0403619B5ED848A0A79ABA081779E95B","019d666a-ece3-76a0-9454-71cda89629c1","019d6630-2071-75cb-8026-6699844a2719","","513","
                <div class=""stimulus-container"">
                    <img src=""images/schematic_sequence/supermarket_scheme/supermarket_scheme_7.png"" class=""exp-image"">
                    <div class=""question-area"">
                        <p style=""font-size: 20px; font-weight: bold; margin: 0;"">Is there a person in this image?</p>
                    </div>
                </div>","0","main_experiment_trial","7","supermarket_scheme","schematic_sequence","chronological","","","","","","","",""
"","","","","","html-keyboard-response","31","176488","0.0-31.0","0403619B5ED848A0A79ABA081779E95B","019d666a-ece3-76a0-9454-71cda89629c1","019d6630-2071-75cb-8026-6699844a2719","","null","
                <div class=""stimulus-container"">
                    <img src=""images/schematic_sequence/supermarket_scheme/supermarket_scheme_8.png"" class=""exp-image"">
                    <div class=""question-area""></div> 
                </div>","null","","","","","","","","","","","","",""
"","","","","","html-button-response","32","177052","0.0-32.0","0403619B5ED848A0A79ABA081779E95B","019d666a-ece3-76a0-9454-71cda89629c1","019d6630-2071-75cb-8026-6699844a2719","","562","
                <div class=""stimulus-container"">
                    <img src=""images/schematic_sequence/supermarket_scheme/supermarket_scheme_8.png"" class=""exp-image"">
                    <div class=""question-area"">
                        <p style=""font-size: 20px; font-weight: bold; margin: 0;"">Is there a person in this image?</p>
                    </div>
                </div>","0","main_experiment_trial","8","supermarket_scheme","schematic_sequence","chronological","","","","","","","",""
"","","","","","html-keyboard-response","33","182054","0.0-33.0","0403619B5ED848A0A79ABA081779E95B","019d666a-ece3-76a0-9454-71cda89629c1","019d6630-2071-75cb-8026-6699844a2719","","null","
                <div class=""stimulus-container"">
                    <img src=""images/schematic_sequence/supermarket_scheme/supermarket_scheme_9.png"" class=""exp-image"">
                    <div class=""question-area""></div> 
                </div>","null","","","","","","","","","","","","",""
"","","","","","html-button-response","34","182967","0.0-34.0","0403619B5ED848A0A79ABA081779E95B","019d666a-ece3-76a0-9454-71cda89629c1","019d6630-2071-75cb-8026-6699844a2719","","912","
                <div class=""stimulus-container"">
                    <img src=""images/schematic_sequence/supermarket_scheme/supermarket_scheme_9.png"" class=""exp-image"">
                    <div class=""question-area"">
                        <p style=""font-size: 20px; font-weight: bold; margin: 0;"">Is there a person in this image?</p>
                    </div>
                </div>","0","main_experiment_trial","9","supermarket_scheme","schematic_sequence","chronological","","","","","","","",""
"","","","","","html-keyboard-response","35","187970","0.0-35.0","0403619B5ED848A0A79ABA081779E95B","019d666a-ece3-76a0-9454-71cda89629c1","019d6630-2071-75cb-8026-6699844a2719","","null","
                <div class=""stimulus-container"">
                    <img src=""images/schematic_sequence/supermarket_scheme/supermarket_scheme_ten.png"" class=""exp-image"">
                    <div class=""question-area""></div> 
                </div>","null","","","","","","","","","","","","",""
"","","","","","html-button-response","36","188484","0.0-36.0","0403619B5ED848A0A79ABA081779E95B","019d666a-ece3-76a0-9454-71cda89629c1","019d6630-2071-75cb-8026-6699844a2719","","513","
                <div class=""stimulus-container"">
                    <img src=""images/schematic_sequence/supermarket_scheme/supermarket_scheme_ten.png"" class=""exp-image"">
                    <div class=""question-area"">
                        <p style=""font-size: 20px; font-weight: bold; margin: 0;"">Is there a person in this image?</p>
                    </div>
                </div>","1","main_experiment_trial","ten","supermarket_scheme","schematic_sequence","chronological","","","","","","","",""
"","","","","","html-keyboard-response","37","193487","0.0-37.0","0403619B5ED848A0A79ABA081779E95B","019d666a-ece3-76a0-9454-71cda89629c1","019d6630-2071-75cb-8026-6699844a2719","","null","<div style=""background-color: white; width: 100vw; height: 100vh;""></div>","null","","","","","","","","","","","","",""
"","","","","","html-keyboard-response","38","198489","0.0-38.0","0403619B5ED848A0A79ABA081779E95B","019d666a-ece3-76a0-9454-71cda89629c1","019d6630-2071-75cb-8026-6699844a2719","","null","
                <div class=""stimulus-container"">
                    <img src=""images/schematic_sequence/dinner_party_scheme/dinner_party_scheme_1.png"" class=""exp-image"">
                    <div class=""question-area""></div> 
                </div>","null","","","","","","","","","","","","",""
"","","","","","html-button-response","39","199384","0.0-39.0","0403619B5ED848A0A79ABA081779E95B","019d666a-ece3-76a0-9454-71cda89629c1","019d6630-2071-75cb-8026-6699844a2719","","894","
                <div class=""stimulus-container"">
                    <img src=""images/schematic_sequence/dinner_party_scheme/dinner_party_scheme_1.png"" class=""exp-image"">
                    <div class=""question-area"">
                        <p style=""font-size: 20px; font-weight: bold; margin: 0;"">Is there a person in this image?</p>
                    </div>
                </div>","0","main_experiment_trial","1","dinner_party_scheme","schematic_sequence","chronological","","","","","","","",""
"","","","","","html-keyboard-response","40","204385","0.0-40.0","0403619B5ED848A0A79ABA081779E95B","019d666a-ece3-76a0-9454-71cda89629c1","019d6630-2071-75cb-8026-6699844a2719","","null","
                <div class=""stimulus-container"">
                    <img src=""images/schematic_sequence/dinner_party_scheme/dinner_party_scheme_2.png"" class=""exp-image"">
                    <div class=""question-area""></div> 
                </div>","null","","","","","","","","","","","","",""
"","","","","","html-button-response","41","205234","0.0-41.0","0403619B5ED848A0A79ABA081779E95B","019d666a-ece3-76a0-9454-71cda89629c1","019d6630-2071-75cb-8026-6699844a2719","","847","
                <div class=""stimulus-container"">
                    <img src=""images/schematic_sequence/dinner_party_scheme/dinner_party_scheme_2.png"" class=""exp-image"">
                    <div class=""question-area"">
                        <p style=""font-size: 20px; font-weight: bold; margin: 0;"">Is there a person in this image?</p>
                    </div>
                </div>","0","main_experiment_trial","2","dinner_party_scheme","schematic_sequence","chronological","","","","","","","",""
"","","","","","html-keyboard-response","42","210236","0.0-42.0","0403619B5ED848A0A79ABA081779E95B","019d666a-ece3-76a0-9454-71cda89629c1","019d6630-2071-75cb-8026-6699844a2719","","null","
                <div class=""stimulus-container"">
                    <img src=""images/schematic_sequence/dinner_party_scheme/dinner_party_scheme_3.png"" class=""exp-image"">
                    <div class=""question-area""></div> 
                </div>","null","","","","","","","","","","","","",""
"","","","","","html-button-response","43","211100","0.0-43.0","0403619B5ED848A0A79ABA081779E95B","019d666a-ece3-76a0-9454-71cda89629c1","019d6630-2071-75cb-8026-6699844a2719","","862","
                <div class=""stimulus-container"">
                    <img src=""images/schematic_sequence/dinner_party_scheme/dinner_party_scheme_3.png"" class=""exp-image"">
                    <div class=""question-area"">
                        <p style=""font-size: 20px; font-weight: bold; margin: 0;"">Is there a person in this image?</p>
                    </div>
                </div>","0","main_experiment_trial","3","dinner_party_scheme","schematic_sequence","chronological","","","","","","","",""
"","","","","","html-keyboard-response","44","216103","0.0-44.0","0403619B5ED848A0A79ABA081779E95B","019d666a-ece3-76a0-9454-71cda89629c1","019d6630-2071-75cb-8026-6699844a2719","","null","
                <div class=""stimulus-container"">
                    <img src=""images/schematic_sequence/dinner_party_scheme/dinner_party_scheme_4.png"" class=""exp-image"">
                    <div class=""question-area""></div> 
                </div>","null","","","","","","","","","","","","",""
"","","","","","html-button-response","45","216884","0.0-45.0","0403619B5ED848A0A79ABA081779E95B","019d666a-ece3-76a0-9454-71cda89629c1","019d6630-2071-75cb-8026-6699844a2719","","779","
                <div class=""stimulus-container"">
                    <img src=""images/schematic_sequence/dinner_party_scheme/dinner_party_scheme_4.png"" class=""exp-image"">
                    <div class=""question-area"">
                        <p style=""font-size: 20px; font-weight: bold; margin: 0;"">Is there a person in this image?</p>
                    </div>
                </div>","0","main_experiment_trial","4","dinner_party_scheme","schematic_sequence","chronological","","","","","","","",""
"","","","","","html-keyboard-response","46","221885","0.0-46.0","0403619B5ED848A0A79ABA081779E95B","019d666a-ece3-76a0-9454-71cda89629c1","019d6630-2071-75cb-8026-6699844a2719","","null","
                <div class=""stimulus-container"">
                    <img src=""images/schematic_sequence/dinner_party_scheme/dinner_party_scheme_5.png"" class=""exp-image"">
                    <div class=""question-area""></div> 
                </div>","null","","","","","","","","","","","","",""
"","","","","","html-button-response","47","222484","0.0-47.0","0403619B5ED848A0A79ABA081779E95B","019d666a-ece3-76a0-9454-71cda89629c1","019d6630-2071-75cb-8026-6699844a2719","","597","
                <div class=""stimulus-container"">
                    <img src=""images/schematic_sequence/dinner_party_scheme/dinner_party_scheme_5.png"" class=""exp-image"">
                    <div class=""question-area"">
                        <p style=""font-size: 20px; font-weight: bold; margin: 0;"">Is there a person in this image?</p>
                    </div>
                </div>","0","main_experiment_trial","5","dinner_party_scheme","schematic_sequence","chronological","","","","","","","",""
"","","","","","html-keyboard-response","48","227486","0.0-48.0","0403619B5ED848A0A79ABA081779E95B","019d666a-ece3-76a0-9454-71cda89629c1","019d6630-2071-75cb-8026-6699844a2719","","null","
                <div class=""stimulus-container"">
                    <img src=""images/schematic_sequence/dinner_party_scheme/dinner_party_scheme_6.png"" class=""exp-image"">
                    <div class=""question-area""></div> 
                </div>","null","","","","","","","","","","","","",""
"","","","","","html-button-response","49","228284","0.0-49.0","0403619B5ED848A0A79ABA081779E95B","019d666a-ece3-76a0-9454-71cda89629c1","019d6630-2071-75cb-8026-6699844a2719","","797","
                <div class=""stimulus-container"">
                    <img src=""images/schematic_sequence/dinner_party_scheme/dinner_party_scheme_6.png"" class=""exp-image"">
                    <div class=""question-area"">
                        <p style=""font-size: 20px; font-weight: bold; margin: 0;"">Is there a person in this image?</p>
                    </div>
                </div>","0","main_experiment_trial","6","dinner_party_scheme","schematic_sequence","chronological","","","","","","","",""
"","","","","","html-keyboard-response","50","233286","0.0-50.0","0403619B5ED848A0A79ABA081779E95B","019d666a-ece3-76a0-9454-71cda89629c1","019d6630-2071-75cb-8026-6699844a2719","","null","
                <div class=""stimulus-container"">
                    <img src=""images/schematic_sequence/dinner_party_scheme/dinner_party_scheme_7.png"" class=""exp-image"">
                    <div class=""question-area""></div> 
                </div>","null","","","","","","","","","","","","",""
"","","","","","html-button-response","51","233934","0.0-51.0","0403619B5ED848A0A79ABA081779E95B","019d666a-ece3-76a0-9454-71cda89629c1","019d6630-2071-75cb-8026-6699844a2719","","645","
                <div class=""stimulus-container"">
                    <img src=""images/schematic_sequence/dinner_party_scheme/dinner_party_scheme_7.png"" class=""exp-image"">
                    <div class=""question-area"">
                        <p style=""font-size: 20px; font-weight: bold; margin: 0;"">Is there a person in this image?</p>
                    </div>
                </div>","0","main_experiment_trial","7","dinner_party_scheme","schematic_sequence","chronological","","","","","","","",""
"","","","","","html-keyboard-response","52","238937","0.0-52.0","0403619B5ED848A0A79ABA081779E95B","019d666a-ece3-76a0-9454-71cda89629c1","019d6630-2071-75cb-8026-6699844a2719","","null","
                <div class=""stimulus-container"">
                    <img src=""images/schematic_sequence/dinner_party_scheme/dinner_party_scheme_8.png"" class=""exp-image"">
                    <div class=""question-area""></div> 
                </div>","null","","","","","","","","","","","","",""
"","","","","","html-button-response","53","240767","0.0-53.0","0403619B5ED848A0A79ABA081779E95B","019d666a-ece3-76a0-9454-71cda89629c1","019d6630-2071-75cb-8026-6699844a2719","","1829","
                <div class=""stimulus-container"">
                    <img src=""images/schematic_sequence/dinner_party_scheme/dinner_party_scheme_8.png"" class=""exp-image"">
                    <div class=""question-area"">
                        <p style=""font-size: 20px; font-weight: bold; margin: 0;"">Is there a person in this image?</p>
                    </div>
                </div>","0","main_experiment_trial","8","dinner_party_scheme","schematic_sequence","chronological","","","","","","","",""
"","","","","","html-keyboard-response","54","245769","0.0-54.0","0403619B5ED848A0A79ABA081779E95B","019d666a-ece3-76a0-9454-71cda89629c1","019d6630-2071-75cb-8026-6699844a2719","","null","
                <div class=""stimulus-container"">
                    <img src=""images/schematic_sequence/dinner_party_scheme/dinner_party_scheme_9.png"" class=""exp-image"">
                    <div class=""question-area""></div> 
                </div>","null","","","","","","","","","","","","",""
"","","","","","html-button-response","55","246451","0.0-55.0","0403619B5ED848A0A79ABA081779E95B","019d666a-ece3-76a0-9454-71cda89629c1","019d6630-2071-75cb-8026-6699844a2719","","680","
                <div class=""stimulus-container"">
                    <img src=""images/schematic_sequence/dinner_party_scheme/dinner_party_scheme_9.png"" class=""exp-image"">
                    <div class=""question-area"">
                        <p style=""font-size: 20px; font-weight: bold; margin: 0;"">Is there a person in this image?</p>
                    </div>
                </div>","0","main_experiment_trial","9","dinner_party_scheme","schematic_sequence","chronological","","","","","","","",""
"","","","","","html-keyboard-response","56","251453","0.0-56.0","0403619B5ED848A0A79ABA081779E95B","019d666a-ece3-76a0-9454-71cda89629c1","019d6630-2071-75cb-8026-6699844a2719","","null","
                <div class=""stimulus-container"">
                    <img src=""images/schematic_sequence/dinner_party_scheme/dinner_party_scheme_ten.png"" class=""exp-image"">
                    <div class=""question-area""></div> 
                </div>","null","","","","","","","","","","","","",""
"","","","","","html-button-response","57","252600","0.0-57.0","0403619B5ED848A0A79ABA081779E95B","019d666a-ece3-76a0-9454-71cda89629c1","019d6630-2071-75cb-8026-6699844a2719","","1145","
                <div class=""stimulus-container"">
                    <img src=""images/schematic_sequence/dinner_party_scheme/dinner_party_scheme_ten.png"" class=""exp-image"">
                    <div class=""question-area"">
                        <p style=""font-size: 20px; font-weight: bold; margin: 0;"">Is there a person in this image?</p>
                    </div>
                </div>","0","main_experiment_trial","ten","dinner_party_scheme","schematic_sequence","chronological","","","","","","","",""
"","","","","","html-keyboard-response","58","257602","0.0-58.0","0403619B5ED848A0A79ABA081779E95B","019d666a-ece3-76a0-9454-71cda89629c1","019d6630-2071-75cb-8026-6699844a2719","","null","<div style=""background-color: white; width: 100vw; height: 100vh;""></div>","null","","","","","","","","","","","","",""
"","","","","","html-keyboard-response","59","262604","0.0-59.0","0403619B5ED848A0A79ABA081779E95B","019d666a-ece3-76a0-9454-71cda89629c1","019d6630-2071-75cb-8026-6699844a2719","","null","
                <div class=""stimulus-container"">
                    <img src=""images/semantic_sequence/maintaining_a_car_semantic/maintaining_a_car_semantic_1.png"" class=""exp-image"">
                    <div class=""question-area""></div> 
                </div>","null","","","","","","","","","","","","",""
"","","","","","html-button-response","60","263449","0.0-60.0","0403619B5ED848A0A79ABA081779E95B","019d666a-ece3-76a0-9454-71cda89629c1","019d6630-2071-75cb-8026-6699844a2719","","843","
                <div class=""stimulus-container"">
                    <img src=""images/semantic_sequence/maintaining_a_car_semantic/maintaining_a_car_semantic_1.png"" class=""exp-image"">
                    <div class=""question-area"">
                        <p style=""font-size: 20px; font-weight: bold; margin: 0;"">Is there a person in this image?</p>
                    </div>
                </div>","0","main_experiment_trial","1","maintaining_a_car_semantic","semantic_sequence","chronological","","","","","","","",""
"","","","","","html-keyboard-response","61","268452","0.0-61.0","0403619B5ED848A0A79ABA081779E95B","019d666a-ece3-76a0-9454-71cda89629c1","019d6630-2071-75cb-8026-6699844a2719","","null","
                <div class=""stimulus-container"">
                    <img src=""images/semantic_sequence/maintaining_a_car_semantic/maintaining_a_car_semantic_2.png"" class=""exp-image"">
                    <div class=""question-area""></div> 
                </div>","null","","","","","","","","","","","","",""
"","","","","","html-button-response","62","269198","0.0-62.0","0403619B5ED848A0A79ABA081779E95B","019d666a-ece3-76a0-9454-71cda89629c1","019d6630-2071-75cb-8026-6699844a2719","","745","
                <div class=""stimulus-container"">
                    <img src=""images/semantic_sequence/maintaining_a_car_semantic/maintaining_a_car_semantic_2.png"" class=""exp-image"">
                    <div class=""question-area"">
                        <p style=""font-size: 20px; font-weight: bold; margin: 0;"">Is there a person in this image?</p>
                    </div>
                </div>","0","main_experiment_trial","2","maintaining_a_car_semantic","semantic_sequence","chronological","","","","","","","",""
"","","","","","html-keyboard-response","63","274200","0.0-63.0","0403619B5ED848A0A79ABA081779E95B","019d666a-ece3-76a0-9454-71cda89629c1","019d6630-2071-75cb-8026-6699844a2719","","null","
                <div class=""stimulus-container"">
                    <img src=""images/semantic_sequence/maintaining_a_car_semantic/maintaining_a_car_semantic_3.png"" class=""exp-image"">
                    <div class=""question-area""></div> 
                </div>","null","","","","","","","","","","","","",""
"","","","","","html-button-response","64","275316","0.0-64.0","0403619B5ED848A0A79ABA081779E95B","019d666a-ece3-76a0-9454-71cda89629c1","019d6630-2071-75cb-8026-6699844a2719","","1115","
                <div class=""stimulus-container"">
                    <img src=""images/semantic_sequence/maintaining_a_car_semantic/maintaining_a_car_semantic_3.png"" class=""exp-image"">
                    <div class=""question-area"">
                        <p style=""font-size: 20px; font-weight: bold; margin: 0;"">Is there a person in this image?</p>
                    </div>
                </div>","0","main_experiment_trial","3","maintaining_a_car_semantic","semantic_sequence","chronological","","","","","","","",""
"","","","","","html-keyboard-response","65","280319","0.0-65.0","0403619B5ED848A0A79ABA081779E95B","019d666a-ece3-76a0-9454-71cda89629c1","019d6630-2071-75cb-8026-6699844a2719","","null","
                <div class=""stimulus-container"">
                    <img src=""images/semantic_sequence/maintaining_a_car_semantic/maintaining_a_car_semantic_4.png"" class=""exp-image"">
                    <div class=""question-area""></div> 
                </div>","null","","","","","","","","","","","","",""
"","","","","","html-button-response","66","281816","0.0-66.0","0403619B5ED848A0A79ABA081779E95B","019d666a-ece3-76a0-9454-71cda89629c1","019d6630-2071-75cb-8026-6699844a2719","","1496","
                <div class=""stimulus-container"">
                    <img src=""images/semantic_sequence/maintaining_a_car_semantic/maintaining_a_car_semantic_4.png"" class=""exp-image"">
                    <div class=""question-area"">
                        <p style=""font-size: 20px; font-weight: bold; margin: 0;"">Is there a person in this image?</p>
                    </div>
                </div>","0","main_experiment_trial","4","maintaining_a_car_semantic","semantic_sequence","chronological","","","","","","","",""
"","","","","","html-keyboard-response","67","286820","0.0-67.0","0403619B5ED848A0A79ABA081779E95B","019d666a-ece3-76a0-9454-71cda89629c1","019d6630-2071-75cb-8026-6699844a2719","","null","
                <div class=""stimulus-container"">
                    <img src=""images/semantic_sequence/maintaining_a_car_semantic/maintaining_a_car_semantic_5.png"" class=""exp-image"">
                    <div class=""question-area""></div> 
                </div>","null","","","","","","","","","","","","",""
"","","","","","html-button-response","68","287866","0.0-68.0","0403619B5ED848A0A79ABA081779E95B","019d666a-ece3-76a0-9454-71cda89629c1","019d6630-2071-75cb-8026-6699844a2719","","1045","
                <div class=""stimulus-container"">
                    <img src=""images/semantic_sequence/maintaining_a_car_semantic/maintaining_a_car_semantic_5.png"" class=""exp-image"">
                    <div class=""question-area"">
                        <p style=""font-size: 20px; font-weight: bold; margin: 0;"">Is there a person in this image?</p>
                    </div>
                </div>","0","main_experiment_trial","5","maintaining_a_car_semantic","semantic_sequence","chronological","","","","","","","",""
"","","","","","html-keyboard-response","69","292869","0.0-69.0","0403619B5ED848A0A79ABA081779E95B","019d666a-ece3-76a0-9454-71cda89629c1","019d6630-2071-75cb-8026-6699844a2719","","null","
                <div class=""stimulus-container"">
                    <img src=""images/semantic_sequence/maintaining_a_car_semantic/maintaining_a_car_semantic_6.png"" class=""exp-image"">
                    <div class=""question-area""></div> 
                </div>","null","","","","","","","","","","","","",""
"","","","","","html-button-response","70","293833","0.0-70.0","0403619B5ED848A0A79ABA081779E95B","019d666a-ece3-76a0-9454-71cda89629c1","019d6630-2071-75cb-8026-6699844a2719","","962","
                <div class=""stimulus-container"">
                    <img src=""images/semantic_sequence/maintaining_a_car_semantic/maintaining_a_car_semantic_6.png"" class=""exp-image"">
                    <div class=""question-area"">
                        <p style=""font-size: 20px; font-weight: bold; margin: 0;"">Is there a person in this image?</p>
                    </div>
                </div>","0","main_experiment_trial","6","maintaining_a_car_semantic","semantic_sequence","chronological","","","","","","","",""
"","","","","","html-keyboard-response","71","298836","0.0-71.0","0403619B5ED848A0A79ABA081779E95B","019d666a-ece3-76a0-9454-71cda89629c1","019d6630-2071-75cb-8026-6699844a2719","","null","
                <div class=""stimulus-container"">
                    <img src=""images/semantic_sequence/maintaining_a_car_semantic/maintaining_a_car_semantic_7.png"" class=""exp-image"">
                    <div class=""question-area""></div> 
                </div>","null","","","","","","","","","","","","",""
"","","","","","html-button-response","72","299749","0.0-72.0","0403619B5ED848A0A79ABA081779E95B","019d666a-ece3-76a0-9454-71cda89629c1","019d6630-2071-75cb-8026-6699844a2719","","912","
                <div class=""stimulus-container"">
                    <img src=""images/semantic_sequence/maintaining_a_car_semantic/maintaining_a_car_semantic_7.png"" class=""exp-image"">
                    <div class=""question-area"">
                        <p style=""font-size: 20px; font-weight: bold; margin: 0;"">Is there a person in this image?</p>
                    </div>
                </div>","0","main_experiment_trial","7","maintaining_a_car_semantic","semantic_sequence","chronological","","","","","","","",""
"","","","","","html-keyboard-response","73","304751","0.0-73.0","0403619B5ED848A0A79ABA081779E95B","019d666a-ece3-76a0-9454-71cda89629c1","019d6630-2071-75cb-8026-6699844a2719","","null","
                <div class=""stimulus-container"">
                    <img src=""images/semantic_sequence/maintaining_a_car_semantic/maintaining_a_car_semantic_8.png"" class=""exp-image"">
                    <div class=""question-area""></div> 
                </div>","null","","","","","","","","","","","","",""
"","","","","","html-button-response","74","305649","0.0-74.0","0403619B5ED848A0A79ABA081779E95B","019d666a-ece3-76a0-9454-71cda89629c1","019d6630-2071-75cb-8026-6699844a2719","","896","
                <div class=""stimulus-container"">
                    <img src=""images/semantic_sequence/maintaining_a_car_semantic/maintaining_a_car_semantic_8.png"" class=""exp-image"">
                    <div class=""question-area"">
                        <p style=""font-size: 20px; font-weight: bold; margin: 0;"">Is there a person in this image?</p>
                    </div>
                </div>","0","main_experiment_trial","8","maintaining_a_car_semantic","semantic_sequence","chronological","","","","","","","",""
"","","","","","html-keyboard-response","75","310652","0.0-75.0","0403619B5ED848A0A79ABA081779E95B","019d666a-ece3-76a0-9454-71cda89629c1","019d6630-2071-75cb-8026-6699844a2719","","null","
                <div class=""stimulus-container"">
                    <img src=""images/semantic_sequence/maintaining_a_car_semantic/maintaining_a_car_semantic_9.png"" class=""exp-image"">
                    <div class=""question-area""></div> 
                </div>","null","","","","","","","","","","","","",""
"","","","","","html-button-response","76","311632","0.0-76.0","0403619B5ED848A0A79ABA081779E95B","019d666a-ece3-76a0-9454-71cda89629c1","019d6630-2071-75cb-8026-6699844a2719","","979","
                <div class=""stimulus-container"">
                    <img src=""images/semantic_sequence/maintaining_a_car_semantic/maintaining_a_car_semantic_9.png"" class=""exp-image"">
                    <div class=""question-area"">
                        <p style=""font-size: 20px; font-weight: bold; margin: 0;"">Is there a person in this image?</p>
                    </div>
                </div>","0","main_experiment_trial","9","maintaining_a_car_semantic","semantic_sequence","chronological","","","","","","","",""
"","","","","","html-keyboard-response","77","316634","0.0-77.0","0403619B5ED848A0A79ABA081779E95B","019d666a-ece3-76a0-9454-71cda89629c1","019d6630-2071-75cb-8026-6699844a2719","","null","
                <div class=""stimulus-container"">
                    <img src=""images/semantic_sequence/maintaining_a_car_semantic/maintaining_a_car_semantic_ten.png"" class=""exp-image"">
                    <div class=""question-area""></div> 
                </div>","null","","","","","","","","","","","","",""
"","","","","","html-button-response","78","317498","0.0-78.0","0403619B5ED848A0A79ABA081779E95B","019d666a-ece3-76a0-9454-71cda89629c1","019d6630-2071-75cb-8026-6699844a2719","","862","
                <div class=""stimulus-container"">
                    <img src=""images/semantic_sequence/maintaining_a_car_semantic/maintaining_a_car_semantic_ten.png"" class=""exp-image"">
                    <div class=""question-area"">
                        <p style=""font-size: 20px; font-weight: bold; margin: 0;"">Is there a person in this image?</p>
                    </div>
                </div>","0","main_experiment_trial","ten","maintaining_a_car_semantic","semantic_sequence","chronological","","","","","","","",""
"","","","","","html-keyboard-response","79","322501","0.0-79.0","0403619B5ED848A0A79ABA081779E95B","019d666a-ece3-76a0-9454-71cda89629c1","019d6630-2071-75cb-8026-6699844a2719","","null","<div style=""background-color: white; width: 100vw; height: 100vh;""></div>","null","","","","","","","","","","","","",""
"","","","","","html-keyboard-response","80","327503","0.0-80.0","0403619B5ED848A0A79ABA081779E95B","019d666a-ece3-76a0-9454-71cda89629c1","019d6630-2071-75cb-8026-6699844a2719","","null","
                <div class=""stimulus-container"">
                    <img src=""images/causal_sequence/package_causal/package_causal_1.png"" class=""exp-image"">
                    <div class=""question-area""></div> 
                </div>","null","","","","","","","","","","","","",""
"","","","","","html-button-response","81","328832","0.0-81.0","0403619B5ED848A0A79ABA081779E95B","019d666a-ece3-76a0-9454-71cda89629c1","019d6630-2071-75cb-8026-6699844a2719","","1327","
                <div class=""stimulus-container"">
                    <img src=""images/causal_sequence/package_causal/package_causal_1.png"" class=""exp-image"">
                    <div class=""question-area"">
                        <p style=""font-size: 20px; font-weight: bold; margin: 0;"">Is there a person in this image?</p>
                    </div>
                </div>","0","main_experiment_trial","1","package_causal","causal_sequence","chronological","","","","","","","",""
"","","","","","html-keyboard-response","82","333835","0.0-82.0","0403619B5ED848A0A79ABA081779E95B","019d666a-ece3-76a0-9454-71cda89629c1","019d6630-2071-75cb-8026-6699844a2719","","null","
                <div class=""stimulus-container"">
                    <img src=""images/causal_sequence/package_causal/package_causal_2.png"" class=""exp-image"">
                    <div class=""question-area""></div> 
                </div>","null","","","","","","","","","","","","",""
"","","","","","html-button-response","83","334631","0.0-83.0","0403619B5ED848A0A79ABA081779E95B","019d666a-ece3-76a0-9454-71cda89629c1","019d6630-2071-75cb-8026-6699844a2719","","794","
                <div class=""stimulus-container"">
                    <img src=""images/causal_sequence/package_causal/package_causal_2.png"" class=""exp-image"">
                    <div class=""question-area"">
                        <p style=""font-size: 20px; font-weight: bold; margin: 0;"">Is there a person in this image?</p>
                    </div>
                </div>","0","main_experiment_trial","2","package_causal","causal_sequence","chronological","","","","","","","",""
"","","","","","html-keyboard-response","84","339633","0.0-84.0","0403619B5ED848A0A79ABA081779E95B","019d666a-ece3-76a0-9454-71cda89629c1","019d6630-2071-75cb-8026-6699844a2719","","null","
                <div class=""stimulus-container"">
                    <img src=""images/causal_sequence/package_causal/package_causal_3.png"" class=""exp-image"">
                    <div class=""question-area""></div> 
                </div>","null","","","","","","","","","","","","",""
"","","","","","html-button-response","85","340199","0.0-85.0","0403619B5ED848A0A79ABA081779E95B","019d666a-ece3-76a0-9454-71cda89629c1","019d6630-2071-75cb-8026-6699844a2719","","564","
                <div class=""stimulus-container"">
                    <img src=""images/causal_sequence/package_causal/package_causal_3.png"" class=""exp-image"">
                    <div class=""question-area"">
                        <p style=""font-size: 20px; font-weight: bold; margin: 0;"">Is there a person in this image?</p>
                    </div>
                </div>","0","main_experiment_trial","3","package_causal","causal_sequence","chronological","","","","","","","",""
"","","","","","html-keyboard-response","86","345201","0.0-86.0","0403619B5ED848A0A79ABA081779E95B","019d666a-ece3-76a0-9454-71cda89629c1","019d6630-2071-75cb-8026-6699844a2719","","null","
                <div class=""stimulus-container"">
                    <img src=""images/causal_sequence/package_causal/package_causal_4.png"" class=""exp-image"">
                    <div class=""question-area""></div> 
                </div>","null","","","","","","","","","","","","",""
"","","","","","html-button-response","87","346515","0.0-87.0","0403619B5ED848A0A79ABA081779E95B","019d666a-ece3-76a0-9454-71cda89629c1","019d6630-2071-75cb-8026-6699844a2719","","1313","
                <div class=""stimulus-container"">
                    <img src=""images/causal_sequence/package_causal/package_causal_4.png"" class=""exp-image"">
                    <div class=""question-area"">
                        <p style=""font-size: 20px; font-weight: bold; margin: 0;"">Is there a person in this image?</p>
                    </div>
                </div>","1","main_experiment_trial","4","package_causal","causal_sequence","chronological","","","","","","","",""
"","","","","","html-keyboard-response","88","351518","0.0-88.0","0403619B5ED848A0A79ABA081779E95B","019d666a-ece3-76a0-9454-71cda89629c1","019d6630-2071-75cb-8026-6699844a2719","","null","
                <div class=""stimulus-container"">
                    <img src=""images/causal_sequence/package_causal/package_causal_5.png"" class=""exp-image"">
                    <div class=""question-area""></div> 
                </div>","null","","","","","","","","","","","","",""
"","","","","","html-button-response","89","352848","0.0-89.0","0403619B5ED848A0A79ABA081779E95B","019d666a-ece3-76a0-9454-71cda89629c1","019d6630-2071-75cb-8026-6699844a2719","","1328","
                <div class=""stimulus-container"">
                    <img src=""images/causal_sequence/package_causal/package_causal_5.png"" class=""exp-image"">
                    <div class=""question-area"">
                        <p style=""font-size: 20px; font-weight: bold; margin: 0;"">Is there a person in this image?</p>
                    </div>
                </div>","0","main_experiment_trial","5","package_causal","causal_sequence","chronological","","","","","","","",""
"","","","","","html-keyboard-response","90","357851","0.0-90.0","0403619B5ED848A0A79ABA081779E95B","019d666a-ece3-76a0-9454-71cda89629c1","019d6630-2071-75cb-8026-6699844a2719","","null","
                <div class=""stimulus-container"">
                    <img src=""images/causal_sequence/package_causal/package_causal_6.png"" class=""exp-image"">
                    <div class=""question-area""></div> 
                </div>","null","","","","","","","","","","","","",""
"","","","","","html-button-response","91","358764","0.0-91.0","0403619B5ED848A0A79ABA081779E95B","019d666a-ece3-76a0-9454-71cda89629c1","019d6630-2071-75cb-8026-6699844a2719","","912","
                <div class=""stimulus-container"">
                    <img src=""images/causal_sequence/package_causal/package_causal_6.png"" class=""exp-image"">
                    <div class=""question-area"">
                        <p style=""font-size: 20px; font-weight: bold; margin: 0;"">Is there a person in this image?</p>
                    </div>
                </div>","0","main_experiment_trial","6","package_causal","causal_sequence","chronological","","","","","","","",""
"","","","","","html-keyboard-response","92","363767","0.0-92.0","0403619B5ED848A0A79ABA081779E95B","019d666a-ece3-76a0-9454-71cda89629c1","019d6630-2071-75cb-8026-6699844a2719","","null","
                <div class=""stimulus-container"">
                    <img src=""images/causal_sequence/package_causal/package_causal_7.png"" class=""exp-image"">
                    <div class=""question-area""></div> 
                </div>","null","","","","","","","","","","","","",""
"","","","","","html-button-response","93","364715","0.0-93.0","0403619B5ED848A0A79ABA081779E95B","019d666a-ece3-76a0-9454-71cda89629c1","019d6630-2071-75cb-8026-6699844a2719","","946","
                <div class=""stimulus-container"">
                    <img src=""images/causal_sequence/package_causal/package_causal_7.png"" class=""exp-image"">
                    <div class=""question-area"">
                        <p style=""font-size: 20px; font-weight: bold; margin: 0;"">Is there a person in this image?</p>
                    </div>
                </div>","0","main_experiment_trial","7","package_causal","causal_sequence","chronological","","","","","","","",""
"","","","","","html-keyboard-response","94","369717","0.0-94.0","0403619B5ED848A0A79ABA081779E95B","019d666a-ece3-76a0-9454-71cda89629c1","019d6630-2071-75cb-8026-6699844a2719","","null","
                <div class=""stimulus-container"">
                    <img src=""images/causal_sequence/package_causal/package_causal_8.png"" class=""exp-image"">
                    <div class=""question-area""></div> 
                </div>","null","","","","","","","","","","","","",""
"","","","","","html-button-response","95","370498","0.0-95.0","0403619B5ED848A0A79ABA081779E95B","019d666a-ece3-76a0-9454-71cda89629c1","019d6630-2071-75cb-8026-6699844a2719","","779","
                <div class=""stimulus-container"">
                    <img src=""images/causal_sequence/package_causal/package_causal_8.png"" class=""exp-image"">
                    <div class=""question-area"">
                        <p style=""font-size: 20px; font-weight: bold; margin: 0;"">Is there a person in this image?</p>
                    </div>
                </div>","0","main_experiment_trial","8","package_causal","causal_sequence","chronological","","","","","","","",""
"","","","","","html-keyboard-response","96","375499","0.0-96.0","0403619B5ED848A0A79ABA081779E95B","019d666a-ece3-76a0-9454-71cda89629c1","019d6630-2071-75cb-8026-6699844a2719","","null","
                <div class=""stimulus-container"">
                    <img src=""images/causal_sequence/package_causal/package_causal_9.png"" class=""exp-image"">
                    <div class=""question-area""></div> 
                </div>","null","","","","","","","","","","","","",""
"","","","","","html-button-response","97","376031","0.0-97.0","0403619B5ED848A0A79ABA081779E95B","019d666a-ece3-76a0-9454-71cda89629c1","019d6630-2071-75cb-8026-6699844a2719","","530","
                <div class=""stimulus-container"">
                    <img src=""images/causal_sequence/package_causal/package_causal_9.png"" class=""exp-image"">
                    <div class=""question-area"">
                        <p style=""font-size: 20px; font-weight: bold; margin: 0;"">Is there a person in this image?</p>
                    </div>
                </div>","0","main_experiment_trial","9","package_causal","causal_sequence","chronological","","","","","","","",""
"","","","","","html-keyboard-response","98","381033","0.0-98.0","0403619B5ED848A0A79ABA081779E95B","019d666a-ece3-76a0-9454-71cda89629c1","019d6630-2071-75cb-8026-6699844a2719","","null","
                <div class=""stimulus-container"">
                    <img src=""images/causal_sequence/package_causal/package_causal_ten.png"" class=""exp-image"">
                    <div class=""question-area""></div> 
                </div>","null","","","","","","","","","","","","",""
"","","","","","html-button-response","99","381631","0.0-99.0","0403619B5ED848A0A79ABA081779E95B","019d666a-ece3-76a0-9454-71cda89629c1","019d6630-2071-75cb-8026-6699844a2719","","597","
                <div class=""stimulus-container"">
                    <img src=""images/causal_sequence/package_causal/package_causal_ten.png"" class=""exp-image"">
                    <div class=""question-area"">
                        <p style=""font-size: 20px; font-weight: bold; margin: 0;"">Is there a person in this image?</p>
                    </div>
                </div>","0","main_experiment_trial","ten","package_causal","causal_sequence","chronological","","","","","","","",""
"","","","","","html-keyboard-response","100","386634","0.0-100.0","0403619B5ED848A0A79ABA081779E95B","019d666a-ece3-76a0-9454-71cda89629c1","019d6630-2071-75cb-8026-6699844a2719","","null","<div style=""background-color: white; width: 100vw; height: 100vh;""></div>","null","","","","","","","","","","","","",""
"","","","","","html-keyboard-response","101","391636","0.0-101.0","0403619B5ED848A0A79ABA081779E95B","019d666a-ece3-76a0-9454-71cda89629c1","019d6630-2071-75cb-8026-6699844a2719","","null","
                <div class=""stimulus-container"">
                    <img src=""images/schematic_sequence/hotel_scheme/hotel_scheme_1.png"" class=""exp-image"">
                    <div class=""question-area""></div> 
                </div>","null","","","","","","","","","","","","",""
"","","","","","html-button-response","102","392814","0.0-102.0","0403619B5ED848A0A79ABA081779E95B","019d666a-ece3-76a0-9454-71cda89629c1","019d6630-2071-75cb-8026-6699844a2719","","1176","
                <div class=""stimulus-container"">
                    <img src=""images/schematic_sequence/hotel_scheme/hotel_scheme_1.png"" class=""exp-image"">
                    <div class=""question-area"">
                        <p style=""font-size: 20px; font-weight: bold; margin: 0;"">Is there a person in this image?</p>
                    </div>
                </div>","1","main_experiment_trial","1","hotel_scheme","schematic_sequence","chronological","","","","","","","",""
"","","","","","html-keyboard-response","103","397817","0.0-103.0","0403619B5ED848A0A79ABA081779E95B","019d666a-ece3-76a0-9454-71cda89629c1","019d6630-2071-75cb-8026-6699844a2719","","null","
                <div class=""stimulus-container"">
                    <img src=""images/schematic_sequence/hotel_scheme/hotel_scheme_2.png"" class=""exp-image"">
                    <div class=""question-area""></div> 
                </div>","null","","","","","","","","","","","","",""
"","","","","","html-button-response","104","398414","0.0-104.0","0403619B5ED848A0A79ABA081779E95B","019d666a-ece3-76a0-9454-71cda89629c1","019d6630-2071-75cb-8026-6699844a2719","","595","
                <div class=""stimulus-container"">
                    <img src=""images/schematic_sequence/hotel_scheme/hotel_scheme_2.png"" class=""exp-image"">
                    <div class=""question-area"">
                        <p style=""font-size: 20px; font-weight: bold; margin: 0;"">Is there a person in this image?</p>
                    </div>
                </div>","0","main_experiment_trial","2","hotel_scheme","schematic_sequence","chronological","","","","","","","",""
"","","","","","html-keyboard-response","105","403417","0.0-105.0","0403619B5ED848A0A79ABA081779E95B","019d666a-ece3-76a0-9454-71cda89629c1","019d6630-2071-75cb-8026-6699844a2719","","null","
                <div class=""stimulus-container"">
                    <img src=""images/schematic_sequence/hotel_scheme/hotel_scheme_3.png"" class=""exp-image"">
                    <div class=""question-area""></div> 
                </div>","null","","","","","","","","","","","","",""
"","","","","","html-button-response","106","403964","0.0-106.0","0403619B5ED848A0A79ABA081779E95B","019d666a-ece3-76a0-9454-71cda89629c1","019d6630-2071-75cb-8026-6699844a2719","","546","
                <div class=""stimulus-container"">
                    <img src=""images/schematic_sequence/hotel_scheme/hotel_scheme_3.png"" class=""exp-image"">
                    <div class=""question-area"">
                        <p style=""font-size: 20px; font-weight: bold; margin: 0;"">Is there a person in this image?</p>
                    </div>
                </div>","0","main_experiment_trial","3","hotel_scheme","schematic_sequence","chronological","","","","","","","",""
"","","","","","html-keyboard-response","107","408967","0.0-107.0","0403619B5ED848A0A79ABA081779E95B","019d666a-ece3-76a0-9454-71cda89629c1","019d6630-2071-75cb-8026-6699844a2719","","null","
                <div class=""stimulus-container"">
                    <img src=""images/schematic_sequence/hotel_scheme/hotel_scheme_4.png"" class=""exp-image"">
                    <div class=""question-area""></div> 
                </div>","null","","","","","","","","","","","","",""
"","","","","","html-button-response","108","409848","0.0-108.0","0403619B5ED848A0A79ABA081779E95B","019d666a-ece3-76a0-9454-71cda89629c1","019d6630-2071-75cb-8026-6699844a2719","","879","
                <div class=""stimulus-container"">
                    <img src=""images/schematic_sequence/hotel_scheme/hotel_scheme_4.png"" class=""exp-image"">
                    <div class=""question-area"">
                        <p style=""font-size: 20px; font-weight: bold; margin: 0;"">Is there a person in this image?</p>
                    </div>
                </div>","1","main_experiment_trial","4","hotel_scheme","schematic_sequence","chronological","","","","","","","",""
"","","","","","html-keyboard-response","109","414850","0.0-109.0","0403619B5ED848A0A79ABA081779E95B","019d666a-ece3-76a0-9454-71cda89629c1","019d6630-2071-75cb-8026-6699844a2719","","null","
                <div class=""stimulus-container"">
                    <img src=""images/schematic_sequence/hotel_scheme/hotel_scheme_5.png"" class=""exp-image"">
                    <div class=""question-area""></div> 
                </div>","null","","","","","","","","","","","","",""
"","","","","","html-button-response","110","415797","0.0-110.0","0403619B5ED848A0A79ABA081779E95B","019d666a-ece3-76a0-9454-71cda89629c1","019d6630-2071-75cb-8026-6699844a2719","","945","
                <div class=""stimulus-container"">
                    <img src=""images/schematic_sequence/hotel_scheme/hotel_scheme_5.png"" class=""exp-image"">
                    <div class=""question-area"">
                        <p style=""font-size: 20px; font-weight: bold; margin: 0;"">Is there a person in this image?</p>
                    </div>
                </div>","0","main_experiment_trial","5","hotel_scheme","schematic_sequence","chronological","","","","","","","",""
"","","","","","html-keyboard-response","111","420800","0.0-111.0","0403619B5ED848A0A79ABA081779E95B","019d666a-ece3-76a0-9454-71cda89629c1","019d6630-2071-75cb-8026-6699844a2719","","null","
                <div class=""stimulus-container"">
                    <img src=""images/schematic_sequence/hotel_scheme/hotel_scheme_6.png"" class=""exp-image"">
                    <div class=""question-area""></div> 
                </div>","null","","","","","","","","","","","","",""
"","","","","","html-button-response","112","421430","0.0-112.0","0403619B5ED848A0A79ABA081779E95B","019d666a-ece3-76a0-9454-71cda89629c1","019d6630-2071-75cb-8026-6699844a2719","","629","
                <div class=""stimulus-container"">
                    <img src=""images/schematic_sequence/hotel_scheme/hotel_scheme_6.png"" class=""exp-image"">
                    <div class=""question-area"">
                        <p style=""font-size: 20px; font-weight: bold; margin: 0;"">Is there a person in this image?</p>
                    </div>
                </div>","0","main_experiment_trial","6","hotel_scheme","schematic_sequence","chronological","","","","","","","",""
"","","","","","html-keyboard-response","113","426433","0.0-113.0","0403619B5ED848A0A79ABA081779E95B","019d666a-ece3-76a0-9454-71cda89629c1","019d6630-2071-75cb-8026-6699844a2719","","null","
                <div class=""stimulus-container"">
                    <img src=""images/schematic_sequence/hotel_scheme/hotel_scheme_7.png"" class=""exp-image"">
                    <div class=""question-area""></div> 
                </div>","null","","","","","","","","","","","","",""
"","","","","","html-button-response","114","427214","0.0-114.0","0403619B5ED848A0A79ABA081779E95B","019d666a-ece3-76a0-9454-71cda89629c1","019d6630-2071-75cb-8026-6699844a2719","","780","
                <div class=""stimulus-container"">
                    <img src=""images/schematic_sequence/hotel_scheme/hotel_scheme_7.png"" class=""exp-image"">
                    <div class=""question-area"">
                        <p style=""font-size: 20px; font-weight: bold; margin: 0;"">Is there a person in this image?</p>
                    </div>
                </div>","0","main_experiment_trial","7","hotel_scheme","schematic_sequence","chronological","","","","","","","",""
"","","","","","html-keyboard-response","115","432217","0.0-115.0","0403619B5ED848A0A79ABA081779E95B","019d666a-ece3-76a0-9454-71cda89629c1","019d6630-2071-75cb-8026-6699844a2719","","null","
                <div class=""stimulus-container"">
                    <img src=""images/schematic_sequence/hotel_scheme/hotel_scheme_8.png"" class=""exp-image"">
                    <div class=""question-area""></div> 
                </div>","null","","","","","","","","","","","","",""
"","","","","","html-button-response","116","433180","0.0-116.0","0403619B5ED848A0A79ABA081779E95B","019d666a-ece3-76a0-9454-71cda89629c1","019d6630-2071-75cb-8026-6699844a2719","","961","
                <div class=""stimulus-container"">
                    <img src=""images/schematic_sequence/hotel_scheme/hotel_scheme_8.png"" class=""exp-image"">
                    <div class=""question-area"">
                        <p style=""font-size: 20px; font-weight: bold; margin: 0;"">Is there a person in this image?</p>
                    </div>
                </div>","0","main_experiment_trial","8","hotel_scheme","schematic_sequence","chronological","","","","","","","",""
"","","","","","html-keyboard-response","117","438182","0.0-117.0","0403619B5ED848A0A79ABA081779E95B","019d666a-ece3-76a0-9454-71cda89629c1","019d6630-2071-75cb-8026-6699844a2719","","null","
                <div class=""stimulus-container"">
                    <img src=""images/schematic_sequence/hotel_scheme/hotel_scheme_9.png"" class=""exp-image"">
                    <div class=""question-area""></div> 
                </div>","null","","","","","","","","","","","","",""
"","","","","","html-button-response","118","439013","0.0-118.0","0403619B5ED848A0A79ABA081779E95B","019d666a-ece3-76a0-9454-71cda89629c1","019d6630-2071-75cb-8026-6699844a2719","","829","
                <div class=""stimulus-container"">
                    <img src=""images/schematic_sequence/hotel_scheme/hotel_scheme_9.png"" class=""exp-image"">
                    <div class=""question-area"">
                        <p style=""font-size: 20px; font-weight: bold; margin: 0;"">Is there a person in this image?</p>
                    </div>
                </div>","0","main_experiment_trial","9","hotel_scheme","schematic_sequence","chronological","","","","","","","",""
"","","","","","html-keyboard-response","119","444015","0.0-119.0","0403619B5ED848A0A79ABA081779E95B","019d666a-ece3-76a0-9454-71cda89629c1","019d6630-2071-75cb-8026-6699844a2719","","null","
                <div class=""stimulus-container"">
                    <img src=""images/schematic_sequence/hotel_scheme/hotel_scheme_ten.png"" class=""exp-image"">
                    <div class=""question-area""></div> 
                </div>","null","","","","","","","","","","","","",""
"","","","","","html-button-response","120","444546","0.0-120.0","0403619B5ED848A0A79ABA081779E95B","019d666a-ece3-76a0-9454-71cda89629c1","019d6630-2071-75cb-8026-6699844a2719","","529","
                <div class=""stimulus-container"">
                    <img src=""images/schematic_sequence/hotel_scheme/hotel_scheme_ten.png"" class=""exp-image"">
                    <div class=""question-area"">
                        <p style=""font-size: 20px; font-weight: bold; margin: 0;"">Is there a person in this image?</p>
                    </div>
                </div>","0","main_experiment_trial","ten","hotel_scheme","schematic_sequence","chronological","","","","","","","",""
"","","","","","html-keyboard-response","121","449549","0.0-121.0","0403619B5ED848A0A79ABA081779E95B","019d666a-ece3-76a0-9454-71cda89629c1","019d6630-2071-75cb-8026-6699844a2719","","null","<div style=""background-color: white; width: 100vw; height: 100vh;""></div>","null","","","","","","","","","","","","",""
"","","","","","html-keyboard-response","122","454551","0.0-122.0","0403619B5ED848A0A79ABA081779E95B","019d666a-ece3-76a0-9454-71cda89629c1","019d6630-2071-75cb-8026-6699844a2719","","null","
                <div class=""stimulus-container"">
                    <img src=""images/schematic_sequence/interview_scheme/interview_scheme_1.png"" class=""exp-image"">
                    <div class=""question-area""></div> 
                </div>","null","","","","","","","","","","","","",""
"","","","","","html-button-response","123","455313","0.0-123.0","0403619B5ED848A0A79ABA081779E95B","019d666a-ece3-76a0-9454-71cda89629c1","019d6630-2071-75cb-8026-6699844a2719","","761","
                <div class=""stimulus-container"">
                    <img src=""images/schematic_sequence/interview_scheme/interview_scheme_1.png"" class=""exp-image"">
                    <div class=""question-area"">
                        <p style=""font-size: 20px; font-weight: bold; margin: 0;"">Is there a person in this image?</p>
                    </div>
                </div>","1","main_experiment_trial","1","interview_scheme","schematic_sequence","chronological","","","","","","","",""
"","","","","","html-keyboard-response","124","460316","0.0-124.0","0403619B5ED848A0A79ABA081779E95B","019d666a-ece3-76a0-9454-71cda89629c1","019d6630-2071-75cb-8026-6699844a2719","","null","
                <div class=""stimulus-container"">
                    <img src=""images/schematic_sequence/interview_scheme/interview_scheme_2.png"" class=""exp-image"">
                    <div class=""question-area""></div> 
                </div>","null","","","","","","","","","","","","",""
"","","","","","html-button-response","125","461313","0.0-125.0","0403619B5ED848A0A79ABA081779E95B","019d666a-ece3-76a0-9454-71cda89629c1","019d6630-2071-75cb-8026-6699844a2719","","996","
                <div class=""stimulus-container"">
                    <img src=""images/schematic_sequence/interview_scheme/interview_scheme_2.png"" class=""exp-image"">
                    <div class=""question-area"">
                        <p style=""font-size: 20px; font-weight: bold; margin: 0;"">Is there a person in this image?</p>
                    </div>
                </div>","1","main_experiment_trial","2","interview_scheme","schematic_sequence","chronological","","","","","","","",""
"","","","","","html-keyboard-response","126","466316","0.0-126.0","0403619B5ED848A0A79ABA081779E95B","019d666a-ece3-76a0-9454-71cda89629c1","019d6630-2071-75cb-8026-6699844a2719","","null","
                <div class=""stimulus-container"">
                    <img src=""images/schematic_sequence/interview_scheme/interview_scheme_3.png"" class=""exp-image"">
                    <div class=""question-area""></div> 
                </div>","null","","","","","","","","","","","","",""
"","","","","","html-button-response","127","467346","0.0-127.0","0403619B5ED848A0A79ABA081779E95B","019d666a-ece3-76a0-9454-71cda89629c1","019d6630-2071-75cb-8026-6699844a2719","","1029","
                <div class=""stimulus-container"">
                    <img src=""images/schematic_sequence/interview_scheme/interview_scheme_3.png"" class=""exp-image"">
                    <div class=""question-area"">
                        <p style=""font-size: 20px; font-weight: bold; margin: 0;"">Is there a person in this image?</p>
                    </div>
                </div>","1","main_experiment_trial","3","interview_scheme","schematic_sequence","chronological","","","","","","","",""
"","","","","","html-keyboard-response","128","472349","0.0-128.0","0403619B5ED848A0A79ABA081779E95B","019d666a-ece3-76a0-9454-71cda89629c1","019d6630-2071-75cb-8026-6699844a2719","","null","
                <div class=""stimulus-container"">
                    <img src=""images/schematic_sequence/interview_scheme/interview_scheme_4.png"" class=""exp-image"">
                    <div class=""question-area""></div> 
                </div>","null","","","","","","","","","","","","",""
"","","","","","html-button-response","129","472996","0.0-129.0","0403619B5ED848A0A79ABA081779E95B","019d666a-ece3-76a0-9454-71cda89629c1","019d6630-2071-75cb-8026-6699844a2719","","645","
                <div class=""stimulus-container"">
                    <img src=""images/schematic_sequence/interview_scheme/interview_scheme_4.png"" class=""exp-image"">
                    <div class=""question-area"">
                        <p style=""font-size: 20px; font-weight: bold; margin: 0;"">Is there a person in this image?</p>
                    </div>
                </div>","1","main_experiment_trial","4","interview_scheme","schematic_sequence","chronological","","","","","","","",""
"","","","","","html-keyboard-response","130","477998","0.0-130.0","0403619B5ED848A0A79ABA081779E95B","019d666a-ece3-76a0-9454-71cda89629c1","019d6630-2071-75cb-8026-6699844a2719","","null","
                <div class=""stimulus-container"">
                    <img src=""images/schematic_sequence/interview_scheme/interview_scheme_5.png"" class=""exp-image"">
                    <div class=""question-area""></div> 
                </div>","null","","","","","","","","","","","","",""
"","","","","","html-button-response","131","479045","0.0-131.0","0403619B5ED848A0A79ABA081779E95B","019d666a-ece3-76a0-9454-71cda89629c1","019d6630-2071-75cb-8026-6699844a2719","","1046","
                <div class=""stimulus-container"">
                    <img src=""images/schematic_sequence/interview_scheme/interview_scheme_5.png"" class=""exp-image"">
                    <div class=""question-area"">
                        <p style=""font-size: 20px; font-weight: bold; margin: 0;"">Is there a person in this image?</p>
                    </div>
                </div>","0","main_experiment_trial","5","interview_scheme","schematic_sequence","chronological","","","","","","","",""
"","","","","","html-keyboard-response","132","484048","0.0-132.0","0403619B5ED848A0A79ABA081779E95B","019d666a-ece3-76a0-9454-71cda89629c1","019d6630-2071-75cb-8026-6699844a2719","","null","
                <div class=""stimulus-container"">
                    <img src=""images/schematic_sequence/interview_scheme/interview_scheme_6.png"" class=""exp-image"">
                    <div class=""question-area""></div> 
                </div>","null","","","","","","","","","","","","",""
"","","","","","html-button-response","133","484779","0.0-133.0","0403619B5ED848A0A79ABA081779E95B","019d666a-ece3-76a0-9454-71cda89629c1","019d6630-2071-75cb-8026-6699844a2719","","729","
                <div class=""stimulus-container"">
                    <img src=""images/schematic_sequence/interview_scheme/interview_scheme_6.png"" class=""exp-image"">
                    <div class=""question-area"">
                        <p style=""font-size: 20px; font-weight: bold; margin: 0;"">Is there a person in this image?</p>
                    </div>
                </div>","0","main_experiment_trial","6","interview_scheme","schematic_sequence","chronological","","","","","","","",""
"","","","","","html-keyboard-response","134","489781","0.0-134.0","0403619B5ED848A0A79ABA081779E95B","019d666a-ece3-76a0-9454-71cda89629c1","019d6630-2071-75cb-8026-6699844a2719","","null","
                <div class=""stimulus-container"">
                    <img src=""images/schematic_sequence/interview_scheme/interview_scheme_7.png"" class=""exp-image"">
                    <div class=""question-area""></div> 
                </div>","null","","","","","","","","","","","","",""
"","","","","","html-button-response","135","490312","0.0-135.0","0403619B5ED848A0A79ABA081779E95B","019d666a-ece3-76a0-9454-71cda89629c1","019d6630-2071-75cb-8026-6699844a2719","","529","
                <div class=""stimulus-container"">
                    <img src=""images/schematic_sequence/interview_scheme/interview_scheme_7.png"" class=""exp-image"">
                    <div class=""question-area"">
                        <p style=""font-size: 20px; font-weight: bold; margin: 0;"">Is there a person in this image?</p>
                    </div>
                </div>","0","main_experiment_trial","7","interview_scheme","schematic_sequence","chronological","","","","","","","",""
"","","","","","html-keyboard-response","136","495315","0.0-136.0","0403619B5ED848A0A79ABA081779E95B","019d666a-ece3-76a0-9454-71cda89629c1","019d6630-2071-75cb-8026-6699844a2719","","null","
                <div class=""stimulus-container"">
                    <img src=""images/schematic_sequence/interview_scheme/interview_scheme_8.png"" class=""exp-image"">
                    <div class=""question-area""></div> 
                </div>","null","","","","","","","","","","","","",""
"","","","","","html-button-response","137","496079","0.0-137.0","0403619B5ED848A0A79ABA081779E95B","019d666a-ece3-76a0-9454-71cda89629c1","019d6630-2071-75cb-8026-6699844a2719","","762","
                <div class=""stimulus-container"">
                    <img src=""images/schematic_sequence/interview_scheme/interview_scheme_8.png"" class=""exp-image"">
                    <div class=""question-area"">
                        <p style=""font-size: 20px; font-weight: bold; margin: 0;"">Is there a person in this image?</p>
                    </div>
                </div>","0","main_experiment_trial","8","interview_scheme","schematic_sequence","chronological","","","","","","","",""
"","","","","","html-keyboard-response","138","501082","0.0-138.0","0403619B5ED848A0A79ABA081779E95B","019d666a-ece3-76a0-9454-71cda89629c1","019d6630-2071-75cb-8026-6699844a2719","","null","
                <div class=""stimulus-container"">
                    <img src=""images/schematic_sequence/interview_scheme/interview_scheme_9.png"" class=""exp-image"">
                    <div class=""question-area""></div> 
                </div>","null","","","","","","","","","","","","",""
"","","","","","html-button-response","139","501662","0.0-139.0","0403619B5ED848A0A79ABA081779E95B","019d666a-ece3-76a0-9454-71cda89629c1","019d6630-2071-75cb-8026-6699844a2719","","578","
                <div class=""stimulus-container"">
                    <img src=""images/schematic_sequence/interview_scheme/interview_scheme_9.png"" class=""exp-image"">
                    <div class=""question-area"">
                        <p style=""font-size: 20px; font-weight: bold; margin: 0;"">Is there a person in this image?</p>
                    </div>
                </div>","0","main_experiment_trial","9","interview_scheme","schematic_sequence","chronological","","","","","","","",""
"","","","","","html-keyboard-response","140","506664","0.0-140.0","0403619B5ED848A0A79ABA081779E95B","019d666a-ece3-76a0-9454-71cda89629c1","019d6630-2071-75cb-8026-6699844a2719","","null","
                <div class=""stimulus-container"">
                    <img src=""images/schematic_sequence/interview_scheme/interview_scheme_ten.png"" class=""exp-image"">
                    <div class=""question-area""></div> 
                </div>","null","","","","","","","","","","","","",""
"","","","","","html-button-response","141","507195","0.0-141.0","0403619B5ED848A0A79ABA081779E95B","019d666a-ece3-76a0-9454-71cda89629c1","019d6630-2071-75cb-8026-6699844a2719","","529","
                <div class=""stimulus-container"">
                    <img src=""images/schematic_sequence/interview_scheme/interview_scheme_ten.png"" class=""exp-image"">
                    <div class=""question-area"">
                        <p style=""font-size: 20px; font-weight: bold; margin: 0;"">Is there a person in this image?</p>
                    </div>
                </div>","0","main_experiment_trial","ten","interview_scheme","schematic_sequence","chronological","","","","","","","",""
"","","","","","html-keyboard-response","142","512197","0.0-142.0","0403619B5ED848A0A79ABA081779E95B","019d666a-ece3-76a0-9454-71cda89629c1","019d6630-2071-75cb-8026-6699844a2719","","null","<div style=""background-color: white; width: 100vw; height: 100vh;""></div>","null","","","","","","","","","","","","",""
"","","","","","html-keyboard-response","143","517200","0.0-143.0","0403619B5ED848A0A79ABA081779E95B","019d666a-ece3-76a0-9454-71cda89629c1","019d6630-2071-75cb-8026-6699844a2719","","null","
                <div class=""stimulus-container"">
                    <img src=""images/causal_sequence/the_performance_causal/the_performance_causal_1.png"" class=""exp-image"">
                    <div class=""question-area""></div> 
                </div>","null","","","","","","","","","","","","",""
"","","","","","html-button-response","144","517795","0.0-144.0","0403619B5ED848A0A79ABA081779E95B","019d666a-ece3-76a0-9454-71cda89629c1","019d6630-2071-75cb-8026-6699844a2719","","594","
                <div class=""stimulus-container"">
                    <img src=""images/causal_sequence/the_performance_causal/the_performance_causal_1.png"" class=""exp-image"">
                    <div class=""question-area"">
                        <p style=""font-size: 20px; font-weight: bold; margin: 0;"">Is there a person in this image?</p>
                    </div>
                </div>","0","main_experiment_trial","1","the_performance_causal","causal_sequence","chronological","","","","","","","",""
"","","","","","html-keyboard-response","145","522798","0.0-145.0","0403619B5ED848A0A79ABA081779E95B","019d666a-ece3-76a0-9454-71cda89629c1","019d6630-2071-75cb-8026-6699844a2719","","null","
                <div class=""stimulus-container"">
                    <img src=""images/causal_sequence/the_performance_causal/the_performance_causal_2.png"" class=""exp-image"">
                    <div class=""question-area""></div> 
                </div>","null","","","","","","","","","","","","",""
"","","","","","html-button-response","146","523461","0.0-146.0","0403619B5ED848A0A79ABA081779E95B","019d666a-ece3-76a0-9454-71cda89629c1","019d6630-2071-75cb-8026-6699844a2719","","662","
                <div class=""stimulus-container"">
                    <img src=""images/causal_sequence/the_performance_causal/the_performance_causal_2.png"" class=""exp-image"">
                    <div class=""question-area"">
                        <p style=""font-size: 20px; font-weight: bold; margin: 0;"">Is there a person in this image?</p>
                    </div>
                </div>","0","main_experiment_trial","2","the_performance_causal","causal_sequence","chronological","","","","","","","",""
"","","","","","html-keyboard-response","147","528464","0.0-147.0","0403619B5ED848A0A79ABA081779E95B","019d666a-ece3-76a0-9454-71cda89629c1","019d6630-2071-75cb-8026-6699844a2719","","null","
                <div class=""stimulus-container"">
                    <img src=""images/causal_sequence/the_performance_causal/the_performance_causal_3.png"" class=""exp-image"">
                    <div class=""question-area""></div> 
                </div>","null","","","","","","","","","","","","",""
"","","","","","html-button-response","148","529462","0.0-148.0","0403619B5ED848A0A79ABA081779E95B","019d666a-ece3-76a0-9454-71cda89629c1","019d6630-2071-75cb-8026-6699844a2719","","996","
                <div class=""stimulus-container"">
                    <img src=""images/causal_sequence/the_performance_causal/the_performance_causal_3.png"" class=""exp-image"">
                    <div class=""question-area"">
                        <p style=""font-size: 20px; font-weight: bold; margin: 0;"">Is there a person in this image?</p>
                    </div>
                </div>","0","main_experiment_trial","3","the_performance_causal","causal_sequence","chronological","","","","","","","",""
"","","","","","html-keyboard-response","149","534464","0.0-149.0","0403619B5ED848A0A79ABA081779E95B","019d666a-ece3-76a0-9454-71cda89629c1","019d6630-2071-75cb-8026-6699844a2719","","null","
                <div class=""stimulus-container"">
                    <img src=""images/causal_sequence/the_performance_causal/the_performance_causal_4.png"" class=""exp-image"">
                    <div class=""question-area""></div> 
                </div>","null","","","","","","","","","","","","",""
"","","","","","html-button-response","150","535161","0.0-150.0","0403619B5ED848A0A79ABA081779E95B","019d666a-ece3-76a0-9454-71cda89629c1","019d6630-2071-75cb-8026-6699844a2719","","696","
                <div class=""stimulus-container"">
                    <img src=""images/causal_sequence/the_performance_causal/the_performance_causal_4.png"" class=""exp-image"">
                    <div class=""question-area"">
                        <p style=""font-size: 20px; font-weight: bold; margin: 0;"">Is there a person in this image?</p>
                    </div>
                </div>","0","main_experiment_trial","4","the_performance_causal","causal_sequence","chronological","","","","","","","",""
"","","","","","html-keyboard-response","151","540164","0.0-151.0","0403619B5ED848A0A79ABA081779E95B","019d666a-ece3-76a0-9454-71cda89629c1","019d6630-2071-75cb-8026-6699844a2719","","null","
                <div class=""stimulus-container"">
                    <img src=""images/causal_sequence/the_performance_causal/the_performance_causal_5.png"" class=""exp-image"">
                    <div class=""question-area""></div> 
                </div>","null","","","","","","","","","","","","",""
"","","","","","html-button-response","152","540744","0.0-152.0","0403619B5ED848A0A79ABA081779E95B","019d666a-ece3-76a0-9454-71cda89629c1","019d6630-2071-75cb-8026-6699844a2719","","579","
                <div class=""stimulus-container"">
                    <img src=""images/causal_sequence/the_performance_causal/the_performance_causal_5.png"" class=""exp-image"">
                    <div class=""question-area"">
                        <p style=""font-size: 20px; font-weight: bold; margin: 0;"">Is there a person in this image?</p>
                    </div>
                </div>","0","main_experiment_trial","5","the_performance_causal","causal_sequence","chronological","","","","","","","",""
"","","","","","html-keyboard-response","153","545746","0.0-153.0","0403619B5ED848A0A79ABA081779E95B","019d666a-ece3-76a0-9454-71cda89629c1","019d6630-2071-75cb-8026-6699844a2719","","null","
                <div class=""stimulus-container"">
                    <img src=""images/causal_sequence/the_performance_causal/the_performance_causal_6.png"" class=""exp-image"">
                    <div class=""question-area""></div> 
                </div>","null","","","","","","","","","","","","",""
"","","","","","html-button-response","154","546144","0.0-154.0","0403619B5ED848A0A79ABA081779E95B","019d666a-ece3-76a0-9454-71cda89629c1","019d6630-2071-75cb-8026-6699844a2719","","397","
                <div class=""stimulus-container"">
                    <img src=""images/causal_sequence/the_performance_causal/the_performance_causal_6.png"" class=""exp-image"">
                    <div class=""question-area"">
                        <p style=""font-size: 20px; font-weight: bold; margin: 0;"">Is there a person in this image?</p>
                    </div>
                </div>","0","main_experiment_trial","6","the_performance_causal","causal_sequence","chronological","","","","","","","",""
"","","","","","html-keyboard-response","155","551148","0.0-155.0","0403619B5ED848A0A79ABA081779E95B","019d666a-ece3-76a0-9454-71cda89629c1","019d6630-2071-75cb-8026-6699844a2719","","null","
                <div class=""stimulus-container"">
                    <img src=""images/causal_sequence/the_performance_causal/the_performance_causal_7.png"" class=""exp-image"">
                    <div class=""question-area""></div> 
                </div>","null","","","","","","","","","","","","",""
"","","","","","html-button-response","156","551794","0.0-156.0","0403619B5ED848A0A79ABA081779E95B","019d666a-ece3-76a0-9454-71cda89629c1","019d6630-2071-75cb-8026-6699844a2719","","645","
                <div class=""stimulus-container"">
                    <img src=""images/causal_sequence/the_performance_causal/the_performance_causal_7.png"" class=""exp-image"">
                    <div class=""question-area"">
                        <p style=""font-size: 20px; font-weight: bold; margin: 0;"">Is there a person in this image?</p>
                    </div>
                </div>","0","main_experiment_trial","7","the_performance_causal","causal_sequence","chronological","","","","","","","",""
"","","","","","html-keyboard-response","157","556797","0.0-157.0","0403619B5ED848A0A79ABA081779E95B","019d666a-ece3-76a0-9454-71cda89629c1","019d6630-2071-75cb-8026-6699844a2719","","null","
                <div class=""stimulus-container"">
                    <img src=""images/causal_sequence/the_performance_causal/the_performance_causal_8.png"" class=""exp-image"">
                    <div class=""question-area""></div> 
                </div>","null","","","","","","","","","","","","",""
"","","","","","html-button-response","158","557494","0.0-158.0","0403619B5ED848A0A79ABA081779E95B","019d666a-ece3-76a0-9454-71cda89629c1","019d6630-2071-75cb-8026-6699844a2719","","695","
                <div class=""stimulus-container"">
                    <img src=""images/causal_sequence/the_performance_causal/the_performance_causal_8.png"" class=""exp-image"">
                    <div class=""question-area"">
                        <p style=""font-size: 20px; font-weight: bold; margin: 0;"">Is there a person in this image?</p>
                    </div>
                </div>","0","main_experiment_trial","8","the_performance_causal","causal_sequence","chronological","","","","","","","",""
"","","","","","html-keyboard-response","159","562497","0.0-159.0","0403619B5ED848A0A79ABA081779E95B","019d666a-ece3-76a0-9454-71cda89629c1","019d6630-2071-75cb-8026-6699844a2719","","null","
                <div class=""stimulus-container"">
                    <img src=""images/causal_sequence/the_performance_causal/the_performance_causal_9.png"" class=""exp-image"">
                    <div class=""question-area""></div> 
                </div>","null","","","","","","","","","","","","",""
"","","","","","html-button-response","160","563394","0.0-160.0","0403619B5ED848A0A79ABA081779E95B","019d666a-ece3-76a0-9454-71cda89629c1","019d6630-2071-75cb-8026-6699844a2719","","895","
                <div class=""stimulus-container"">
                    <img src=""images/causal_sequence/the_performance_causal/the_performance_causal_9.png"" class=""exp-image"">
                    <div class=""question-area"">
                        <p style=""font-size: 20px; font-weight: bold; margin: 0;"">Is there a person in this image?</p>
                    </div>
                </div>","0","main_experiment_trial","9","the_performance_causal","causal_sequence","chronological","","","","","","","",""
"","","","","","html-keyboard-response","161","568396","0.0-161.0","0403619B5ED848A0A79ABA081779E95B","019d666a-ece3-76a0-9454-71cda89629c1","019d6630-2071-75cb-8026-6699844a2719","","null","
                <div class=""stimulus-container"">
                    <img src=""images/causal_sequence/the_performance_causal/the_performance_causal_ten.png"" class=""exp-image"">
                    <div class=""question-area""></div> 
                </div>","null","","","","","","","","","","","","",""
"","","","","","html-button-response","162","569209","0.0-162.0","0403619B5ED848A0A79ABA081779E95B","019d666a-ece3-76a0-9454-71cda89629c1","019d6630-2071-75cb-8026-6699844a2719","","812","
                <div class=""stimulus-container"">
                    <img src=""images/causal_sequence/the_performance_causal/the_performance_causal_ten.png"" class=""exp-image"">
                    <div class=""question-area"">
                        <p style=""font-size: 20px; font-weight: bold; margin: 0;"">Is there a person in this image?</p>
                    </div>
                </div>","0","main_experiment_trial","ten","the_performance_causal","causal_sequence","chronological","","","","","","","",""
"","","","","","html-keyboard-response","163","574212","0.0-163.0","0403619B5ED848A0A79ABA081779E95B","019d666a-ece3-76a0-9454-71cda89629c1","019d6630-2071-75cb-8026-6699844a2719","","null","<div style=""background-color: white; width: 100vw; height: 100vh;""></div>","null","","","","","","","","","","","","",""
"","","","","","html-keyboard-response","164","579214","0.0-164.0","0403619B5ED848A0A79ABA081779E95B","019d666a-ece3-76a0-9454-71cda89629c1","019d6630-2071-75cb-8026-6699844a2719","","null","
                <div class=""stimulus-container"">
                    <img src=""images/semantic_sequence/kitchen_operations_semantic/kitchen_operations_semantic_1.png"" class=""exp-image"">
                    <div class=""question-area""></div> 
                </div>","null","","","","","","","","","","","","",""
"","","","","","html-button-response","165","579728","0.0-165.0","0403619B5ED848A0A79ABA081779E95B","019d666a-ece3-76a0-9454-71cda89629c1","019d6630-2071-75cb-8026-6699844a2719","","512","
                <div class=""stimulus-container"">
                    <img src=""images/semantic_sequence/kitchen_operations_semantic/kitchen_operations_semantic_1.png"" class=""exp-image"">
                    <div class=""question-area"">
                        <p style=""font-size: 20px; font-weight: bold; margin: 0;"">Is there a person in this image?</p>
                    </div>
                </div>","0","main_experiment_trial","1","kitchen_operations_semantic","semantic_sequence","chronological","","","","","","","",""
"","","","","","html-keyboard-response","166","584730","0.0-166.0","0403619B5ED848A0A79ABA081779E95B","019d666a-ece3-76a0-9454-71cda89629c1","019d6630-2071-75cb-8026-6699844a2719","","null","
                <div class=""stimulus-container"">
                    <img src=""images/semantic_sequence/kitchen_operations_semantic/kitchen_operations_semantic_2.png"" class=""exp-image"">
                    <div class=""question-area""></div> 
                </div>","null","","","","","","","","","","","","",""
"","","","","","html-button-response","167","585210","0.0-167.0","0403619B5ED848A0A79ABA081779E95B","019d666a-ece3-76a0-9454-71cda89629c1","019d6630-2071-75cb-8026-6699844a2719","","479","
                <div class=""stimulus-container"">
                    <img src=""images/semantic_sequence/kitchen_operations_semantic/kitchen_operations_semantic_2.png"" class=""exp-image"">
                    <div class=""question-area"">
                        <p style=""font-size: 20px; font-weight: bold; margin: 0;"">Is there a person in this image?</p>
                    </div>
                </div>","0","main_experiment_trial","2","kitchen_operations_semantic","semantic_sequence","chronological","","","","","","","",""
"","","","","","html-keyboard-response","168","590212","0.0-168.0","0403619B5ED848A0A79ABA081779E95B","019d666a-ece3-76a0-9454-71cda89629c1","019d6630-2071-75cb-8026-6699844a2719","","null","
                <div class=""stimulus-container"">
                    <img src=""images/semantic_sequence/kitchen_operations_semantic/kitchen_operations_semantic_3.png"" class=""exp-image"">
                    <div class=""question-area""></div> 
                </div>","null","","","","","","","","","","","","",""
"","","","","","html-button-response","169","591011","0.0-169.0","0403619B5ED848A0A79ABA081779E95B","019d666a-ece3-76a0-9454-71cda89629c1","019d6630-2071-75cb-8026-6699844a2719","","797","
                <div class=""stimulus-container"">
                    <img src=""images/semantic_sequence/kitchen_operations_semantic/kitchen_operations_semantic_3.png"" class=""exp-image"">
                    <div class=""question-area"">
                        <p style=""font-size: 20px; font-weight: bold; margin: 0;"">Is there a person in this image?</p>
                    </div>
                </div>","0","main_experiment_trial","3","kitchen_operations_semantic","semantic_sequence","chronological","","","","","","","",""
"","","","","","html-keyboard-response","170","596014","0.0-170.0","0403619B5ED848A0A79ABA081779E95B","019d666a-ece3-76a0-9454-71cda89629c1","019d6630-2071-75cb-8026-6699844a2719","","null","
                <div class=""stimulus-container"">
                    <img src=""images/semantic_sequence/kitchen_operations_semantic/kitchen_operations_semantic_4.png"" class=""exp-image"">
                    <div class=""question-area""></div> 
                </div>","null","","","","","","","","","","","","",""
"","","","","","html-button-response","171","596694","0.0-171.0","0403619B5ED848A0A79ABA081779E95B","019d666a-ece3-76a0-9454-71cda89629c1","019d6630-2071-75cb-8026-6699844a2719","","678","
                <div class=""stimulus-container"">
                    <img src=""images/semantic_sequence/kitchen_operations_semantic/kitchen_operations_semantic_4.png"" class=""exp-image"">
                    <div class=""question-area"">
                        <p style=""font-size: 20px; font-weight: bold; margin: 0;"">Is there a person in this image?</p>
                    </div>
                </div>","0","main_experiment_trial","4","kitchen_operations_semantic","semantic_sequence","chronological","","","","","","","",""
"","","","","","html-keyboard-response","172","601696","0.0-172.0","0403619B5ED848A0A79ABA081779E95B","019d666a-ece3-76a0-9454-71cda89629c1","019d6630-2071-75cb-8026-6699844a2719","","null","
                <div class=""stimulus-container"">
                    <img src=""images/semantic_sequence/kitchen_operations_semantic/kitchen_operations_semantic_5.png"" class=""exp-image"">
                    <div class=""question-area""></div> 
                </div>","null","","","","","","","","","","","","",""
"","","","","","html-button-response","173","602310","0.0-173.0","0403619B5ED848A0A79ABA081779E95B","019d666a-ece3-76a0-9454-71cda89629c1","019d6630-2071-75cb-8026-6699844a2719","","612","
                <div class=""stimulus-container"">
                    <img src=""images/semantic_sequence/kitchen_operations_semantic/kitchen_operations_semantic_5.png"" class=""exp-image"">
                    <div class=""question-area"">
                        <p style=""font-size: 20px; font-weight: bold; margin: 0;"">Is there a person in this image?</p>
                    </div>
                </div>","0","main_experiment_trial","5","kitchen_operations_semantic","semantic_sequence","chronological","","","","","","","",""
"","","","","","html-keyboard-response","174","607312","0.0-174.0","0403619B5ED848A0A79ABA081779E95B","019d666a-ece3-76a0-9454-71cda89629c1","019d6630-2071-75cb-8026-6699844a2719","","null","
                <div class=""stimulus-container"">
                    <img src=""images/semantic_sequence/kitchen_operations_semantic/kitchen_operations_semantic_6.png"" class=""exp-image"">
                    <div class=""question-area""></div> 
                </div>","null","","","","","","","","","","","","",""
"","","","","","html-button-response","175","607810","0.0-175.0","0403619B5ED848A0A79ABA081779E95B","019d666a-ece3-76a0-9454-71cda89629c1","019d6630-2071-75cb-8026-6699844a2719","","496","
                <div class=""stimulus-container"">
                    <img src=""images/semantic_sequence/kitchen_operations_semantic/kitchen_operations_semantic_6.png"" class=""exp-image"">
                    <div class=""question-area"">
                        <p style=""font-size: 20px; font-weight: bold; margin: 0;"">Is there a person in this image?</p>
                    </div>
