"success","timeout","failed_images","failed_audio","failed_video","trial_type","trial_index","time_elapsed","internal_node_id","subject_id","study_id","session_id","view_history","rt","stimulus","response","task","image_index","folder","sequence_type","valuable_image_index","reward_type","chosen_image_index","target_X","correct_choice"
"true","false","[]","[]","[]","preload","0","6300","0.0-0.0","608E093810D64693B3787F3B97A171B3","019cf819-932c-7a81-b6c8-91042b737020","019cf80d-4266-7117-8a51-54e13c84aca4","","","","","","","","","","","","",""
"","","","","","instructions","1","238298","0.0-1.0","608E093810D64693B3787F3B97A171B3","019cf819-932c-7a81-b6c8-91042b737020","019cf80d-4266-7117-8a51-54e13c84aca4","[{""page_index"":0,""viewing_time"":232007}]","232007","","","","","","","","","","",""
"","","","","","instructions","2","243766","0.0-2.0","608E093810D64693B3787F3B97A171B3","019cf819-932c-7a81-b6c8-91042b737020","019cf80d-4266-7117-8a51-54e13c84aca4","[{""page_index"":0,""viewing_time"":5467}]","5467","","","","","","","","","","",""
"true","","","","","fullscreen","3","246350","0.0-3.0","608E093810D64693B3787F3B97A171B3","019cf819-932c-7a81-b6c8-91042b737020","019cf80d-4266-7117-8a51-54e13c84aca4","","1581","","","","","","","","","","",""
"","","","","","instructions","4","257017","0.0-4.0","608E093810D64693B3787F3B97A171B3","019cf819-932c-7a81-b6c8-91042b737020","019cf80d-4266-7117-8a51-54e13c84aca4","[{""page_index"":0,""viewing_time"":10667}]","10667","","","","","","","","","","",""
"","","","","","instructions","5","269870","0.0-5.0","608E093810D64693B3787F3B97A171B3","019cf819-932c-7a81-b6c8-91042b737020","019cf80d-4266-7117-8a51-54e13c84aca4","[{""page_index"":0,""viewing_time"":12852}]","12853","","","","","","","","","","",""
"","","","","","html-keyboard-response","6","273873","0.0-6.0","608E093810D64693B3787F3B97A171B3","019cf819-932c-7a81-b6c8-91042b737020","019cf80d-4266-7117-8a51-54e13c84aca4","","null","
                <div class=""stimulus-container"">
                    <img src=""images/instructions/movie_1.png"" class=""exp-image"">
                    <div class=""question-area""></div> 
                </div>","null","","","","","","","","",""
"","","","","","html-button-response","7","276055","0.0-7.0","608E093810D64693B3787F3B97A171B3","019cf819-932c-7a81-b6c8-91042b737020","019cf80d-4266-7117-8a51-54e13c84aca4","","2180","
                <div class=""stimulus-container"">
                    <img src=""images/instructions/movie_1.png"" class=""exp-image"">
                    <div class=""question-area"">
                        <p style=""font-size: 20px; font-weight: bold; margin: 0;"">Was there a person in this image?</p>
                    </div>
                </div>","0","example_question","1","","","","","","",""
"","","","","","html-keyboard-response","8","280056","0.0-8.0","608E093810D64693B3787F3B97A171B3","019cf819-932c-7a81-b6c8-91042b737020","019cf80d-4266-7117-8a51-54e13c84aca4","","null","
                <div class=""stimulus-container"">
                    <img src=""images/instructions/movie_2.png"" class=""exp-image"">
                    <div class=""question-area""></div> 
                </div>","null","","","","","","","","",""
"","","","","","html-button-response","9","281272","0.0-9.0","608E093810D64693B3787F3B97A171B3","019cf819-932c-7a81-b6c8-91042b737020","019cf80d-4266-7117-8a51-54e13c84aca4","","1216","
                <div class=""stimulus-container"">
                    <img src=""images/instructions/movie_2.png"" class=""exp-image"">
                    <div class=""question-area"">
                        <p style=""font-size: 20px; font-weight: bold; margin: 0;"">Was there a person in this image?</p>
                    </div>
                </div>","0","example_question","2","","","","","","",""
"","","","","","html-keyboard-response","10","285274","0.0-10.0","608E093810D64693B3787F3B97A171B3","019cf819-932c-7a81-b6c8-91042b737020","019cf80d-4266-7117-8a51-54e13c84aca4","","null","
                <div class=""stimulus-container"">
                    <img src=""images/instructions/movie_3.png"" class=""exp-image"">
                    <div class=""question-area""></div> 
                </div>","null","","","","","","","","",""
"","","","","","html-button-response","11","286024","0.0-11.0","608E093810D64693B3787F3B97A171B3","019cf819-932c-7a81-b6c8-91042b737020","019cf80d-4266-7117-8a51-54e13c84aca4","","749","
                <div class=""stimulus-container"">
                    <img src=""images/instructions/movie_3.png"" class=""exp-image"">
                    <div class=""question-area"">
                        <p style=""font-size: 20px; font-weight: bold; margin: 0;"">Was there a person in this image?</p>
                    </div>
                </div>","0","example_question","3","","","","","","",""
"","","","","","html-keyboard-response","12","290027","0.0-12.0","608E093810D64693B3787F3B97A171B3","019cf819-932c-7a81-b6c8-91042b737020","019cf80d-4266-7117-8a51-54e13c84aca4","","null","
                <div class=""stimulus-container"">
                    <img src=""images/instructions/movie_4.png"" class=""exp-image"">
                    <div class=""question-area""></div> 
                </div>","null","","","","","","","","",""
"","","","","","html-button-response","13","290775","0.0-13.0","608E093810D64693B3787F3B97A171B3","019cf819-932c-7a81-b6c8-91042b737020","019cf80d-4266-7117-8a51-54e13c84aca4","","748","
                <div class=""stimulus-container"">
                    <img src=""images/instructions/movie_4.png"" class=""exp-image"">
                    <div class=""question-area"">
                        <p style=""font-size: 20px; font-weight: bold; margin: 0;"">Was there a person in this image?</p>
                    </div>
                </div>","0","example_question","4","","","","","","",""
"","","","","","instructions","14","292743","0.0-14.0","608E093810D64693B3787F3B97A171B3","019cf819-932c-7a81-b6c8-91042b737020","019cf80d-4266-7117-8a51-54e13c84aca4","[{""page_index"":0,""viewing_time"":1966}]","1967","","","","","","","","","","",""
"","","","","","instructions","15","299678","0.0-15.0","608E093810D64693B3787F3B97A171B3","019cf819-932c-7a81-b6c8-91042b737020","019cf80d-4266-7117-8a51-54e13c84aca4","[{""page_index"":0,""viewing_time"":6935}]","6935","","","","","","","","","","",""
"","","","","","html-keyboard-response","16","300680","0.0-16.0","608E093810D64693B3787F3B97A171B3","019cf819-932c-7a81-b6c8-91042b737020","019cf80d-4266-7117-8a51-54e13c84aca4","","null","<div style=""background-color: white; width: 100vw; height: 100vh;""></div>","null","","","","","","","","",""
"","","","","","html-keyboard-response","17","305682","0.0-17.0","608E093810D64693B3787F3B97A171B3","019cf819-932c-7a81-b6c8-91042b737020","019cf80d-4266-7117-8a51-54e13c84aca4","","null","
                <div class=""stimulus-container"">
                    <img src=""images/schematic_sequence/interview_scheme/interview_scheme_1.png"" class=""exp-image"">
                    <div class=""question-area""></div> 
                </div>","null","","","","","","","","",""
"","","","","","html-button-response","18","306429","0.0-18.0","608E093810D64693B3787F3B97A171B3","019cf819-932c-7a81-b6c8-91042b737020","019cf80d-4266-7117-8a51-54e13c84aca4","","746","
                <div class=""stimulus-container"">
                    <img src=""images/schematic_sequence/interview_scheme/interview_scheme_1.png"" class=""exp-image"">
                    <div class=""question-area"">
                        <p style=""font-size: 20px; font-weight: bold; margin: 0;"">Is there a person in this image?</p>
                    </div>
                </div>","1","main_experiment_trial","1","interview_scheme","schematic_sequence","","","","",""
"","","","","","html-keyboard-response","19","311431","0.0-19.0","608E093810D64693B3787F3B97A171B3","019cf819-932c-7a81-b6c8-91042b737020","019cf80d-4266-7117-8a51-54e13c84aca4","","null","
                <div class=""stimulus-container"">
                    <img src=""images/schematic_sequence/interview_scheme/interview_scheme_2.png"" class=""exp-image"">
                    <div class=""question-area""></div> 
                </div>","null","","","","","","","","",""
"","","","","","html-button-response","20","314047","0.0-20.0","608E093810D64693B3787F3B97A171B3","019cf819-932c-7a81-b6c8-91042b737020","019cf80d-4266-7117-8a51-54e13c84aca4","","2615","
                <div class=""stimulus-container"">
                    <img src=""images/schematic_sequence/interview_scheme/interview_scheme_2.png"" class=""exp-image"">
                    <div class=""question-area"">
                        <p style=""font-size: 20px; font-weight: bold; margin: 0;"">Is there a person in this image?</p>
                    </div>
                </div>","1","main_experiment_trial","2","interview_scheme","schematic_sequence","","","","",""
"","","","","","html-keyboard-response","21","319049","0.0-21.0","608E093810D64693B3787F3B97A171B3","019cf819-932c-7a81-b6c8-91042b737020","019cf80d-4266-7117-8a51-54e13c84aca4","","null","
                <div class=""stimulus-container"">
                    <img src=""images/schematic_sequence/interview_scheme/interview_scheme_3.png"" class=""exp-image"">
                    <div class=""question-area""></div> 
                </div>","null","","","","","","","","",""
"","","","","","html-button-response","22","319615","0.0-22.0","608E093810D64693B3787F3B97A171B3","019cf819-932c-7a81-b6c8-91042b737020","019cf80d-4266-7117-8a51-54e13c84aca4","","565","
                <div class=""stimulus-container"">
                    <img src=""images/schematic_sequence/interview_scheme/interview_scheme_3.png"" class=""exp-image"">
                    <div class=""question-area"">
                        <p style=""font-size: 20px; font-weight: bold; margin: 0;"">Is there a person in this image?</p>
                    </div>
                </div>","1","main_experiment_trial","3","interview_scheme","schematic_sequence","","","","",""
"","","","","","html-keyboard-response","23","324617","0.0-23.0","608E093810D64693B3787F3B97A171B3","019cf819-932c-7a81-b6c8-91042b737020","019cf80d-4266-7117-8a51-54e13c84aca4","","null","
                <div class=""stimulus-container"">
                    <img src=""images/schematic_sequence/interview_scheme/interview_scheme_4.png"" class=""exp-image"">
                    <div class=""question-area""></div> 
                </div>","null","","","","","","","","",""
"","","","","","html-button-response","24","325966","0.0-24.0","608E093810D64693B3787F3B97A171B3","019cf819-932c-7a81-b6c8-91042b737020","019cf80d-4266-7117-8a51-54e13c84aca4","","1348","
                <div class=""stimulus-container"">
                    <img src=""images/schematic_sequence/interview_scheme/interview_scheme_4.png"" class=""exp-image"">
                    <div class=""question-area"">
                        <p style=""font-size: 20px; font-weight: bold; margin: 0;"">Is there a person in this image?</p>
                    </div>
                </div>","1","main_experiment_trial","4","interview_scheme","schematic_sequence","","","","",""
"","","","","","html-keyboard-response","25","330968","0.0-25.0","608E093810D64693B3787F3B97A171B3","019cf819-932c-7a81-b6c8-91042b737020","019cf80d-4266-7117-8a51-54e13c84aca4","","null","
                <div class=""stimulus-container"">
                    <img src=""images/schematic_sequence/interview_scheme/interview_scheme_5.png"" class=""exp-image"">
                    <div class=""question-area""></div> 
                </div>","null","","","","","","","","",""
"","","","","","html-button-response","26","331767","0.0-26.0","608E093810D64693B3787F3B97A171B3","019cf819-932c-7a81-b6c8-91042b737020","019cf80d-4266-7117-8a51-54e13c84aca4","","798","
                <div class=""stimulus-container"">
                    <img src=""images/schematic_sequence/interview_scheme/interview_scheme_5.png"" class=""exp-image"">
                    <div class=""question-area"">
                        <p style=""font-size: 20px; font-weight: bold; margin: 0;"">Is there a person in this image?</p>
                    </div>
                </div>","0","main_experiment_trial","5","interview_scheme","schematic_sequence","","","","",""
"","","","","","html-keyboard-response","27","336769","0.0-27.0","608E093810D64693B3787F3B97A171B3","019cf819-932c-7a81-b6c8-91042b737020","019cf80d-4266-7117-8a51-54e13c84aca4","","null","
                <div class=""stimulus-container"">
                    <img src=""images/schematic_sequence/interview_scheme/interview_scheme_6.png"" class=""exp-image"">
                    <div class=""question-area""></div> 
                </div>","null","","","","","","","","",""
"","","","","","html-button-response","28","337418","0.0-28.0","608E093810D64693B3787F3B97A171B3","019cf819-932c-7a81-b6c8-91042b737020","019cf80d-4266-7117-8a51-54e13c84aca4","","649","
                <div class=""stimulus-container"">
                    <img src=""images/schematic_sequence/interview_scheme/interview_scheme_6.png"" class=""exp-image"">
                    <div class=""question-area"">
                        <p style=""font-size: 20px; font-weight: bold; margin: 0;"">Is there a person in this image?</p>
                    </div>
                </div>","0","main_experiment_trial","6","interview_scheme","schematic_sequence","","","","",""
"","","","","","html-keyboard-response","29","342419","0.0-29.0","608E093810D64693B3787F3B97A171B3","019cf819-932c-7a81-b6c8-91042b737020","019cf80d-4266-7117-8a51-54e13c84aca4","","null","
                <div class=""stimulus-container"">
                    <img src=""images/schematic_sequence/interview_scheme/interview_scheme_7.png"" class=""exp-image"">
                    <div class=""question-area""></div> 
                </div>","null","","","","","","","","",""
"","","","","","html-button-response","30","342919","0.0-30.0","608E093810D64693B3787F3B97A171B3","019cf819-932c-7a81-b6c8-91042b737020","019cf80d-4266-7117-8a51-54e13c84aca4","","499","
                <div class=""stimulus-container"">
                    <img src=""images/schematic_sequence/interview_scheme/interview_scheme_7.png"" class=""exp-image"">
                    <div class=""question-area"">
                        <p style=""font-size: 20px; font-weight: bold; margin: 0;"">Is there a person in this image?</p>
                    </div>
                </div>","0","main_experiment_trial","7","interview_scheme","schematic_sequence","","","","",""
"","","","","","html-keyboard-response","31","347922","0.0-31.0","608E093810D64693B3787F3B97A171B3","019cf819-932c-7a81-b6c8-91042b737020","019cf80d-4266-7117-8a51-54e13c84aca4","","null","
                <div class=""stimulus-container"">
                    <img src=""images/schematic_sequence/interview_scheme/interview_scheme_8.png"" class=""exp-image"">
                    <div class=""question-area""></div> 
                </div>","null","","","","","","","","",""
"","","","","","html-button-response","32","348521","0.0-32.0","608E093810D64693B3787F3B97A171B3","019cf819-932c-7a81-b6c8-91042b737020","019cf80d-4266-7117-8a51-54e13c84aca4","","598","
                <div class=""stimulus-container"">
                    <img src=""images/schematic_sequence/interview_scheme/interview_scheme_8.png"" class=""exp-image"">
                    <div class=""question-area"">
                        <p style=""font-size: 20px; font-weight: bold; margin: 0;"">Is there a person in this image?</p>
                    </div>
                </div>","0","main_experiment_trial","8","interview_scheme","schematic_sequence","","","","",""
"","","","","","html-keyboard-response","33","353521","0.0-33.0","608E093810D64693B3787F3B97A171B3","019cf819-932c-7a81-b6c8-91042b737020","019cf80d-4266-7117-8a51-54e13c84aca4","","null","
                <div class=""stimulus-container"">
                    <img src=""images/schematic_sequence/interview_scheme/interview_scheme_9.png"" class=""exp-image"">
                    <div class=""question-area""></div> 
                </div>","null","","","","","","","","",""
"","","","","","html-button-response","34","354138","0.0-34.0","608E093810D64693B3787F3B97A171B3","019cf819-932c-7a81-b6c8-91042b737020","019cf80d-4266-7117-8a51-54e13c84aca4","","616","
                <div class=""stimulus-container"">
                    <img src=""images/schematic_sequence/interview_scheme/interview_scheme_9.png"" class=""exp-image"">
                    <div class=""question-area"">
                        <p style=""font-size: 20px; font-weight: bold; margin: 0;"">Is there a person in this image?</p>
                    </div>
                </div>","0","main_experiment_trial","9","interview_scheme","schematic_sequence","","","","",""
"","","","","","html-keyboard-response","35","359140","0.0-35.0","608E093810D64693B3787F3B97A171B3","019cf819-932c-7a81-b6c8-91042b737020","019cf80d-4266-7117-8a51-54e13c84aca4","","null","
                <div class=""stimulus-container"">
                    <img src=""images/schematic_sequence/interview_scheme/interview_scheme_ten.png"" class=""exp-image"">
                    <div class=""question-area""></div> 
                </div>","null","","","","","","","","",""
"","","","","","html-button-response","36","359772","0.0-36.0","608E093810D64693B3787F3B97A171B3","019cf819-932c-7a81-b6c8-91042b737020","019cf80d-4266-7117-8a51-54e13c84aca4","","632","
                <div class=""stimulus-container"">
                    <img src=""images/schematic_sequence/interview_scheme/interview_scheme_ten.png"" class=""exp-image"">
                    <div class=""question-area"">
                        <p style=""font-size: 20px; font-weight: bold; margin: 0;"">Is there a person in this image?</p>
                    </div>
                </div>","0","main_experiment_trial","ten","interview_scheme","schematic_sequence","","","","",""
"","","","","","html-keyboard-response","37","360775","0.0-37.0","608E093810D64693B3787F3B97A171B3","019cf819-932c-7a81-b6c8-91042b737020","019cf80d-4266-7117-8a51-54e13c84aca4","","null","<div style=""background-color: white; width: 100vw; height: 100vh;""></div>","null","","","","","","","","",""
"","","","","","html-keyboard-response","38","365777","0.0-38.0","608E093810D64693B3787F3B97A171B3","019cf819-932c-7a81-b6c8-91042b737020","019cf80d-4266-7117-8a51-54e13c84aca4","","null","
                <div class=""stimulus-container"">
                    <img src=""images/schematic_sequence/hotel_scheme/hotel_scheme_1.png"" class=""exp-image"">
                    <div class=""question-area""></div> 
                </div>","null","","","","","","","","",""
"","","","","","html-button-response","39","366357","0.0-39.0","608E093810D64693B3787F3B97A171B3","019cf819-932c-7a81-b6c8-91042b737020","019cf80d-4266-7117-8a51-54e13c84aca4","","579","
                <div class=""stimulus-container"">
                    <img src=""images/schematic_sequence/hotel_scheme/hotel_scheme_1.png"" class=""exp-image"">
                    <div class=""question-area"">
                        <p style=""font-size: 20px; font-weight: bold; margin: 0;"">Is there a person in this image?</p>
                    </div>
                </div>","1","main_experiment_trial","1","hotel_scheme","schematic_sequence","","","","",""
"","","","","","html-keyboard-response","40","371359","0.0-40.0","608E093810D64693B3787F3B97A171B3","019cf819-932c-7a81-b6c8-91042b737020","019cf80d-4266-7117-8a51-54e13c84aca4","","null","
                <div class=""stimulus-container"">
                    <img src=""images/schematic_sequence/hotel_scheme/hotel_scheme_2.png"" class=""exp-image"">
                    <div class=""question-area""></div> 
                </div>","null","","","","","","","","",""
"","","","","","html-button-response","41","371909","0.0-41.0","608E093810D64693B3787F3B97A171B3","019cf819-932c-7a81-b6c8-91042b737020","019cf80d-4266-7117-8a51-54e13c84aca4","","549","
                <div class=""stimulus-container"">
                    <img src=""images/schematic_sequence/hotel_scheme/hotel_scheme_2.png"" class=""exp-image"">
                    <div class=""question-area"">
                        <p style=""font-size: 20px; font-weight: bold; margin: 0;"">Is there a person in this image?</p>
                    </div>
                </div>","0","main_experiment_trial","2","hotel_scheme","schematic_sequence","","","","",""
"","","","","","html-keyboard-response","42","376911","0.0-42.0","608E093810D64693B3787F3B97A171B3","019cf819-932c-7a81-b6c8-91042b737020","019cf80d-4266-7117-8a51-54e13c84aca4","","null","
                <div class=""stimulus-container"">
                    <img src=""images/schematic_sequence/hotel_scheme/hotel_scheme_3.png"" class=""exp-image"">
                    <div class=""question-area""></div> 
                </div>","null","","","","","","","","",""
"","","","","","html-button-response","43","377510","0.0-43.0","608E093810D64693B3787F3B97A171B3","019cf819-932c-7a81-b6c8-91042b737020","019cf80d-4266-7117-8a51-54e13c84aca4","","598","
                <div class=""stimulus-container"">
                    <img src=""images/schematic_sequence/hotel_scheme/hotel_scheme_3.png"" class=""exp-image"">
                    <div class=""question-area"">
                        <p style=""font-size: 20px; font-weight: bold; margin: 0;"">Is there a person in this image?</p>
                    </div>
                </div>","0","main_experiment_trial","3","hotel_scheme","schematic_sequence","","","","",""
"","","","","","html-keyboard-response","44","382512","0.0-44.0","608E093810D64693B3787F3B97A171B3","019cf819-932c-7a81-b6c8-91042b737020","019cf80d-4266-7117-8a51-54e13c84aca4","","null","
                <div class=""stimulus-container"">
                    <img src=""images/schematic_sequence/hotel_scheme/hotel_scheme_4.png"" class=""exp-image"">
                    <div class=""question-area""></div> 
                </div>","null","","","","","","","","",""
"","","","","","html-button-response","45","383112","0.0-45.0","608E093810D64693B3787F3B97A171B3","019cf819-932c-7a81-b6c8-91042b737020","019cf80d-4266-7117-8a51-54e13c84aca4","","599","
                <div class=""stimulus-container"">
                    <img src=""images/schematic_sequence/hotel_scheme/hotel_scheme_4.png"" class=""exp-image"">
                    <div class=""question-area"">
                        <p style=""font-size: 20px; font-weight: bold; margin: 0;"">Is there a person in this image?</p>
                    </div>
                </div>","1","main_experiment_trial","4","hotel_scheme","schematic_sequence","","","","",""
"","","","","","html-keyboard-response","46","388112","0.0-46.0","608E093810D64693B3787F3B97A171B3","019cf819-932c-7a81-b6c8-91042b737020","019cf80d-4266-7117-8a51-54e13c84aca4","","null","
                <div class=""stimulus-container"">
                    <img src=""images/schematic_sequence/hotel_scheme/hotel_scheme_5.png"" class=""exp-image"">
                    <div class=""question-area""></div> 
                </div>","null","","","","","","","","",""
"","","","","","html-button-response","47","391115","0.0-47.0","608E093810D64693B3787F3B97A171B3","019cf819-932c-7a81-b6c8-91042b737020","019cf80d-4266-7117-8a51-54e13c84aca4","","null","
                <div class=""stimulus-container"">
                    <img src=""images/schematic_sequence/hotel_scheme/hotel_scheme_5.png"" class=""exp-image"">
                    <div class=""question-area"">
                        <p style=""font-size: 20px; font-weight: bold; margin: 0;"">Is there a person in this image?</p>
                    </div>
                </div>","null","main_experiment_trial","5","hotel_scheme","schematic_sequence","","","","",""
"","","","","","html-keyboard-response","48","396117","0.0-48.0","608E093810D64693B3787F3B97A171B3","019cf819-932c-7a81-b6c8-91042b737020","019cf80d-4266-7117-8a51-54e13c84aca4","","null","
                <div class=""stimulus-container"">
                    <img src=""images/schematic_sequence/hotel_scheme/hotel_scheme_6.png"" class=""exp-image"">
                    <div class=""question-area""></div> 
                </div>","null","","","","","","","","",""
"","","","","","html-button-response","49","396648","0.0-49.0","608E093810D64693B3787F3B97A171B3","019cf819-932c-7a81-b6c8-91042b737020","019cf80d-4266-7117-8a51-54e13c84aca4","","530","
                <div class=""stimulus-container"">
                    <img src=""images/schematic_sequence/hotel_scheme/hotel_scheme_6.png"" class=""exp-image"">
                    <div class=""question-area"">
                        <p style=""font-size: 20px; font-weight: bold; margin: 0;"">Is there a person in this image?</p>
                    </div>
                </div>","0","main_experiment_trial","6","hotel_scheme","schematic_sequence","","","","",""
"","","","","","html-keyboard-response","50","401649","0.0-50.0","608E093810D64693B3787F3B97A171B3","019cf819-932c-7a81-b6c8-91042b737020","019cf80d-4266-7117-8a51-54e13c84aca4","","null","
                <div class=""stimulus-container"">
                    <img src=""images/schematic_sequence/hotel_scheme/hotel_scheme_7.png"" class=""exp-image"">
                    <div class=""question-area""></div> 
                </div>","null","","","","","","","","",""
"","","","","","html-button-response","51","402116","0.0-51.0","608E093810D64693B3787F3B97A171B3","019cf819-932c-7a81-b6c8-91042b737020","019cf80d-4266-7117-8a51-54e13c84aca4","","466","
                <div class=""stimulus-container"">
                    <img src=""images/schematic_sequence/hotel_scheme/hotel_scheme_7.png"" class=""exp-image"">
                    <div class=""question-area"">
                        <p style=""font-size: 20px; font-weight: bold; margin: 0;"">Is there a person in this image?</p>
                    </div>
                </div>","0","main_experiment_trial","7","hotel_scheme","schematic_sequence","","","","",""
"","","","","","html-keyboard-response","52","407118","0.0-52.0","608E093810D64693B3787F3B97A171B3","019cf819-932c-7a81-b6c8-91042b737020","019cf80d-4266-7117-8a51-54e13c84aca4","","null","
                <div class=""stimulus-container"">
                    <img src=""images/schematic_sequence/hotel_scheme/hotel_scheme_8.png"" class=""exp-image"">
                    <div class=""question-area""></div> 
                </div>","null","","","","","","","","",""
"","","","","","html-button-response","53","407584","0.0-53.0","608E093810D64693B3787F3B97A171B3","019cf819-932c-7a81-b6c8-91042b737020","019cf80d-4266-7117-8a51-54e13c84aca4","","465","
                <div class=""stimulus-container"">
                    <img src=""images/schematic_sequence/hotel_scheme/hotel_scheme_8.png"" class=""exp-image"">
                    <div class=""question-area"">
                        <p style=""font-size: 20px; font-weight: bold; margin: 0;"">Is there a person in this image?</p>
                    </div>
                </div>","0","main_experiment_trial","8","hotel_scheme","schematic_sequence","","","","",""
"","","","","","html-keyboard-response","54","412586","0.0-54.0","608E093810D64693B3787F3B97A171B3","019cf819-932c-7a81-b6c8-91042b737020","019cf80d-4266-7117-8a51-54e13c84aca4","","null","
                <div class=""stimulus-container"">
                    <img src=""images/schematic_sequence/hotel_scheme/hotel_scheme_9.png"" class=""exp-image"">
                    <div class=""question-area""></div> 
                </div>","null","","","","","","","","",""
"","","","","","html-button-response","55","413101","0.0-55.0","608E093810D64693B3787F3B97A171B3","019cf819-932c-7a81-b6c8-91042b737020","019cf80d-4266-7117-8a51-54e13c84aca4","","515","
                <div class=""stimulus-container"">
                    <img src=""images/schematic_sequence/hotel_scheme/hotel_scheme_9.png"" class=""exp-image"">
                    <div class=""question-area"">
                        <p style=""font-size: 20px; font-weight: bold; margin: 0;"">Is there a person in this image?</p>
                    </div>
                </div>","0","main_experiment_trial","9","hotel_scheme","schematic_sequence","","","","",""
"","","","","","html-keyboard-response","56","418103","0.0-56.0","608E093810D64693B3787F3B97A171B3","019cf819-932c-7a81-b6c8-91042b737020","019cf80d-4266-7117-8a51-54e13c84aca4","","null","
                <div class=""stimulus-container"">
                    <img src=""images/schematic_sequence/hotel_scheme/hotel_scheme_ten.png"" class=""exp-image"">
                    <div class=""question-area""></div> 
                </div>","null","","","","","","","","",""
"","","","","","html-button-response","57","418536","0.0-57.0","608E093810D64693B3787F3B97A171B3","019cf819-932c-7a81-b6c8-91042b737020","019cf80d-4266-7117-8a51-54e13c84aca4","","432","
                <div class=""stimulus-container"">
                    <img src=""images/schematic_sequence/hotel_scheme/hotel_scheme_ten.png"" class=""exp-image"">
                    <div class=""question-area"">
                        <p style=""font-size: 20px; font-weight: bold; margin: 0;"">Is there a person in this image?</p>
                    </div>
                </div>","0","main_experiment_trial","ten","hotel_scheme","schematic_sequence","","","","",""
"","","","","","html-keyboard-response","58","419538","0.0-58.0","608E093810D64693B3787F3B97A171B3","019cf819-932c-7a81-b6c8-91042b737020","019cf80d-4266-7117-8a51-54e13c84aca4","","null","<div style=""background-color: white; width: 100vw; height: 100vh;""></div>","null","","","","","","","","",""
"","","","","","html-keyboard-response","59","424540","0.0-59.0","608E093810D64693B3787F3B97A171B3","019cf819-932c-7a81-b6c8-91042b737020","019cf80d-4266-7117-8a51-54e13c84aca4","","null","
                <div class=""stimulus-container"">
                    <img src=""images/semantic_sequence/redecorating_a_house_semantic/redecorating_a_house_semantic_1.png"" class=""exp-image"">
                    <div class=""question-area""></div> 
                </div>","null","","","","","","","","",""
"","","","","","html-button-response","60","425154","0.0-60.0","608E093810D64693B3787F3B97A171B3","019cf819-932c-7a81-b6c8-91042b737020","019cf80d-4266-7117-8a51-54e13c84aca4","","613","
                <div class=""stimulus-container"">
                    <img src=""images/semantic_sequence/redecorating_a_house_semantic/redecorating_a_house_semantic_1.png"" class=""exp-image"">
                    <div class=""question-area"">
                        <p style=""font-size: 20px; font-weight: bold; margin: 0;"">Is there a person in this image?</p>
                    </div>
                </div>","0","main_experiment_trial","1","redecorating_a_house_semantic","semantic_sequence","","","","",""
"","","","","","html-keyboard-response","61","430156","0.0-61.0","608E093810D64693B3787F3B97A171B3","019cf819-932c-7a81-b6c8-91042b737020","019cf80d-4266-7117-8a51-54e13c84aca4","","null","
                <div class=""stimulus-container"">
                    <img src=""images/semantic_sequence/redecorating_a_house_semantic/redecorating_a_house_semantic_2.png"" class=""exp-image"">
                    <div class=""question-area""></div> 
                </div>","null","","","","","","","","",""
"","","","","","html-button-response","62","430655","0.0-62.0","608E093810D64693B3787F3B97A171B3","019cf819-932c-7a81-b6c8-91042b737020","019cf80d-4266-7117-8a51-54e13c84aca4","","498","
                <div class=""stimulus-container"">
                    <img src=""images/semantic_sequence/redecorating_a_house_semantic/redecorating_a_house_semantic_2.png"" class=""exp-image"">
                    <div class=""question-area"">
                        <p style=""font-size: 20px; font-weight: bold; margin: 0;"">Is there a person in this image?</p>
                    </div>
                </div>","0","main_experiment_trial","2","redecorating_a_house_semantic","semantic_sequence","","","","",""
"","","","","","html-keyboard-response","63","435656","0.0-63.0","608E093810D64693B3787F3B97A171B3","019cf819-932c-7a81-b6c8-91042b737020","019cf80d-4266-7117-8a51-54e13c84aca4","","null","
                <div class=""stimulus-container"">
                    <img src=""images/semantic_sequence/redecorating_a_house_semantic/redecorating_a_house_semantic_3.png"" class=""exp-image"">
                    <div class=""question-area""></div> 
                </div>","null","","","","","","","","",""
"","","","","","html-button-response","64","436122","0.0-64.0","608E093810D64693B3787F3B97A171B3","019cf819-932c-7a81-b6c8-91042b737020","019cf80d-4266-7117-8a51-54e13c84aca4","","465","
                <div class=""stimulus-container"">
                    <img src=""images/semantic_sequence/redecorating_a_house_semantic/redecorating_a_house_semantic_3.png"" class=""exp-image"">
                    <div class=""question-area"">
                        <p style=""font-size: 20px; font-weight: bold; margin: 0;"">Is there a person in this image?</p>
                    </div>
                </div>","0","main_experiment_trial","3","redecorating_a_house_semantic","semantic_sequence","","","","",""
"","","","","","html-keyboard-response","65","441125","0.0-65.0","608E093810D64693B3787F3B97A171B3","019cf819-932c-7a81-b6c8-91042b737020","019cf80d-4266-7117-8a51-54e13c84aca4","","null","
                <div class=""stimulus-container"">
                    <img src=""images/semantic_sequence/redecorating_a_house_semantic/redecorating_a_house_semantic_4.png"" class=""exp-image"">
                    <div class=""question-area""></div> 
                </div>","null","","","","","","","","",""
"","","","","","html-button-response","66","441574","0.0-66.0","608E093810D64693B3787F3B97A171B3","019cf819-932c-7a81-b6c8-91042b737020","019cf80d-4266-7117-8a51-54e13c84aca4","","448","
                <div class=""stimulus-container"">
                    <img src=""images/semantic_sequence/redecorating_a_house_semantic/redecorating_a_house_semantic_4.png"" class=""exp-image"">
                    <div class=""question-area"">
                        <p style=""font-size: 20px; font-weight: bold; margin: 0;"">Is there a person in this image?</p>
                    </div>
                </div>","0","main_experiment_trial","4","redecorating_a_house_semantic","semantic_sequence","","","","",""
"","","","","","html-keyboard-response","67","446576","0.0-67.0","608E093810D64693B3787F3B97A171B3","019cf819-932c-7a81-b6c8-91042b737020","019cf80d-4266-7117-8a51-54e13c84aca4","","null","
                <div class=""stimulus-container"">
                    <img src=""images/semantic_sequence/redecorating_a_house_semantic/redecorating_a_house_semantic_5.png"" class=""exp-image"">
                    <div class=""question-area""></div> 
                </div>","null","","","","","","","","",""
"","","","","","html-button-response","68","447058","0.0-68.0","608E093810D64693B3787F3B97A171B3","019cf819-932c-7a81-b6c8-91042b737020","019cf80d-4266-7117-8a51-54e13c84aca4","","482","
                <div class=""stimulus-container"">
                    <img src=""images/semantic_sequence/redecorating_a_house_semantic/redecorating_a_house_semantic_5.png"" class=""exp-image"">
                    <div class=""question-area"">
                        <p style=""font-size: 20px; font-weight: bold; margin: 0;"">Is there a person in this image?</p>
                    </div>
                </div>","0","main_experiment_trial","5","redecorating_a_house_semantic","semantic_sequence","","","","",""
"","","","","","html-keyboard-response","69","452060","0.0-69.0","608E093810D64693B3787F3B97A171B3","019cf819-932c-7a81-b6c8-91042b737020","019cf80d-4266-7117-8a51-54e13c84aca4","","null","
                <div class=""stimulus-container"">
                    <img src=""images/semantic_sequence/redecorating_a_house_semantic/redecorating_a_house_semantic_6.png"" class=""exp-image"">
                    <div class=""question-area""></div> 
                </div>","null","","","","","","","","",""
"","","","","","html-button-response","70","452693","0.0-70.0","608E093810D64693B3787F3B97A171B3","019cf819-932c-7a81-b6c8-91042b737020","019cf80d-4266-7117-8a51-54e13c84aca4","","631","
                <div class=""stimulus-container"">
                    <img src=""images/semantic_sequence/redecorating_a_house_semantic/redecorating_a_house_semantic_6.png"" class=""exp-image"">
                    <div class=""question-area"">
                        <p style=""font-size: 20px; font-weight: bold; margin: 0;"">Is there a person in this image?</p>
                    </div>
                </div>","0","main_experiment_trial","6","redecorating_a_house_semantic","semantic_sequence","","","","",""
"","","","","","html-keyboard-response","71","457694","0.0-71.0","608E093810D64693B3787F3B97A171B3","019cf819-932c-7a81-b6c8-91042b737020","019cf80d-4266-7117-8a51-54e13c84aca4","","null","
                <div class=""stimulus-container"">
                    <img src=""images/semantic_sequence/redecorating_a_house_semantic/redecorating_a_house_semantic_7.png"" class=""exp-image"">
                    <div class=""question-area""></div> 
                </div>","null","","","","","","","","",""
"","","","","","html-button-response","72","458210","0.0-72.0","608E093810D64693B3787F3B97A171B3","019cf819-932c-7a81-b6c8-91042b737020","019cf80d-4266-7117-8a51-54e13c84aca4","","515","
                <div class=""stimulus-container"">
                    <img src=""images/semantic_sequence/redecorating_a_house_semantic/redecorating_a_house_semantic_7.png"" class=""exp-image"">
                    <div class=""question-area"">
                        <p style=""font-size: 20px; font-weight: bold; margin: 0;"">Is there a person in this image?</p>
                    </div>
                </div>","0","main_experiment_trial","7","redecorating_a_house_semantic","semantic_sequence","","","","",""
"","","","","","html-keyboard-response","73","463212","0.0-73.0","608E093810D64693B3787F3B97A171B3","019cf819-932c-7a81-b6c8-91042b737020","019cf80d-4266-7117-8a51-54e13c84aca4","","null","
                <div class=""stimulus-container"">
                    <img src=""images/semantic_sequence/redecorating_a_house_semantic/redecorating_a_house_semantic_8.png"" class=""exp-image"">
                    <div class=""question-area""></div> 
                </div>","null","","","","","","","","",""
"","","","","","html-button-response","74","463794","0.0-74.0","608E093810D64693B3787F3B97A171B3","019cf819-932c-7a81-b6c8-91042b737020","019cf80d-4266-7117-8a51-54e13c84aca4","","581","
                <div class=""stimulus-container"">
                    <img src=""images/semantic_sequence/redecorating_a_house_semantic/redecorating_a_house_semantic_8.png"" class=""exp-image"">
                    <div class=""question-area"">
                        <p style=""font-size: 20px; font-weight: bold; margin: 0;"">Is there a person in this image?</p>
                    </div>
                </div>","0","main_experiment_trial","8","redecorating_a_house_semantic","semantic_sequence","","","","",""
"","","","","","html-keyboard-response","75","468796","0.0-75.0","608E093810D64693B3787F3B97A171B3","019cf819-932c-7a81-b6c8-91042b737020","019cf80d-4266-7117-8a51-54e13c84aca4","","null","
                <div class=""stimulus-container"">
                    <img src=""images/semantic_sequence/redecorating_a_house_semantic/redecorating_a_house_semantic_9.png"" class=""exp-image"">
                    <div class=""question-area""></div> 
                </div>","null","","","","","","","","",""
"","","","","","html-button-response","76","469479","0.0-76.0","608E093810D64693B3787F3B97A171B3","019cf819-932c-7a81-b6c8-91042b737020","019cf80d-4266-7117-8a51-54e13c84aca4","","682","
                <div class=""stimulus-container"">
                    <img src=""images/semantic_sequence/redecorating_a_house_semantic/redecorating_a_house_semantic_9.png"" class=""exp-image"">
                    <div class=""question-area"">
                        <p style=""font-size: 20px; font-weight: bold; margin: 0;"">Is there a person in this image?</p>
                    </div>
                </div>","0","main_experiment_trial","9","redecorating_a_house_semantic","semantic_sequence","","","","",""
"","","","","","html-keyboard-response","77","474480","0.0-77.0","608E093810D64693B3787F3B97A171B3","019cf819-932c-7a81-b6c8-91042b737020","019cf80d-4266-7117-8a51-54e13c84aca4","","null","
                <div class=""stimulus-container"">
                    <img src=""images/semantic_sequence/redecorating_a_house_semantic/redecorating_a_house_semantic_ten.png"" class=""exp-image"">
                    <div class=""question-area""></div> 
                </div>","null","","","","","","","","",""
"","","","","","html-button-response","78","475096","0.0-78.0","608E093810D64693B3787F3B97A171B3","019cf819-932c-7a81-b6c8-91042b737020","019cf80d-4266-7117-8a51-54e13c84aca4","","615","
                <div class=""stimulus-container"">
                    <img src=""images/semantic_sequence/redecorating_a_house_semantic/redecorating_a_house_semantic_ten.png"" class=""exp-image"">
                    <div class=""question-area"">
                        <p style=""font-size: 20px; font-weight: bold; margin: 0;"">Is there a person in this image?</p>
                    </div>
                </div>","0","main_experiment_trial","ten","redecorating_a_house_semantic","semantic_sequence","","","","",""
"","","","","","html-keyboard-response","79","476099","0.0-79.0","608E093810D64693B3787F3B97A171B3","019cf819-932c-7a81-b6c8-91042b737020","019cf80d-4266-7117-8a51-54e13c84aca4","","null","<div style=""background-color: white; width: 100vw; height: 100vh;""></div>","null","","","","","","","","",""
"","","","","","html-keyboard-response","80","481101","0.0-80.0","608E093810D64693B3787F3B97A171B3","019cf819-932c-7a81-b6c8-91042b737020","019cf80d-4266-7117-8a51-54e13c84aca4","","null","
                <div class=""stimulus-container"">
                    <img src=""images/schematic_sequence/restaurant_scheme/restaurant_scheme_1.png"" class=""exp-image"">
                    <div class=""question-area""></div> 
                </div>","null","","","","","","","","",""
"","","","","","html-button-response","81","482031","0.0-81.0","608E093810D64693B3787F3B97A171B3","019cf819-932c-7a81-b6c8-91042b737020","019cf80d-4266-7117-8a51-54e13c84aca4","","930","
                <div class=""stimulus-container"">
                    <img src=""images/schematic_sequence/restaurant_scheme/restaurant_scheme_1.png"" class=""exp-image"">
                    <div class=""question-area"">
                        <p style=""font-size: 20px; font-weight: bold; margin: 0;"">Is there a person in this image?</p>
                    </div>
                </div>","0","main_experiment_trial","1","restaurant_scheme","schematic_sequence","","","","",""
"","","","","","html-keyboard-response","82","487033","0.0-82.0","608E093810D64693B3787F3B97A171B3","019cf819-932c-7a81-b6c8-91042b737020","019cf80d-4266-7117-8a51-54e13c84aca4","","null","
                <div class=""stimulus-container"">
                    <img src=""images/schematic_sequence/restaurant_scheme/restaurant_scheme_2.png"" class=""exp-image"">
                    <div class=""question-area""></div> 
                </div>","null","","","","","","","","",""
"","","","","","html-button-response","83","487649","0.0-83.0","608E093810D64693B3787F3B97A171B3","019cf819-932c-7a81-b6c8-91042b737020","019cf80d-4266-7117-8a51-54e13c84aca4","","615","
                <div class=""stimulus-container"">
                    <img src=""images/schematic_sequence/restaurant_scheme/restaurant_scheme_2.png"" class=""exp-image"">
                    <div class=""question-area"">
                        <p style=""font-size: 20px; font-weight: bold; margin: 0;"">Is there a person in this image?</p>
                    </div>
                </div>","1","main_experiment_trial","2","restaurant_scheme","schematic_sequence","","","","",""
"","","","","","html-keyboard-response","84","492650","0.0-84.0","608E093810D64693B3787F3B97A171B3","019cf819-932c-7a81-b6c8-91042b737020","019cf80d-4266-7117-8a51-54e13c84aca4","","null","
                <div class=""stimulus-container"">
                    <img src=""images/schematic_sequence/restaurant_scheme/restaurant_scheme_3.png"" class=""exp-image"">
                    <div class=""question-area""></div> 
                </div>","null","","","","","","","","",""
"","","","","","html-button-response","85","493150","0.0-85.0","608E093810D64693B3787F3B97A171B3","019cf819-932c-7a81-b6c8-91042b737020","019cf80d-4266-7117-8a51-54e13c84aca4","","499","
                <div class=""stimulus-container"">
                    <img src=""images/schematic_sequence/restaurant_scheme/restaurant_scheme_3.png"" class=""exp-image"">
                    <div class=""question-area"">
                        <p style=""font-size: 20px; font-weight: bold; margin: 0;"">Is there a person in this image?</p>
                    </div>
                </div>","1","main_experiment_trial","3","restaurant_scheme","schematic_sequence","","","","",""
"","","","","","html-keyboard-response","86","498152","0.0-86.0","608E093810D64693B3787F3B97A171B3","019cf819-932c-7a81-b6c8-91042b737020","019cf80d-4266-7117-8a51-54e13c84aca4","","null","
                <div class=""stimulus-container"">
                    <img src=""images/schematic_sequence/restaurant_scheme/restaurant_scheme_4.png"" class=""exp-image"">
                    <div class=""question-area""></div> 
                </div>","null","","","","","","","","",""
"","","","","","html-button-response","87","498685","0.0-87.0","608E093810D64693B3787F3B97A171B3","019cf819-932c-7a81-b6c8-91042b737020","019cf80d-4266-7117-8a51-54e13c84aca4","","532","
                <div class=""stimulus-container"">
                    <img src=""images/schematic_sequence/restaurant_scheme/restaurant_scheme_4.png"" class=""exp-image"">
                    <div class=""question-area"">
                        <p style=""font-size: 20px; font-weight: bold; margin: 0;"">Is there a person in this image?</p>
                    </div>
                </div>","0","main_experiment_trial","4","restaurant_scheme","schematic_sequence","","","","",""
"","","","","","html-keyboard-response","88","503687","0.0-88.0","608E093810D64693B3787F3B97A171B3","019cf819-932c-7a81-b6c8-91042b737020","019cf80d-4266-7117-8a51-54e13c84aca4","","null","
                <div class=""stimulus-container"">
                    <img src=""images/schematic_sequence/restaurant_scheme/restaurant_scheme_5.png"" class=""exp-image"">
                    <div class=""question-area""></div> 
                </div>","null","","","","","","","","",""
"","","","","","html-button-response","89","504269","0.0-89.0","608E093810D64693B3787F3B97A171B3","019cf819-932c-7a81-b6c8-91042b737020","019cf80d-4266-7117-8a51-54e13c84aca4","","582","
                <div class=""stimulus-container"">
                    <img src=""images/schematic_sequence/restaurant_scheme/restaurant_scheme_5.png"" class=""exp-image"">
                    <div class=""question-area"">
                        <p style=""font-size: 20px; font-weight: bold; margin: 0;"">Is there a person in this image?</p>
                    </div>
                </div>","0","main_experiment_trial","5","restaurant_scheme","schematic_sequence","","","","",""
"","","","","","html-keyboard-response","90","509272","0.0-90.0","608E093810D64693B3787F3B97A171B3","019cf819-932c-7a81-b6c8-91042b737020","019cf80d-4266-7117-8a51-54e13c84aca4","","null","
                <div class=""stimulus-container"">
                    <img src=""images/schematic_sequence/restaurant_scheme/restaurant_scheme_6.png"" class=""exp-image"">
                    <div class=""question-area""></div> 
                </div>","null","","","","","","","","",""
"","","","","","html-button-response","91","509904","0.0-91.0","608E093810D64693B3787F3B97A171B3","019cf819-932c-7a81-b6c8-91042b737020","019cf80d-4266-7117-8a51-54e13c84aca4","","631","
                <div class=""stimulus-container"">
                    <img src=""images/schematic_sequence/restaurant_scheme/restaurant_scheme_6.png"" class=""exp-image"">
                    <div class=""question-area"">
                        <p style=""font-size: 20px; font-weight: bold; margin: 0;"">Is there a person in this image?</p>
                    </div>
                </div>","1","main_experiment_trial","6","restaurant_scheme","schematic_sequence","","","","",""
"","","","","","html-keyboard-response","92","514905","0.0-92.0","608E093810D64693B3787F3B97A171B3","019cf819-932c-7a81-b6c8-91042b737020","019cf80d-4266-7117-8a51-54e13c84aca4","","null","
                <div class=""stimulus-container"">
                    <img src=""images/schematic_sequence/restaurant_scheme/restaurant_scheme_7.png"" class=""exp-image"">
                    <div class=""question-area""></div> 
                </div>","null","","","","","","","","",""
"","","","","","html-button-response","93","515755","0.0-93.0","608E093810D64693B3787F3B97A171B3","019cf819-932c-7a81-b6c8-91042b737020","019cf80d-4266-7117-8a51-54e13c84aca4","","849","
                <div class=""stimulus-container"">
                    <img src=""images/schematic_sequence/restaurant_scheme/restaurant_scheme_7.png"" class=""exp-image"">
                    <div class=""question-area"">
                        <p style=""font-size: 20px; font-weight: bold; margin: 0;"">Is there a person in this image?</p>
                    </div>
                </div>","1","main_experiment_trial","7","restaurant_scheme","schematic_sequence","","","","",""
"","","","","","html-keyboard-response","94","520757","0.0-94.0","608E093810D64693B3787F3B97A171B3","019cf819-932c-7a81-b6c8-91042b737020","019cf80d-4266-7117-8a51-54e13c84aca4","","null","
                <div class=""stimulus-container"">
                    <img src=""images/schematic_sequence/restaurant_scheme/restaurant_scheme_8.png"" class=""exp-image"">
                    <div class=""question-area""></div> 
                </div>","null","","","","","","","","",""
"","","","","","html-button-response","95","521506","0.0-95.0","608E093810D64693B3787F3B97A171B3","019cf819-932c-7a81-b6c8-91042b737020","019cf80d-4266-7117-8a51-54e13c84aca4","","748","
                <div class=""stimulus-container"">
                    <img src=""images/schematic_sequence/restaurant_scheme/restaurant_scheme_8.png"" class=""exp-image"">
                    <div class=""question-area"">
                        <p style=""font-size: 20px; font-weight: bold; margin: 0;"">Is there a person in this image?</p>
                    </div>
                </div>","0","main_experiment_trial","8","restaurant_scheme","schematic_sequence","","","","",""
"","","","","","html-keyboard-response","96","526508","0.0-96.0","608E093810D64693B3787F3B97A171B3","019cf819-932c-7a81-b6c8-91042b737020","019cf80d-4266-7117-8a51-54e13c84aca4","","null","
                <div class=""stimulus-container"">
                    <img src=""images/schematic_sequence/restaurant_scheme/restaurant_scheme_9.png"" class=""exp-image"">
                    <div class=""question-area""></div> 
                </div>","null","","","","","","","","",""
"","","","","","html-button-response","97","526990","0.0-97.0","608E093810D64693B3787F3B97A171B3","019cf819-932c-7a81-b6c8-91042b737020","019cf80d-4266-7117-8a51-54e13c84aca4","","481","
                <div class=""stimulus-container"">
                    <img src=""images/schematic_sequence/restaurant_scheme/restaurant_scheme_9.png"" class=""exp-image"">
                    <div class=""question-area"">
                        <p style=""font-size: 20px; font-weight: bold; margin: 0;"">Is there a person in this image?</p>
                    </div>
                </div>","0","main_experiment_trial","9","restaurant_scheme","schematic_sequence","","","","",""
"","","","","","html-keyboard-response","98","531992","0.0-98.0","608E093810D64693B3787F3B97A171B3","019cf819-932c-7a81-b6c8-91042b737020","019cf80d-4266-7117-8a51-54e13c84aca4","","null","
                <div class=""stimulus-container"">
                    <img src=""images/schematic_sequence/restaurant_scheme/restaurant_scheme_ten.png"" class=""exp-image"">
                    <div class=""question-area""></div> 
                </div>","null","","","","","","","","",""
"","","","","","html-button-response","99","532541","0.0-99.0","608E093810D64693B3787F3B97A171B3","019cf819-932c-7a81-b6c8-91042b737020","019cf80d-4266-7117-8a51-54e13c84aca4","","548","
                <div class=""stimulus-container"">
                    <img src=""images/schematic_sequence/restaurant_scheme/restaurant_scheme_ten.png"" class=""exp-image"">
                    <div class=""question-area"">
                        <p style=""font-size: 20px; font-weight: bold; margin: 0;"">Is there a person in this image?</p>
                    </div>
                </div>","0","main_experiment_trial","ten","restaurant_scheme","schematic_sequence","","","","",""
"","","","","","html-keyboard-response","100","533543","0.0-100.0","608E093810D64693B3787F3B97A171B3","019cf819-932c-7a81-b6c8-91042b737020","019cf80d-4266-7117-8a51-54e13c84aca4","","null","<div style=""background-color: white; width: 100vw; height: 100vh;""></div>","null","","","","","","","","",""
"","","","","","html-keyboard-response","101","538545","0.0-101.0","608E093810D64693B3787F3B97A171B3","019cf819-932c-7a81-b6c8-91042b737020","019cf80d-4266-7117-8a51-54e13c84aca4","","null","
                <div class=""stimulus-container"">
                    <img src=""images/semantic_sequence/exploring_nature_semantic/exploring_nature_semantic_1.png"" class=""exp-image"">
                    <div class=""question-area""></div> 
                </div>","null","","","","","","","","",""
"","","","","","html-button-response","102","539110","0.0-102.0","608E093810D64693B3787F3B97A171B3","019cf819-932c-7a81-b6c8-91042b737020","019cf80d-4266-7117-8a51-54e13c84aca4","","564","
                <div class=""stimulus-container"">
                    <img src=""images/semantic_sequence/exploring_nature_semantic/exploring_nature_semantic_1.png"" class=""exp-image"">
                    <div class=""question-area"">
                        <p style=""font-size: 20px; font-weight: bold; margin: 0;"">Is there a person in this image?</p>
                    </div>
                </div>","0","main_experiment_trial","1","exploring_nature_semantic","semantic_sequence","","","","",""
"","","","","","html-keyboard-response","103","544111","0.0-103.0","608E093810D64693B3787F3B97A171B3","019cf819-932c-7a81-b6c8-91042b737020","019cf80d-4266-7117-8a51-54e13c84aca4","","null","
                <div class=""stimulus-container"">
                    <img src=""images/semantic_sequence/exploring_nature_semantic/exploring_nature_semantic_2.png"" class=""exp-image"">
                    <div class=""question-area""></div> 
                </div>","null","","","","","","","","",""
"","","","","","html-button-response","104","544644","0.0-104.0","608E093810D64693B3787F3B97A171B3","019cf819-932c-7a81-b6c8-91042b737020","019cf80d-4266-7117-8a51-54e13c84aca4","","532","
                <div class=""stimulus-container"">
                    <img src=""images/semantic_sequence/exploring_nature_semantic/exploring_nature_semantic_2.png"" class=""exp-image"">
                    <div class=""question-area"">
                        <p style=""font-size: 20px; font-weight: bold; margin: 0;"">Is there a person in this image?</p>
                    </div>
                </div>","0","main_experiment_trial","2","exploring_nature_semantic","semantic_sequence","","","","",""
"","","","","","html-keyboard-response","105","549646","0.0-105.0","608E093810D64693B3787F3B97A171B3","019cf819-932c-7a81-b6c8-91042b737020","019cf80d-4266-7117-8a51-54e13c84aca4","","null","
                <div class=""stimulus-container"">
                    <img src=""images/semantic_sequence/exploring_nature_semantic/exploring_nature_semantic_3.png"" class=""exp-image"">
                    <div class=""question-area""></div> 
                </div>","null","","","","","","","","",""
"","","","","","html-button-response","106","550178","0.0-106.0","608E093810D64693B3787F3B97A171B3","019cf819-932c-7a81-b6c8-91042b737020","019cf80d-4266-7117-8a51-54e13c84aca4","","532","
                <div class=""stimulus-container"">
                    <img src=""images/semantic_sequence/exploring_nature_semantic/exploring_nature_semantic_3.png"" class=""exp-image"">
                    <div class=""question-area"">
                        <p style=""font-size: 20px; font-weight: bold; margin: 0;"">Is there a person in this image?</p>
                    </div>
                </div>","0","main_experiment_trial","3","exploring_nature_semantic","semantic_sequence","","","","",""
"","","","","","html-keyboard-response","107","555180","0.0-107.0","608E093810D64693B3787F3B97A171B3","019cf819-932c-7a81-b6c8-91042b737020","019cf80d-4266-7117-8a51-54e13c84aca4","","null","
                <div class=""stimulus-container"">
                    <img src=""images/semantic_sequence/exploring_nature_semantic/exploring_nature_semantic_4.png"" class=""exp-image"">
                    <div class=""question-area""></div> 
                </div>","null","","","","","","","","",""
"","","","","","html-button-response","108","555630","0.0-108.0","608E093810D64693B3787F3B97A171B3","019cf819-932c-7a81-b6c8-91042b737020","019cf80d-4266-7117-8a51-54e13c84aca4","","448","
                <div class=""stimulus-container"">
                    <img src=""images/semantic_sequence/exploring_nature_semantic/exploring_nature_semantic_4.png"" class=""exp-image"">
                    <div class=""question-area"">
                        <p style=""font-size: 20px; font-weight: bold; margin: 0;"">Is there a person in this image?</p>
                    </div>
                </div>","0","main_experiment_trial","4","exploring_nature_semantic","semantic_sequence","","","","",""
"","","","","","html-keyboard-response","109","560632","0.0-109.0","608E093810D64693B3787F3B97A171B3","019cf819-932c-7a81-b6c8-91042b737020","019cf80d-4266-7117-8a51-54e13c84aca4","","null","
                <div class=""stimulus-container"">
                    <img src=""images/semantic_sequence/exploring_nature_semantic/exploring_nature_semantic_5.png"" class=""exp-image"">
                    <div class=""question-area""></div> 
                </div>","null","","","","","","","","",""
"","","","","","html-button-response","110","561097","0.0-110.0","608E093810D64693B3787F3B97A171B3","019cf819-932c-7a81-b6c8-91042b737020","019cf80d-4266-7117-8a51-54e13c84aca4","","465","
                <div class=""stimulus-container"">
                    <img src=""images/semantic_sequence/exploring_nature_semantic/exploring_nature_semantic_5.png"" class=""exp-image"">
                    <div class=""question-area"">
                        <p style=""font-size: 20px; font-weight: bold; margin: 0;"">Is there a person in this image?</p>
                    </div>
                </div>","0","main_experiment_trial","5","exploring_nature_semantic","semantic_sequence","","","","",""
"","","","","","html-keyboard-response","111","566099","0.0-111.0","608E093810D64693B3787F3B97A171B3","019cf819-932c-7a81-b6c8-91042b737020","019cf80d-4266-7117-8a51-54e13c84aca4","","null","
                <div class=""stimulus-container"">
                    <img src=""images/semantic_sequence/exploring_nature_semantic/exploring_nature_semantic_6.png"" class=""exp-image"">
                    <div class=""question-area""></div> 
                </div>","null","","","","","","","","",""
"","","","","","html-button-response","112","566615","0.0-112.0","608E093810D64693B3787F3B97A171B3","019cf819-932c-7a81-b6c8-91042b737020","019cf80d-4266-7117-8a51-54e13c84aca4","","515","
                <div class=""stimulus-container"">
                    <img src=""images/semantic_sequence/exploring_nature_semantic/exploring_nature_semantic_6.png"" class=""exp-image"">
                    <div class=""question-area"">
                        <p style=""font-size: 20px; font-weight: bold; margin: 0;"">Is there a person in this image?</p>
                    </div>
                </div>","0","main_experiment_trial","6","exploring_nature_semantic","semantic_sequence","","","","",""
"","","","","","html-keyboard-response","113","571617","0.0-113.0","608E093810D64693B3787F3B97A171B3","019cf819-932c-7a81-b6c8-91042b737020","019cf80d-4266-7117-8a51-54e13c84aca4","","null","
                <div class=""stimulus-container"">
                    <img src=""images/semantic_sequence/exploring_nature_semantic/exploring_nature_semantic_7.png"" class=""exp-image"">
                    <div class=""question-area""></div> 
                </div>","null","","","","","","","","",""
"","","","","","html-button-response","114","572083","0.0-114.0","608E093810D64693B3787F3B97A171B3","019cf819-932c-7a81-b6c8-91042b737020","019cf80d-4266-7117-8a51-54e13c84aca4","","465","
                <div class=""stimulus-container"">
                    <img src=""images/semantic_sequence/exploring_nature_semantic/exploring_nature_semantic_7.png"" class=""exp-image"">
                    <div class=""question-area"">
                        <p style=""font-size: 20px; font-weight: bold; margin: 0;"">Is there a person in this image?</p>
                    </div>
                </div>","0","main_experiment_trial","7","exploring_nature_semantic","semantic_sequence","","","","",""
"","","","","","html-keyboard-response","115","577085","0.0-115.0","608E093810D64693B3787F3B97A171B3","019cf819-932c-7a81-b6c8-91042b737020","019cf80d-4266-7117-8a51-54e13c84aca4","","null","
                <div class=""stimulus-container"">
                    <img src=""images/semantic_sequence/exploring_nature_semantic/exploring_nature_semantic_8.png"" class=""exp-image"">
                    <div class=""question-area""></div> 
                </div>","null","","","","","","","","",""
"","","","","","html-button-response","116","577734","0.0-116.0","608E093810D64693B3787F3B97A171B3","019cf819-932c-7a81-b6c8-91042b737020","019cf80d-4266-7117-8a51-54e13c84aca4","","649","
                <div class=""stimulus-container"">
                    <img src=""images/semantic_sequence/exploring_nature_semantic/exploring_nature_semantic_8.png"" class=""exp-image"">
                    <div class=""question-area"">
                        <p style=""font-size: 20px; font-weight: bold; margin: 0;"">Is there a person in this image?</p>
                    </div>
                </div>","0","main_experiment_trial","8","exploring_nature_semantic","semantic_sequence","","","","",""
"","","","","","html-keyboard-response","117","582736","0.0-117.0","608E093810D64693B3787F3B97A171B3","019cf819-932c-7a81-b6c8-91042b737020","019cf80d-4266-7117-8a51-54e13c84aca4","","null","
                <div class=""stimulus-container"">
                    <img src=""images/semantic_sequence/exploring_nature_semantic/exploring_nature_semantic_9.png"" class=""exp-image"">
                    <div class=""question-area""></div> 
                </div>","null","","","","","","","","",""
"","","","","","html-button-response","118","583468","0.0-118.0","608E093810D64693B3787F3B97A171B3","019cf819-932c-7a81-b6c8-91042b737020","019cf80d-4266-7117-8a51-54e13c84aca4","","731","
                <div class=""stimulus-container"">
                    <img src=""images/semantic_sequence/exploring_nature_semantic/exploring_nature_semantic_9.png"" class=""exp-image"">
                    <div class=""question-area"">
                        <p style=""font-size: 20px; font-weight: bold; margin: 0;"">Is there a person in this image?</p>
                    </div>
                </div>","0","main_experiment_trial","9","exploring_nature_semantic","semantic_sequence","","","","",""
"","","","","","html-keyboard-response","119","588470","0.0-119.0","608E093810D64693B3787F3B97A171B3","019cf819-932c-7a81-b6c8-91042b737020","019cf80d-4266-7117-8a51-54e13c84aca4","","null","
                <div class=""stimulus-container"">
                    <img src=""images/semantic_sequence/exploring_nature_semantic/exploring_nature_semantic_ten.png"" class=""exp-image"">
                    <div class=""question-area""></div> 
                </div>","null","","","","","","","","",""
"","","","","","html-button-response","120","589053","0.0-120.0","608E093810D64693B3787F3B97A171B3","019cf819-932c-7a81-b6c8-91042b737020","019cf80d-4266-7117-8a51-54e13c84aca4","","583","
                <div class=""stimulus-container"">
                    <img src=""images/semantic_sequence/exploring_nature_semantic/exploring_nature_semantic_ten.png"" class=""exp-image"">
                    <div class=""question-area"">
                        <p style=""font-size: 20px; font-weight: bold; margin: 0;"">Is there a person in this image?</p>
                    </div>
                </div>","0","main_experiment_trial","ten","exploring_nature_semantic","semantic_sequence","","","","",""
"","","","","","html-keyboard-response","121","590056","0.0-121.0","608E093810D64693B3787F3B97A171B3","019cf819-932c-7a81-b6c8-91042b737020","019cf80d-4266-7117-8a51-54e13c84aca4","","null","<div style=""background-color: white; width: 100vw; height: 100vh;""></div>","null","","","","","","","","",""
"","","","","","html-keyboard-response","122","595058","0.0-122.0","608E093810D64693B3787F3B97A171B3","019cf819-932c-7a81-b6c8-91042b737020","019cf80d-4266-7117-8a51-54e13c84aca4","","null","
                <div class=""stimulus-container"">
                    <img src=""images/semantic_sequence/visiting_cities_semantic/visiting_cities_semantic_1.png"" class=""exp-image"">
                    <div class=""question-area""></div> 
                </div>","null","","","","","","","","",""
"","","","","","html-button-response","123","596204","0.0-123.0","608E093810D64693B3787F3B97A171B3","019cf819-932c-7a81-b6c8-91042b737020","019cf80d-4266-7117-8a51-54e13c84aca4","","1146","
                <div class=""stimulus-container"">
                    <img src=""images/semantic_sequence/visiting_cities_semantic/visiting_cities_semantic_1.png"" class=""exp-image"">
                    <div class=""question-area"">
                        <p style=""font-size: 20px; font-weight: bold; margin: 0;"">Is there a person in this image?</p>
                    </div>
                </div>","0","main_experiment_trial","1","visiting_cities_semantic","semantic_sequence","","","","",""
"","","","","","html-keyboard-response","124","601205","0.0-124.0","608E093810D64693B3787F3B97A171B3","019cf819-932c-7a81-b6c8-91042b737020","019cf80d-4266-7117-8a51-54e13c84aca4","","null","
                <div class=""stimulus-container"">
                    <img src=""images/semantic_sequence/visiting_cities_semantic/visiting_cities_semantic_2.png"" class=""exp-image"">
                    <div class=""question-area""></div> 
                </div>","null","","","","","","","","",""
"","","","","","html-button-response","125","601806","0.0-125.0","608E093810D64693B3787F3B97A171B3","019cf819-932c-7a81-b6c8-91042b737020","019cf80d-4266-7117-8a51-54e13c84aca4","","600","
                <div class=""stimulus-container"">
                    <img src=""images/semantic_sequence/visiting_cities_semantic/visiting_cities_semantic_2.png"" class=""exp-image"">
                    <div class=""question-area"">
                        <p style=""font-size: 20px; font-weight: bold; margin: 0;"">Is there a person in this image?</p>
                    </div>
                </div>","1","main_experiment_trial","2","visiting_cities_semantic","semantic_sequence","","","","",""
"","","","","","html-keyboard-response","126","606807","0.0-126.0","608E093810D64693B3787F3B97A171B3","019cf819-932c-7a81-b6c8-91042b737020","019cf80d-4266-7117-8a51-54e13c84aca4","","null","
                <div class=""stimulus-container"">
                    <img src=""images/semantic_sequence/visiting_cities_semantic/visiting_cities_semantic_3.png"" class=""exp-image"">
                    <div class=""question-area""></div> 
                </div>","null","","","","","","","","",""
"","","","","","html-button-response","127","607557","0.0-127.0","608E093810D64693B3787F3B97A171B3","019cf819-932c-7a81-b6c8-91042b737020","019cf80d-4266-7117-8a51-54e13c84aca4","","749","
                <div class=""stimulus-container"">
                    <img src=""images/semantic_sequence/visiting_cities_semantic/visiting_cities_semantic_3.png"" class=""exp-image"">
                    <div class=""question-area"">
                        <p style=""font-size: 20px; font-weight: bold; margin: 0;"">Is there a person in this image?</p>
                    </div>
                </div>","1","main_experiment_trial","3","visiting_cities_semantic","semantic_sequence","","","","",""
"","","","","","html-keyboard-response","128","612559","0.0-128.0","608E093810D64693B3787F3B97A171B3","019cf819-932c-7a81-b6c8-91042b737020","019cf80d-4266-7117-8a51-54e13c84aca4","","null","
                <div class=""stimulus-container"">
                    <img src=""images/semantic_sequence/visiting_cities_semantic/visiting_cities_semantic_4.png"" class=""exp-image"">
                    <div class=""question-area""></div> 
                </div>","null","","","","","","","","",""
"","","","","","html-button-response","129","613175","0.0-129.0","608E093810D64693B3787F3B97A171B3","019cf819-932c-7a81-b6c8-91042b737020","019cf80d-4266-7117-8a51-54e13c84aca4","","615","
                <div class=""stimulus-container"">
                    <img src=""images/semantic_sequence/visiting_cities_semantic/visiting_cities_semantic_4.png"" class=""exp-image"">
                    <div class=""question-area"">
                        <p style=""font-size: 20px; font-weight: bold; margin: 0;"">Is there a person in this image?</p>
                    </div>
                </div>","1","main_experiment_trial","4","visiting_cities_semantic","semantic_sequence","","","","",""
"","","","","","html-keyboard-response","130","618177","0.0-130.0","608E093810D64693B3787F3B97A171B3","019cf819-932c-7a81-b6c8-91042b737020","019cf80d-4266-7117-8a51-54e13c84aca4","","null","
                <div class=""stimulus-container"">
                    <img src=""images/semantic_sequence/visiting_cities_semantic/visiting_cities_semantic_5.png"" class=""exp-image"">
                    <div class=""question-area""></div> 
                </div>","null","","","","","","","","",""
"","","","","","html-button-response","131","619076","0.0-131.0","608E093810D64693B3787F3B97A171B3","019cf819-932c-7a81-b6c8-91042b737020","019cf80d-4266-7117-8a51-54e13c84aca4","","898","
                <div class=""stimulus-container"">
                    <img src=""images/semantic_sequence/visiting_cities_semantic/visiting_cities_semantic_5.png"" class=""exp-image"">
                    <div class=""question-area"">
                        <p style=""font-size: 20px; font-weight: bold; margin: 0;"">Is there a person in this image?</p>
                    </div>
                </div>","0","main_experiment_trial","5","visiting_cities_semantic","semantic_sequence","","","","",""
"","","","","","html-keyboard-response","132","624080","0.0-132.0","608E093810D64693B3787F3B97A171B3","019cf819-932c-7a81-b6c8-91042b737020","019cf80d-4266-7117-8a51-54e13c84aca4","","null","
                <div class=""stimulus-container"">
                    <img src=""images/semantic_sequence/visiting_cities_semantic/visiting_cities_semantic_6.png"" class=""exp-image"">
                    <div class=""question-area""></div> 
                </div>","null","","","","","","","","",""
"","","","","","html-button-response","133","624694","0.0-133.0","608E093810D64693B3787F3B97A171B3","019cf819-932c-7a81-b6c8-91042b737020","019cf80d-4266-7117-8a51-54e13c84aca4","","614","
                <div class=""stimulus-container"">
                    <img src=""images/semantic_sequence/visiting_cities_semantic/visiting_cities_semantic_6.png"" class=""exp-image"">
                    <div class=""question-area"">
                        <p style=""font-size: 20px; font-weight: bold; margin: 0;"">Is there a person in this image?</p>
                    </div>
                </div>","1","main_experiment_trial","6","visiting_cities_semantic","semantic_sequence","","","","",""
"","","","","","html-keyboard-response","134","629697","0.0-134.0","608E093810D64693B3787F3B97A171B3","019cf819-932c-7a81-b6c8-91042b737020","019cf80d-4266-7117-8a51-54e13c84aca4","","null","
                <div class=""stimulus-container"">
                    <img src=""images/semantic_sequence/visiting_cities_semantic/visiting_cities_semantic_7.png"" class=""exp-image"">
                    <div class=""question-area""></div> 
                </div>","null","","","","","","","","",""
"","","","","","html-button-response","135","630662","0.0-135.0","608E093810D64693B3787F3B97A171B3","019cf819-932c-7a81-b6c8-91042b737020","019cf80d-4266-7117-8a51-54e13c84aca4","","964","
                <div class=""stimulus-container"">
                    <img src=""images/semantic_sequence/visiting_cities_semantic/visiting_cities_semantic_7.png"" class=""exp-image"">
                    <div class=""question-area"">
                        <p style=""font-size: 20px; font-weight: bold; margin: 0;"">Is there a person in this image?</p>
                    </div>
                </div>","0","main_experiment_trial","7","visiting_cities_semantic","semantic_sequence","","","","",""
"","","","","","html-keyboard-response","136","635664","0.0-136.0","608E093810D64693B3787F3B97A171B3","019cf819-932c-7a81-b6c8-91042b737020","019cf80d-4266-7117-8a51-54e13c84aca4","","null","
                <div class=""stimulus-container"">
                    <img src=""images/semantic_sequence/visiting_cities_semantic/visiting_cities_semantic_8.png"" class=""exp-image"">
                    <div class=""question-area""></div> 
                </div>","null","","","","","","","","",""
"","","","","","html-button-response","137","636330","0.0-137.0","608E093810D64693B3787F3B97A171B3","019cf819-932c-7a81-b6c8-91042b737020","019cf80d-4266-7117-8a51-54e13c84aca4","","665","
                <div class=""stimulus-container"">
                    <img src=""images/semantic_sequence/visiting_cities_semantic/visiting_cities_semantic_8.png"" class=""exp-image"">
                    <div class=""question-area"">
                        <p style=""font-size: 20px; font-weight: bold; margin: 0;"">Is there a person in this image?</p>
                    </div>
                </div>","0","main_experiment_trial","8","visiting_cities_semantic","semantic_sequence","","","","",""
"","","","","","html-keyboard-response","138","641332","0.0-138.0","608E093810D64693B3787F3B97A171B3","019cf819-932c-7a81-b6c8-91042b737020","019cf80d-4266-7117-8a51-54e13c84aca4","","null","
                <div class=""stimulus-container"">
                    <img src=""images/semantic_sequence/visiting_cities_semantic/visiting_cities_semantic_9.png"" class=""exp-image"">
                    <div class=""question-area""></div> 
                </div>","null","","","","","","","","",""
"","","","","","html-button-response","139","642615","0.0-139.0","608E093810D64693B3787F3B97A171B3","019cf819-932c-7a81-b6c8-91042b737020","019cf80d-4266-7117-8a51-54e13c84aca4","","1282","
                <div class=""stimulus-container"">
                    <img src=""images/semantic_sequence/visiting_cities_semantic/visiting_cities_semantic_9.png"" class=""exp-image"">
                    <div class=""question-area"">
                        <p style=""font-size: 20px; font-weight: bold; margin: 0;"">Is there a person in this image?</p>
                    </div>
                </div>","0","main_experiment_trial","9","visiting_cities_semantic","semantic_sequence","","","","",""
"","","","","","html-keyboard-response","140","647617","0.0-140.0","608E093810D64693B3787F3B97A171B3","019cf819-932c-7a81-b6c8-91042b737020","019cf80d-4266-7117-8a51-54e13c84aca4","","null","
                <div class=""stimulus-container"">
                    <img src=""images/semantic_sequence/visiting_cities_semantic/visiting_cities_semantic_ten.png"" class=""exp-image"">
                    <div class=""question-area""></div> 
                </div>","null","","","","","","","","",""
"","","","","","html-button-response","141","648732","0.0-141.0","608E093810D64693B3787F3B97A171B3","019cf819-932c-7a81-b6c8-91042b737020","019cf80d-4266-7117-8a51-54e13c84aca4","","1115","
                <div class=""stimulus-container"">
                    <img src=""images/semantic_sequence/visiting_cities_semantic/visiting_cities_semantic_ten.png"" class=""exp-image"">
                    <div class=""question-area"">
                        <p style=""font-size: 20px; font-weight: bold; margin: 0;"">Is there a person in this image?</p>
                    </div>
                </div>","0","main_experiment_trial","ten","visiting_cities_semantic","semantic_sequence","","","","",""
"","","","","","html-keyboard-response","142","649734","0.0-142.0","608E093810D64693B3787F3B97A171B3","019cf819-932c-7a81-b6c8-91042b737020","019cf80d-4266-7117-8a51-54e13c84aca4","","null","<div style=""background-color: white; width: 100vw; height: 100vh;""></div>","null","","","","","","","","",""
"","","","","","html-keyboard-response","143","654736","0.0-143.0","608E093810D64693B3787F3B97A171B3","019cf819-932c-7a81-b6c8-91042b737020","019cf80d-4266-7117-8a51-54e13c84aca4","","null","
                <div class=""stimulus-container"">
                    <img src=""images/semantic_sequence/using_technology_semantic/using_technology_semantic_1.png"" class=""exp-image"">
                    <div class=""question-area""></div> 
                </div>","null","","","","","","","","",""
"","","","","","html-button-response","144","655317","0.0-144.0","608E093810D64693B3787F3B97A171B3","019cf819-932c-7a81-b6c8-91042b737020","019cf80d-4266-7117-8a51-54e13c84aca4","","580","
                <div class=""stimulus-container"">
                    <img src=""images/semantic_sequence/using_technology_semantic/using_technology_semantic_1.png"" class=""exp-image"">
                    <div class=""question-area"">
                        <p style=""font-size: 20px; font-weight: bold; margin: 0;"">Is there a person in this image?</p>
                    </div>
                </div>","0","main_experiment_trial","1","using_technology_semantic","semantic_sequence","","","","",""
"","","","","","html-keyboard-response","145","660319","0.0-145.0","608E093810D64693B3787F3B97A171B3","019cf819-932c-7a81-b6c8-91042b737020","019cf80d-4266-7117-8a51-54e13c84aca4","","null","
                <div class=""stimulus-container"">
                    <img src=""images/semantic_sequence/using_technology_semantic/using_technology_semantic_2.png"" class=""exp-image"">
                    <div class=""question-area""></div> 
                </div>","null","","","","","","","","",""
"","","","","","html-button-response","146","660918","0.0-146.0","608E093810D64693B3787F3B97A171B3","019cf819-932c-7a81-b6c8-91042b737020","019cf80d-4266-7117-8a51-54e13c84aca4","","598","
                <div class=""stimulus-container"">
                    <img src=""images/semantic_sequence/using_technology_semantic/using_technology_semantic_2.png"" class=""exp-image"">
                    <div class=""question-area"">
                        <p style=""font-size: 20px; font-weight: bold; margin: 0;"">Is there a person in this image?</p>
                    </div>
                </div>","0","main_experiment_trial","2","using_technology_semantic","semantic_sequence","","","","",""
"","","","","","html-keyboard-response","147","665920","0.0-147.0","608E093810D64693B3787F3B97A171B3","019cf819-932c-7a81-b6c8-91042b737020","019cf80d-4266-7117-8a51-54e13c84aca4","","null","
                <div class=""stimulus-container"">
                    <img src=""images/semantic_sequence/using_technology_semantic/using_technology_semantic_3.png"" class=""exp-image"">
                    <div class=""question-area""></div> 
                </div>","null","","","","","","","","",""
"","","","","","html-button-response","148","666935","0.0-148.0","608E093810D64693B3787F3B97A171B3","019cf819-932c-7a81-b6c8-91042b737020","019cf80d-4266-7117-8a51-54e13c84aca4","","1015","
                <div class=""stimulus-container"">
                    <img src=""images/semantic_sequence/using_technology_semantic/using_technology_semantic_3.png"" class=""exp-image"">
                    <div class=""question-area"">
                        <p style=""font-size: 20px; font-weight: bold; margin: 0;"">Is there a person in this image?</p>
                    </div>
                </div>","0","main_experiment_trial","3","using_technology_semantic","semantic_sequence","","","","",""
"","","","","","html-keyboard-response","149","671937","0.0-149.0","608E093810D64693B3787F3B97A171B3","019cf819-932c-7a81-b6c8-91042b737020","019cf80d-4266-7117-8a51-54e13c84aca4","","null","
                <div class=""stimulus-container"">
                    <img src=""images/semantic_sequence/using_technology_semantic/using_technology_semantic_4.png"" class=""exp-image"">
                    <div class=""question-area""></div> 
                </div>","null","","","","","","","","",""
"","","","","","html-button-response","150","673287","0.0-150.0","608E093810D64693B3787F3B97A171B3","019cf819-932c-7a81-b6c8-91042b737020","019cf80d-4266-7117-8a51-54e13c84aca4","","1349","
                <div class=""stimulus-container"">
                    <img src=""images/semantic_sequence/using_technology_semantic/using_technology_semantic_4.png"" class=""exp-image"">
                    <div class=""question-area"">
                        <p style=""font-size: 20px; font-weight: bold; margin: 0;"">Is there a person in this image?</p>
                    </div>
                </div>","0","main_experiment_trial","4","using_technology_semantic","semantic_sequence","","","","",""
"","","","","","html-keyboard-response","151","678288","0.0-151.0","608E093810D64693B3787F3B97A171B3","019cf819-932c-7a81-b6c8-91042b737020","019cf80d-4266-7117-8a51-54e13c84aca4","","null","
                <div class=""stimulus-container"">
                    <img src=""images/semantic_sequence/using_technology_semantic/using_technology_semantic_5.png"" class=""exp-image"">
                    <div class=""question-area""></div> 
                </div>","null","","","","","","","","",""
"","","","","","html-button-response","152","679421","0.0-152.0","608E093810D64693B3787F3B97A171B3","019cf819-932c-7a81-b6c8-91042b737020","019cf80d-4266-7117-8a51-54e13c84aca4","","1133","
                <div class=""stimulus-container"">
                    <img src=""images/semantic_sequence/using_technology_semantic/using_technology_semantic_5.png"" class=""exp-image"">
                    <div class=""question-area"">
                        <p style=""font-size: 20px; font-weight: bold; margin: 0;"">Is there a person in this image?</p>
                    </div>
                </div>","0","main_experiment_trial","5","using_technology_semantic","semantic_sequence","","","","",""
"","","","","","html-keyboard-response","153","684423","0.0-153.0","608E093810D64693B3787F3B97A171B3","019cf819-932c-7a81-b6c8-91042b737020","019cf80d-4266-7117-8a51-54e13c84aca4","","null","
                <div class=""stimulus-container"">
                    <img src=""images/semantic_sequence/using_technology_semantic/using_technology_semantic_6.png"" class=""exp-image"">
                    <div class=""question-area""></div> 
                </div>","null","","","","","","","","",""
"","","","","","html-button-response","154","687323","0.0-154.0","608E093810D64693B3787F3B97A171B3","019cf819-932c-7a81-b6c8-91042b737020","019cf80d-4266-7117-8a51-54e13c84aca4","","2900","
                <div class=""stimulus-container"">
                    <img src=""images/semantic_sequence/using_technology_semantic/using_technology_semantic_6.png"" class=""exp-image"">
                    <div class=""question-area"">
                        <p style=""font-size: 20px; font-weight: bold; margin: 0;"">Is there a person in this image?</p>
                    </div>
                </div>","0","main_experiment_trial","6","using_technology_semantic","semantic_sequence","","","","",""
"","","","","","html-keyboard-response","155","692324","0.0-155.0","608E093810D64693B3787F3B97A171B3","019cf819-932c-7a81-b6c8-91042b737020","019cf80d-4266-7117-8a51-54e13c84aca4","","null","
                <div class=""stimulus-container"">
                    <img src=""images/semantic_sequence/using_technology_semantic/using_technology_semantic_7.png"" class=""exp-image"">
                    <div class=""question-area""></div> 
                </div>","null","","","","","","","","",""
"","","","","","html-button-response","156","693241","0.0-156.0","608E093810D64693B3787F3B97A171B3","019cf819-932c-7a81-b6c8-91042b737020","019cf80d-4266-7117-8a51-54e13c84aca4","","916","
                <div class=""stimulus-container"">
                    <img src=""images/semantic_sequence/using_technology_semantic/using_technology_semantic_7.png"" class=""exp-image"">
                    <div class=""question-area"">
                        <p style=""font-size: 20px; font-weight: bold; margin: 0;"">Is there a person in this image?</p>
                    </div>
                </div>","0","main_experiment_trial","7","using_technology_semantic","semantic_sequence","","","","",""
"","","","","","html-keyboard-response","157","698244","0.0-157.0","608E093810D64693B3787F3B97A171B3","019cf819-932c-7a81-b6c8-91042b737020","019cf80d-4266-7117-8a51-54e13c84aca4","","null","
                <div class=""stimulus-container"">
                    <img src=""images/semantic_sequence/using_technology_semantic/using_technology_semantic_8.png"" class=""exp-image"">
                    <div class=""question-area""></div> 
                </div>","null","","","","","","","","",""
"","","","","","html-button-response","158","699076","0.0-158.0","608E093810D64693B3787F3B97A171B3","019cf819-932c-7a81-b6c8-91042b737020","019cf80d-4266-7117-8a51-54e13c84aca4","","831","
                <div class=""stimulus-container"">
                    <img src=""images/semantic_sequence/using_technology_semantic/using_technology_semantic_8.png"" class=""exp-image"">
                    <div class=""question-area"">
                        <p style=""font-size: 20px; font-weight: bold; margin: 0;"">Is there a person in this image?</p>
                    </div>
                </div>","0","main_experiment_trial","8","using_technology_semantic","semantic_sequence","","","","",""
"","","","","","html-keyboard-response","159","704078","0.0-159.0","608E093810D64693B3787F3B97A171B3","019cf819-932c-7a81-b6c8-91042b737020","019cf80d-4266-7117-8a51-54e13c84aca4","","null","
                <div class=""stimulus-container"">
                    <img src=""images/semantic_sequence/using_technology_semantic/using_technology_semantic_9.png"" class=""exp-image"">
                    <div class=""question-area""></div> 
                </div>","null","","","","","","","","",""
"","","","","","html-button-response","160","705744","0.0-160.0","608E093810D64693B3787F3B97A171B3","019cf819-932c-7a81-b6c8-91042b737020","019cf80d-4266-7117-8a51-54e13c84aca4","","1665","
                <div class=""stimulus-container"">
                    <img src=""images/semantic_sequence/using_technology_semantic/using_technology_semantic_9.png"" class=""exp-image"">
                    <div class=""question-area"">
                        <p style=""font-size: 20px; font-weight: bold; margin: 0;"">Is there a person in this image?</p>
                    </div>
                </div>","0","main_experiment_trial","9","using_technology_semantic","semantic_sequence","","","","",""
"","","","","","html-keyboard-response","161","710746","0.0-161.0","608E093810D64693B3787F3B97A171B3","019cf819-932c-7a81-b6c8-91042b737020","019cf80d-4266-7117-8a51-54e13c84aca4","","null","
                <div class=""stimulus-container"">
                    <img src=""images/semantic_sequence/using_technology_semantic/using_technology_semantic_ten.png"" class=""exp-image"">
                    <div class=""question-area""></div> 
                </div>","null","","","","","","","","",""
"","","","","","html-button-response","162","712461","0.0-162.0","608E093810D64693B3787F3B97A171B3","019cf819-932c-7a81-b6c8-91042b737020","019cf80d-4266-7117-8a51-54e13c84aca4","","1715","
                <div class=""stimulus-container"">
                    <img src=""images/semantic_sequence/using_technology_semantic/using_technology_semantic_ten.png"" class=""exp-image"">
                    <div class=""question-area"">
                        <p style=""font-size: 20px; font-weight: bold; margin: 0;"">Is there a person in this image?</p>
                    </div>
                </div>","0","main_experiment_trial","ten","using_technology_semantic","semantic_sequence","","","","",""
"","","","","","html-keyboard-response","163","713464","0.0-163.0","608E093810D64693B3787F3B97A171B3","019cf819-932c-7a81-b6c8-91042b737020","019cf80d-4266-7117-8a51-54e13c84aca4","","null","<div style=""background-color: white; width: 100vw; height: 100vh;""></div>","null","","","","","","","","",""
"","","","","","html-keyboard-response","164","718466","0.0-164.0","608E093810D64693B3787F3B97A171B3","019cf819-932c-7a81-b6c8-91042b737020","019cf80d-4266-7117-8a51-54e13c84aca4","","null","
                <div class=""stimulus-container"">
                    <img src=""images/schematic_sequence/dinner_party_scheme/dinner_party_scheme_1.png"" class=""exp-image"">
                    <div class=""question-area""></div> 
                </div>","null","","","","","","","","",""
"","","","","","html-button-response","165","720031","0.0-165.0","608E093810D64693B3787F3B97A171B3","019cf819-932c-7a81-b6c8-91042b737020","019cf80d-4266-7117-8a51-54e13c84aca4","","1564","
                <div class=""stimulus-container"">
                    <img src=""images/schematic_sequence/dinner_party_scheme/dinner_party_scheme_1.png"" class=""exp-image"">
                    <div class=""question-area"">
                        <p style=""font-size: 20px; font-weight: bold; margin: 0;"">Is there a person in this image?</p>
                    </div>
                </div>","0","main_experiment_trial","1","dinner_party_scheme","schematic_sequence","","","","",""
"","","","","","html-keyboard-response","166","725033","0.0-166.0","608E093810D64693B3787F3B97A171B3","019cf819-932c-7a81-b6c8-91042b737020","019cf80d-4266-7117-8a51-54e13c84aca4","","null","
                <div class=""stimulus-container"">
                    <img src=""images/schematic_sequence/dinner_party_scheme/dinner_party_scheme_2.png"" class=""exp-image"">
                    <div class=""question-area""></div> 
                </div>","null","","","","","","","","",""
"","","","","","html-button-response","167","726382","0.0-167.0","608E093810D64693B3787F3B97A171B3","019cf819-932c-7a81-b6c8-91042b737020","019cf80d-4266-7117-8a51-54e13c84aca4","","1349","
                <div class=""stimulus-container"">
                    <img src=""images/schematic_sequence/dinner_party_scheme/dinner_party_scheme_2.png"" class=""exp-image"">
                    <div class=""question-area"">
                        <p style=""font-size: 20px; font-weight: bold; margin: 0;"">Is there a person in this image?</p>
                    </div>
                </div>","0","main_experiment_trial","2","dinner_party_scheme","schematic_sequence","","","","",""
"","","","","","html-keyboard-response","168","731384","0.0-168.0","608E093810D64693B3787F3B97A171B3","019cf819-932c-7a81-b6c8-91042b737020","019cf80d-4266-7117-8a51-54e13c84aca4","","null","
                <div class=""stimulus-container"">
                    <img src=""images/schematic_sequence/dinner_party_scheme/dinner_party_scheme_3.png"" class=""exp-image"">
                    <div class=""question-area""></div> 
                </div>","null","","","","","","","","",""
"","","","","","html-button-response","169","732984","0.0-169.0","608E093810D64693B3787F3B97A171B3","019cf819-932c-7a81-b6c8-91042b737020","019cf80d-4266-7117-8a51-54e13c84aca4","","1598","
                <div class=""stimulus-container"">
                    <img src=""images/schematic_sequence/dinner_party_scheme/dinner_party_scheme_3.png"" class=""exp-image"">
                    <div class=""question-area"">
                        <p style=""font-size: 20px; font-weight: bold; margin: 0;"">Is there a person in this image?</p>
                    </div>
                </div>","0","main_experiment_trial","3","dinner_party_scheme","schematic_sequence","","","","",""
"","","","","","html-keyboard-response","170","737986","0.0-170.0","608E093810D64693B3787F3B97A171B3","019cf819-932c-7a81-b6c8-91042b737020","019cf80d-4266-7117-8a51-54e13c84aca4","","null","
                <div class=""stimulus-container"">
                    <img src=""images/schematic_sequence/dinner_party_scheme/dinner_party_scheme_4.png"" class=""exp-image"">
                    <div class=""question-area""></div> 
                </div>","null","","","","","","","","",""
"","","","","","html-button-response","171","739202","0.0-171.0","608E093810D64693B3787F3B97A171B3","019cf819-932c-7a81-b6c8-91042b737020","019cf80d-4266-7117-8a51-54e13c84aca4","","1215","
                <div class=""stimulus-container"">
                    <img src=""images/schematic_sequence/dinner_party_scheme/dinner_party_scheme_4.png"" class=""exp-image"">
                    <div class=""question-area"">
                        <p style=""font-size: 20px; font-weight: bold; margin: 0;"">Is there a person in this image?</p>
                    </div>
                </div>","0","main_experiment_trial","4","dinner_party_scheme","schematic_sequence","","","","",""
"","","","","","html-keyboard-response","172","744203","0.0-172.0","608E093810D64693B3787F3B97A171B3","019cf819-932c-7a81-b6c8-91042b737020","019cf80d-4266-7117-8a51-54e13c84aca4","","null","
                <div class=""stimulus-container"">
                    <img src=""images/schematic_sequence/dinner_party_scheme/dinner_party_scheme_5.png"" class=""exp-image"">
                    <div class=""question-area""></div> 
                </div>","null","","","","","","","","",""
"","","","","","html-button-response","173","745637","0.0-173.0","608E093810D64693B3787F3B97A171B3","019cf819-932c-7a81-b6c8-91042b737020","019cf80d-4266-7117-8a51-54e13c84aca4","","1432","
                <div class=""stimulus-container"">
                    <img src=""images/schematic_sequence/dinner_party_scheme/dinner_party_scheme_5.png"" class=""exp-image"">
                    <div class=""question-area"">
                        <p style=""font-size: 20px; font-weight: bold; margin: 0;"">Is there a person in this image?</p>
                    </div>
                </div>","0","main_experiment_trial","5","dinner_party_scheme","schematic_sequence","","","","",""
"","","","","","html-keyboard-response","174","750639","0.0-174.0","608E093810D64693B3787F3B97A171B3","019cf819-932c-7a81-b6c8-91042b737020","019cf80d-4266-7117-8a51-54e13c84aca4","","null","
                <div class=""stimulus-container"">
                    <img src=""images/schematic_sequence/dinner_party_scheme/dinner_party_scheme_6.png"" class=""exp-image"">
                    <div class=""question-area""></div> 
                </div>","null","","","","","","","","",""
"","","","","","html-button-response","175","751304","0.0-175.0","608E093810D64693B3787F3B97A171B3","019cf819-932c-7a81-b6c8-91042b737020","019cf80d-4266-7117-8a51-54e13c84aca4","","665","
                <div class=""stimulus-container"">
                    <img src=""images/schematic_sequence/dinner_party_scheme/dinner_party_scheme_6.png"" class=""exp-image"">
                    <div class=""question-area"">
                        <p style=""font-size: 20px; font-weight: bold; margin: 0;"">Is there a person in this image?</p>
                    </div>
                </div>","0","main_experiment_trial","6","dinner_party_scheme","schematic_sequence","","","","",""
"","","","","","html-keyboard-response","176","756305","0.0-176.0","608E093810D64693B3787F3B97A171B3","019cf819-932c-7a81-b6c8-91042b737020","019cf80d-4266-7117-8a51-54e13c84aca4","","null","
                <div class=""stimulus-container"">
                    <img src=""images/schematic_sequence/dinner_party_scheme/dinner_party_scheme_7.png"" class=""exp-image"">
                    <div class=""question-area""></div> 
                </div>","null","","","","","","","","",""
"","","","","","html-button-response","177","756889","0.0-177.0","608E093810D64693B3787F3B97A171B3","019cf819-932c-7a81-b6c8-91042b737020","019cf80d-4266-7117-8a51-54e13c84aca4","","583","
                <div class=""stimulus-container"">
                    <img src=""images/schematic_sequence/dinner_party_scheme/dinner_party_scheme_7.png"" class=""exp-image"">
                    <div class=""question-area"">
                        <p style=""font-size: 20px; font-weight: bold; margin: 0;"">Is there a person in this image?</p>
                    </div>
                </div>","0","main_experiment_trial","7","dinner_party_scheme","schematic_sequence","","","","",""
"","","","","","html-keyboard-response","178","761889","0.0-178.0","608E093810D64693B3787F3B97A171B3","019cf819-932c-7a81-b6c8-91042b737020","019cf80d-4266-7117-8a51-54e13c84aca4","","null","
                <div class=""stimulus-container"">
                    <img src=""images/schematic_sequence/dinner_party_scheme/dinner_party_scheme_8.png"" class=""exp-image"">
                    <div class=""question-area""></div> 
                </div>","null","","","","","","","","",""
"","","","","","html-button-response","179","763189","0.0-179.0","608E093810D64693B3787F3B97A171B3","019cf819-932c-7a81-b6c8-91042b737020","019cf80d-4266-7117-8a51-54e13c84aca4","","1299","
                <div class=""stimulus-container"">
                    <img src=""images/schematic_sequence/dinner_party_scheme/dinner_party_scheme_8.png"" class=""exp-image"">
                    <div class=""question-area"">
