"success","timeout","failed_images","failed_audio","failed_video","trial_type","trial_index","time_elapsed","internal_node_id","subject_id","study_id","session_id","view_history","rt","stimulus","response","task","image_index","folder","sequence_type","presentation_order","valuable_image_index","reward_type","distance_from_x","target_X","chosen_image_index","is_x_plus_dist","correct_choice"
"true","false","[]","[]","[]","preload","0","2993","0.0-0.0","E57DD25D89CF498BB27B6162FD394EDB","019cfc47-7f28-75c5-aabf-159547f65f16","019cfc28-2143-7934-89cc-ce6402563331","","","","","","","","","","","","","","","",""
"","","","","","instructions","1","6331","0.0-1.0","E57DD25D89CF498BB27B6162FD394EDB","019cfc47-7f28-75c5-aabf-159547f65f16","019cfc28-2143-7934-89cc-ce6402563331","[{""page_index"":0,""viewing_time"":3337}]","3338","","","","","","","","","","","","","",""
"","","","","","instructions","2","126812","0.0-2.0","E57DD25D89CF498BB27B6162FD394EDB","019cfc47-7f28-75c5-aabf-159547f65f16","019cfc28-2143-7934-89cc-ce6402563331","[{""page_index"":0,""viewing_time"":120478}]","120478","","","","","","","","","","","","","",""
"true","","","","","fullscreen","3","129321","0.0-3.0","E57DD25D89CF498BB27B6162FD394EDB","019cfc47-7f28-75c5-aabf-159547f65f16","019cfc28-2143-7934-89cc-ce6402563331","","1506","","","","","","","","","","","","","",""
"","","","","","instructions","4","131631","0.0-4.0","E57DD25D89CF498BB27B6162FD394EDB","019cfc47-7f28-75c5-aabf-159547f65f16","019cfc28-2143-7934-89cc-ce6402563331","[{""page_index"":0,""viewing_time"":2309}]","2309","","","","","","","","","","","","","",""
"","","","","","instructions","5","135800","0.0-5.0","E57DD25D89CF498BB27B6162FD394EDB","019cfc47-7f28-75c5-aabf-159547f65f16","019cfc28-2143-7934-89cc-ce6402563331","[{""page_index"":0,""viewing_time"":4168}]","4168","","","","","","","","","","","","","",""
"","","","","","html-keyboard-response","6","139802","0.0-6.0","E57DD25D89CF498BB27B6162FD394EDB","019cfc47-7f28-75c5-aabf-159547f65f16","019cfc28-2143-7934-89cc-ce6402563331","","null","
                <div class=""stimulus-container"">
                    <img src=""images/instructions/movie_1.png"" class=""exp-image"">
                    <div class=""question-area""></div> 
                </div>","null","","","","","","","","","","","",""
"","","","","","html-button-response","7","142390","0.0-7.0","E57DD25D89CF498BB27B6162FD394EDB","019cfc47-7f28-75c5-aabf-159547f65f16","019cfc28-2143-7934-89cc-ce6402563331","","2587","
                <div class=""stimulus-container"">
                    <img src=""images/instructions/movie_1.png"" class=""exp-image"">
                    <div class=""question-area"">
                        <p style=""font-size: 20px; font-weight: bold; margin: 0;"">Was there a person in this image?</p>
                    </div>
                </div>","0","example_question","1","","","","","","","","","",""
"","","","","","html-keyboard-response","8","146396","0.0-8.0","E57DD25D89CF498BB27B6162FD394EDB","019cfc47-7f28-75c5-aabf-159547f65f16","019cfc28-2143-7934-89cc-ce6402563331","","null","
                <div class=""stimulus-container"">
                    <img src=""images/instructions/movie_2.png"" class=""exp-image"">
                    <div class=""question-area""></div> 
                </div>","null","","","","","","","","","","","",""
"","","","","","html-button-response","9","147824","0.0-9.0","E57DD25D89CF498BB27B6162FD394EDB","019cfc47-7f28-75c5-aabf-159547f65f16","019cfc28-2143-7934-89cc-ce6402563331","","1428","
                <div class=""stimulus-container"">
                    <img src=""images/instructions/movie_2.png"" class=""exp-image"">
                    <div class=""question-area"">
                        <p style=""font-size: 20px; font-weight: bold; margin: 0;"">Was there a person in this image?</p>
                    </div>
                </div>","1","example_question","2","","","","","","","","","",""
"","","","","","html-keyboard-response","10","151829","0.0-10.0","E57DD25D89CF498BB27B6162FD394EDB","019cfc47-7f28-75c5-aabf-159547f65f16","019cfc28-2143-7934-89cc-ce6402563331","","null","
                <div class=""stimulus-container"">
                    <img src=""images/instructions/movie_3.png"" class=""exp-image"">
                    <div class=""question-area""></div> 
                </div>","null","","","","","","","","","","","",""
"","","","","","html-button-response","11","154831","0.0-11.0","E57DD25D89CF498BB27B6162FD394EDB","019cfc47-7f28-75c5-aabf-159547f65f16","019cfc28-2143-7934-89cc-ce6402563331","","null","
                <div class=""stimulus-container"">
                    <img src=""images/instructions/movie_3.png"" class=""exp-image"">
                    <div class=""question-area"">
                        <p style=""font-size: 20px; font-weight: bold; margin: 0;"">Was there a person in this image?</p>
                    </div>
                </div>","null","example_question","3","","","","","","","","","",""
"","","","","","html-keyboard-response","12","158837","0.0-12.0","E57DD25D89CF498BB27B6162FD394EDB","019cfc47-7f28-75c5-aabf-159547f65f16","019cfc28-2143-7934-89cc-ce6402563331","","null","
                <div class=""stimulus-container"">
                    <img src=""images/instructions/movie_4.png"" class=""exp-image"">
                    <div class=""question-area""></div> 
                </div>","null","","","","","","","","","","","",""
"","","","","","html-button-response","13","160259","0.0-13.0","E57DD25D89CF498BB27B6162FD394EDB","019cfc47-7f28-75c5-aabf-159547f65f16","019cfc28-2143-7934-89cc-ce6402563331","","1422","
                <div class=""stimulus-container"">
                    <img src=""images/instructions/movie_4.png"" class=""exp-image"">
                    <div class=""question-area"">
                        <p style=""font-size: 20px; font-weight: bold; margin: 0;"">Was there a person in this image?</p>
                    </div>
                </div>","0","example_question","4","","","","","","","","","",""
"","","","","","instructions","14","161959","0.0-14.0","E57DD25D89CF498BB27B6162FD394EDB","019cfc47-7f28-75c5-aabf-159547f65f16","019cfc28-2143-7934-89cc-ce6402563331","[{""page_index"":0,""viewing_time"":1700}]","1700","","","","","","","","","","","","","",""
"","","","","","instructions","15","163729","0.0-15.0","E57DD25D89CF498BB27B6162FD394EDB","019cfc47-7f28-75c5-aabf-159547f65f16","019cfc28-2143-7934-89cc-ce6402563331","[{""page_index"":0,""viewing_time"":1769}]","1770","","","","","","","","","","","","","",""
"","","","","","html-keyboard-response","16","168744","0.0-16.0","E57DD25D89CF498BB27B6162FD394EDB","019cfc47-7f28-75c5-aabf-159547f65f16","019cfc28-2143-7934-89cc-ce6402563331","","null","<div style=""background-color: white; width: 100vw; height: 100vh;""></div>","null","","","","","","","","","","","",""
"","","","","","html-keyboard-response","17","173760","0.0-17.0","E57DD25D89CF498BB27B6162FD394EDB","019cfc47-7f28-75c5-aabf-159547f65f16","019cfc28-2143-7934-89cc-ce6402563331","","null","
                <div class=""stimulus-container"">
                    <img src=""images/schematic_sequence/dinner_party_scheme/dinner_party_scheme_1.png"" class=""exp-image"">
                    <div class=""question-area""></div> 
                </div>","null","","","","","","","","","","","",""
"","","","","","html-button-response","18","175599","0.0-18.0","E57DD25D89CF498BB27B6162FD394EDB","019cfc47-7f28-75c5-aabf-159547f65f16","019cfc28-2143-7934-89cc-ce6402563331","","1838","
                <div class=""stimulus-container"">
                    <img src=""images/schematic_sequence/dinner_party_scheme/dinner_party_scheme_1.png"" class=""exp-image"">
                    <div class=""question-area"">
                        <p style=""font-size: 20px; font-weight: bold; margin: 0;"">Is there a person in this image?</p>
                    </div>
                </div>","0","main_experiment_trial","1","dinner_party_scheme","schematic_sequence","chronological","","","","","","",""
"","","","","","html-keyboard-response","19","180600","0.0-19.0","E57DD25D89CF498BB27B6162FD394EDB","019cfc47-7f28-75c5-aabf-159547f65f16","019cfc28-2143-7934-89cc-ce6402563331","","null","
                <div class=""stimulus-container"">
                    <img src=""images/schematic_sequence/dinner_party_scheme/dinner_party_scheme_2.png"" class=""exp-image"">
                    <div class=""question-area""></div> 
                </div>","null","","","","","","","","","","","",""
"","","","","","html-button-response","20","181889","0.0-20.0","E57DD25D89CF498BB27B6162FD394EDB","019cfc47-7f28-75c5-aabf-159547f65f16","019cfc28-2143-7934-89cc-ce6402563331","","1288","
                <div class=""stimulus-container"">
                    <img src=""images/schematic_sequence/dinner_party_scheme/dinner_party_scheme_2.png"" class=""exp-image"">
                    <div class=""question-area"">
                        <p style=""font-size: 20px; font-weight: bold; margin: 0;"">Is there a person in this image?</p>
                    </div>
                </div>","0","main_experiment_trial","2","dinner_party_scheme","schematic_sequence","chronological","","","","","","",""
"","","","","","html-keyboard-response","21","186907","0.0-21.0","E57DD25D89CF498BB27B6162FD394EDB","019cfc47-7f28-75c5-aabf-159547f65f16","019cfc28-2143-7934-89cc-ce6402563331","","null","
                <div class=""stimulus-container"">
                    <img src=""images/schematic_sequence/dinner_party_scheme/dinner_party_scheme_3.png"" class=""exp-image"">
                    <div class=""question-area""></div> 
                </div>","null","","","","","","","","","","","",""
"","","","","","html-button-response","22","188840","0.0-22.0","E57DD25D89CF498BB27B6162FD394EDB","019cfc47-7f28-75c5-aabf-159547f65f16","019cfc28-2143-7934-89cc-ce6402563331","","1932","
                <div class=""stimulus-container"">
                    <img src=""images/schematic_sequence/dinner_party_scheme/dinner_party_scheme_3.png"" class=""exp-image"">
                    <div class=""question-area"">
                        <p style=""font-size: 20px; font-weight: bold; margin: 0;"">Is there a person in this image?</p>
                    </div>
                </div>","0","main_experiment_trial","3","dinner_party_scheme","schematic_sequence","chronological","","","","","","",""
"","","","","","html-keyboard-response","23","193841","0.0-23.0","E57DD25D89CF498BB27B6162FD394EDB","019cfc47-7f28-75c5-aabf-159547f65f16","019cfc28-2143-7934-89cc-ce6402563331","","null","
                <div class=""stimulus-container"">
                    <img src=""images/schematic_sequence/dinner_party_scheme/dinner_party_scheme_4.png"" class=""exp-image"">
                    <div class=""question-area""></div> 
                </div>","null","","","","","","","","","","","",""
"","","","","","html-button-response","24","195371","0.0-24.0","E57DD25D89CF498BB27B6162FD394EDB","019cfc47-7f28-75c5-aabf-159547f65f16","019cfc28-2143-7934-89cc-ce6402563331","","1530","
                <div class=""stimulus-container"">
                    <img src=""images/schematic_sequence/dinner_party_scheme/dinner_party_scheme_4.png"" class=""exp-image"">
                    <div class=""question-area"">
                        <p style=""font-size: 20px; font-weight: bold; margin: 0;"">Is there a person in this image?</p>
                    </div>
                </div>","0","main_experiment_trial","4","dinner_party_scheme","schematic_sequence","chronological","","","","","","",""
"","","","","","html-keyboard-response","25","200386","0.0-25.0","E57DD25D89CF498BB27B6162FD394EDB","019cfc47-7f28-75c5-aabf-159547f65f16","019cfc28-2143-7934-89cc-ce6402563331","","null","
                <div class=""stimulus-container"">
                    <img src=""images/schematic_sequence/dinner_party_scheme/dinner_party_scheme_5.png"" class=""exp-image"">
                    <div class=""question-area""></div> 
                </div>","null","","","","","","","","","","","",""
"","","","","","html-button-response","26","202150","0.0-26.0","E57DD25D89CF498BB27B6162FD394EDB","019cfc47-7f28-75c5-aabf-159547f65f16","019cfc28-2143-7934-89cc-ce6402563331","","1763","
                <div class=""stimulus-container"">
                    <img src=""images/schematic_sequence/dinner_party_scheme/dinner_party_scheme_5.png"" class=""exp-image"">
                    <div class=""question-area"">
                        <p style=""font-size: 20px; font-weight: bold; margin: 0;"">Is there a person in this image?</p>
                    </div>
                </div>","0","main_experiment_trial","5","dinner_party_scheme","schematic_sequence","chronological","","","","","","",""
"","","","","","html-keyboard-response","27","207151","0.0-27.0","E57DD25D89CF498BB27B6162FD394EDB","019cfc47-7f28-75c5-aabf-159547f65f16","019cfc28-2143-7934-89cc-ce6402563331","","null","
                <div class=""stimulus-container"">
                    <img src=""images/schematic_sequence/dinner_party_scheme/dinner_party_scheme_6.png"" class=""exp-image"">
                    <div class=""question-area""></div> 
                </div>","null","","","","","","","","","","","",""
"","","","","","html-button-response","28","208399","0.0-28.0","E57DD25D89CF498BB27B6162FD394EDB","019cfc47-7f28-75c5-aabf-159547f65f16","019cfc28-2143-7934-89cc-ce6402563331","","1248","
                <div class=""stimulus-container"">
                    <img src=""images/schematic_sequence/dinner_party_scheme/dinner_party_scheme_6.png"" class=""exp-image"">
                    <div class=""question-area"">
                        <p style=""font-size: 20px; font-weight: bold; margin: 0;"">Is there a person in this image?</p>
                    </div>
                </div>","0","main_experiment_trial","6","dinner_party_scheme","schematic_sequence","chronological","","","","","","",""
"","","","","","html-keyboard-response","29","213413","0.0-29.0","E57DD25D89CF498BB27B6162FD394EDB","019cfc47-7f28-75c5-aabf-159547f65f16","019cfc28-2143-7934-89cc-ce6402563331","","null","
                <div class=""stimulus-container"">
                    <img src=""images/schematic_sequence/dinner_party_scheme/dinner_party_scheme_7.png"" class=""exp-image"">
                    <div class=""question-area""></div> 
                </div>","null","","","","","","","","","","","",""
"","","","","","html-button-response","30","214580","0.0-30.0","E57DD25D89CF498BB27B6162FD394EDB","019cfc47-7f28-75c5-aabf-159547f65f16","019cfc28-2143-7934-89cc-ce6402563331","","1166","
                <div class=""stimulus-container"">
                    <img src=""images/schematic_sequence/dinner_party_scheme/dinner_party_scheme_7.png"" class=""exp-image"">
                    <div class=""question-area"">
                        <p style=""font-size: 20px; font-weight: bold; margin: 0;"">Is there a person in this image?</p>
                    </div>
                </div>","0","main_experiment_trial","7","dinner_party_scheme","schematic_sequence","chronological","","","","","","",""
"","","","","","html-keyboard-response","31","219595","0.0-31.0","E57DD25D89CF498BB27B6162FD394EDB","019cfc47-7f28-75c5-aabf-159547f65f16","019cfc28-2143-7934-89cc-ce6402563331","","null","
                <div class=""stimulus-container"">
                    <img src=""images/schematic_sequence/dinner_party_scheme/dinner_party_scheme_8.png"" class=""exp-image"">
                    <div class=""question-area""></div> 
                </div>","null","","","","","","","","","","","",""
"","","","","","html-button-response","32","221319","0.0-32.0","E57DD25D89CF498BB27B6162FD394EDB","019cfc47-7f28-75c5-aabf-159547f65f16","019cfc28-2143-7934-89cc-ce6402563331","","1724","
                <div class=""stimulus-container"">
                    <img src=""images/schematic_sequence/dinner_party_scheme/dinner_party_scheme_8.png"" class=""exp-image"">
                    <div class=""question-area"">
                        <p style=""font-size: 20px; font-weight: bold; margin: 0;"">Is there a person in this image?</p>
                    </div>
                </div>","0","main_experiment_trial","8","dinner_party_scheme","schematic_sequence","chronological","","","","","","",""
"","","","","","html-keyboard-response","33","226331","0.0-33.0","E57DD25D89CF498BB27B6162FD394EDB","019cfc47-7f28-75c5-aabf-159547f65f16","019cfc28-2143-7934-89cc-ce6402563331","","null","
                <div class=""stimulus-container"">
                    <img src=""images/schematic_sequence/dinner_party_scheme/dinner_party_scheme_9.png"" class=""exp-image"">
                    <div class=""question-area""></div> 
                </div>","null","","","","","","","","","","","",""
"","","","","","html-button-response","34","227859","0.0-34.0","E57DD25D89CF498BB27B6162FD394EDB","019cfc47-7f28-75c5-aabf-159547f65f16","019cfc28-2143-7934-89cc-ce6402563331","","1528","
                <div class=""stimulus-container"">
                    <img src=""images/schematic_sequence/dinner_party_scheme/dinner_party_scheme_9.png"" class=""exp-image"">
                    <div class=""question-area"">
                        <p style=""font-size: 20px; font-weight: bold; margin: 0;"">Is there a person in this image?</p>
                    </div>
                </div>","0","main_experiment_trial","9","dinner_party_scheme","schematic_sequence","chronological","","","","","","",""
"","","","","","html-keyboard-response","35","232872","0.0-35.0","E57DD25D89CF498BB27B6162FD394EDB","019cfc47-7f28-75c5-aabf-159547f65f16","019cfc28-2143-7934-89cc-ce6402563331","","null","
                <div class=""stimulus-container"">
                    <img src=""images/schematic_sequence/dinner_party_scheme/dinner_party_scheme_ten.png"" class=""exp-image"">
                    <div class=""question-area""></div> 
                </div>","null","","","","","","","","","","","",""
"","","","","","html-button-response","36","234533","0.0-36.0","E57DD25D89CF498BB27B6162FD394EDB","019cfc47-7f28-75c5-aabf-159547f65f16","019cfc28-2143-7934-89cc-ce6402563331","","1661","
                <div class=""stimulus-container"">
                    <img src=""images/schematic_sequence/dinner_party_scheme/dinner_party_scheme_ten.png"" class=""exp-image"">
                    <div class=""question-area"">
                        <p style=""font-size: 20px; font-weight: bold; margin: 0;"">Is there a person in this image?</p>
                    </div>
                </div>","0","main_experiment_trial","ten","dinner_party_scheme","schematic_sequence","chronological","","","","","","",""
"","","","","","html-keyboard-response","37","239534","0.0-37.0","E57DD25D89CF498BB27B6162FD394EDB","019cfc47-7f28-75c5-aabf-159547f65f16","019cfc28-2143-7934-89cc-ce6402563331","","null","<div style=""background-color: white; width: 100vw; height: 100vh;""></div>","null","","","","","","","","","","","",""
"","","","","","html-keyboard-response","38","244542","0.0-38.0","E57DD25D89CF498BB27B6162FD394EDB","019cfc47-7f28-75c5-aabf-159547f65f16","019cfc28-2143-7934-89cc-ce6402563331","","null","
                <div class=""stimulus-container"">
                    <img src=""images/schematic_sequence/hotel_scheme/hotel_scheme_1.png"" class=""exp-image"">
                    <div class=""question-area""></div> 
                </div>","null","","","","","","","","","","","",""
"","","","","","html-button-response","39","246820","0.0-39.0","E57DD25D89CF498BB27B6162FD394EDB","019cfc47-7f28-75c5-aabf-159547f65f16","019cfc28-2143-7934-89cc-ce6402563331","","2277","
                <div class=""stimulus-container"">
                    <img src=""images/schematic_sequence/hotel_scheme/hotel_scheme_1.png"" class=""exp-image"">
                    <div class=""question-area"">
                        <p style=""font-size: 20px; font-weight: bold; margin: 0;"">Is there a person in this image?</p>
                    </div>
                </div>","1","main_experiment_trial","1","hotel_scheme","schematic_sequence","chronological","","","","","","",""
"","","","","","html-keyboard-response","40","251821","0.0-40.0","E57DD25D89CF498BB27B6162FD394EDB","019cfc47-7f28-75c5-aabf-159547f65f16","019cfc28-2143-7934-89cc-ce6402563331","","null","
                <div class=""stimulus-container"">
                    <img src=""images/schematic_sequence/hotel_scheme/hotel_scheme_2.png"" class=""exp-image"">
                    <div class=""question-area""></div> 
                </div>","null","","","","","","","","","","","",""
"","","","","","html-button-response","41","253070","0.0-41.0","E57DD25D89CF498BB27B6162FD394EDB","019cfc47-7f28-75c5-aabf-159547f65f16","019cfc28-2143-7934-89cc-ce6402563331","","1248","
                <div class=""stimulus-container"">
                    <img src=""images/schematic_sequence/hotel_scheme/hotel_scheme_2.png"" class=""exp-image"">
                    <div class=""question-area"">
                        <p style=""font-size: 20px; font-weight: bold; margin: 0;"">Is there a person in this image?</p>
                    </div>
                </div>","0","main_experiment_trial","2","hotel_scheme","schematic_sequence","chronological","","","","","","",""
"","","","","","html-keyboard-response","42","258076","0.0-42.0","E57DD25D89CF498BB27B6162FD394EDB","019cfc47-7f28-75c5-aabf-159547f65f16","019cfc28-2143-7934-89cc-ce6402563331","","null","
                <div class=""stimulus-container"">
                    <img src=""images/schematic_sequence/hotel_scheme/hotel_scheme_3.png"" class=""exp-image"">
                    <div class=""question-area""></div> 
                </div>","null","","","","","","","","","","","",""
"","","","","","html-button-response","43","259583","0.0-43.0","E57DD25D89CF498BB27B6162FD394EDB","019cfc47-7f28-75c5-aabf-159547f65f16","019cfc28-2143-7934-89cc-ce6402563331","","1506","
                <div class=""stimulus-container"">
                    <img src=""images/schematic_sequence/hotel_scheme/hotel_scheme_3.png"" class=""exp-image"">
                    <div class=""question-area"">
                        <p style=""font-size: 20px; font-weight: bold; margin: 0;"">Is there a person in this image?</p>
                    </div>
                </div>","0","main_experiment_trial","3","hotel_scheme","schematic_sequence","chronological","","","","","","",""
"","","","","","html-keyboard-response","44","264591","0.0-44.0","E57DD25D89CF498BB27B6162FD394EDB","019cfc47-7f28-75c5-aabf-159547f65f16","019cfc28-2143-7934-89cc-ce6402563331","","null","
                <div class=""stimulus-container"">
                    <img src=""images/schematic_sequence/hotel_scheme/hotel_scheme_4.png"" class=""exp-image"">
                    <div class=""question-area""></div> 
                </div>","null","","","","","","","","","","","",""
"","","","","","html-button-response","45","267340","0.0-45.0","E57DD25D89CF498BB27B6162FD394EDB","019cfc47-7f28-75c5-aabf-159547f65f16","019cfc28-2143-7934-89cc-ce6402563331","","2748","
                <div class=""stimulus-container"">
                    <img src=""images/schematic_sequence/hotel_scheme/hotel_scheme_4.png"" class=""exp-image"">
                    <div class=""question-area"">
                        <p style=""font-size: 20px; font-weight: bold; margin: 0;"">Is there a person in this image?</p>
                    </div>
                </div>","1","main_experiment_trial","4","hotel_scheme","schematic_sequence","chronological","","","","","","",""
"","","","","","html-keyboard-response","46","272347","0.0-46.0","E57DD25D89CF498BB27B6162FD394EDB","019cfc47-7f28-75c5-aabf-159547f65f16","019cfc28-2143-7934-89cc-ce6402563331","","null","
                <div class=""stimulus-container"">
                    <img src=""images/schematic_sequence/hotel_scheme/hotel_scheme_5.png"" class=""exp-image"">
                    <div class=""question-area""></div> 
                </div>","null","","","","","","","","","","","",""
"","","","","","html-button-response","47","273800","0.0-47.0","E57DD25D89CF498BB27B6162FD394EDB","019cfc47-7f28-75c5-aabf-159547f65f16","019cfc28-2143-7934-89cc-ce6402563331","","1453","
                <div class=""stimulus-container"">
                    <img src=""images/schematic_sequence/hotel_scheme/hotel_scheme_5.png"" class=""exp-image"">
                    <div class=""question-area"">
                        <p style=""font-size: 20px; font-weight: bold; margin: 0;"">Is there a person in this image?</p>
                    </div>
                </div>","0","main_experiment_trial","5","hotel_scheme","schematic_sequence","chronological","","","","","","",""
"","","","","","html-keyboard-response","48","278811","0.0-48.0","E57DD25D89CF498BB27B6162FD394EDB","019cfc47-7f28-75c5-aabf-159547f65f16","019cfc28-2143-7934-89cc-ce6402563331","","null","
                <div class=""stimulus-container"">
                    <img src=""images/schematic_sequence/hotel_scheme/hotel_scheme_6.png"" class=""exp-image"">
                    <div class=""question-area""></div> 
                </div>","null","","","","","","","","","","","",""
"","","","","","html-button-response","49","280159","0.0-49.0","E57DD25D89CF498BB27B6162FD394EDB","019cfc47-7f28-75c5-aabf-159547f65f16","019cfc28-2143-7934-89cc-ce6402563331","","1347","
                <div class=""stimulus-container"">
                    <img src=""images/schematic_sequence/hotel_scheme/hotel_scheme_6.png"" class=""exp-image"">
                    <div class=""question-area"">
                        <p style=""font-size: 20px; font-weight: bold; margin: 0;"">Is there a person in this image?</p>
                    </div>
                </div>","0","main_experiment_trial","6","hotel_scheme","schematic_sequence","chronological","","","","","","",""
"","","","","","html-keyboard-response","50","285159","0.0-50.0","E57DD25D89CF498BB27B6162FD394EDB","019cfc47-7f28-75c5-aabf-159547f65f16","019cfc28-2143-7934-89cc-ce6402563331","","null","
                <div class=""stimulus-container"">
                    <img src=""images/schematic_sequence/hotel_scheme/hotel_scheme_7.png"" class=""exp-image"">
                    <div class=""question-area""></div> 
                </div>","null","","","","","","","","","","","",""
"","","","","","html-button-response","51","286519","0.0-51.0","E57DD25D89CF498BB27B6162FD394EDB","019cfc47-7f28-75c5-aabf-159547f65f16","019cfc28-2143-7934-89cc-ce6402563331","","1359","
                <div class=""stimulus-container"">
                    <img src=""images/schematic_sequence/hotel_scheme/hotel_scheme_7.png"" class=""exp-image"">
                    <div class=""question-area"">
                        <p style=""font-size: 20px; font-weight: bold; margin: 0;"">Is there a person in this image?</p>
                    </div>
                </div>","0","main_experiment_trial","7","hotel_scheme","schematic_sequence","chronological","","","","","","",""
"","","","","","html-keyboard-response","52","291533","0.0-52.0","E57DD25D89CF498BB27B6162FD394EDB","019cfc47-7f28-75c5-aabf-159547f65f16","019cfc28-2143-7934-89cc-ce6402563331","","null","
                <div class=""stimulus-container"">
                    <img src=""images/schematic_sequence/hotel_scheme/hotel_scheme_8.png"" class=""exp-image"">
                    <div class=""question-area""></div> 
                </div>","null","","","","","","","","","","","",""
"","","","","","html-button-response","53","293379","0.0-53.0","E57DD25D89CF498BB27B6162FD394EDB","019cfc47-7f28-75c5-aabf-159547f65f16","019cfc28-2143-7934-89cc-ce6402563331","","1845","
                <div class=""stimulus-container"">
                    <img src=""images/schematic_sequence/hotel_scheme/hotel_scheme_8.png"" class=""exp-image"">
                    <div class=""question-area"">
                        <p style=""font-size: 20px; font-weight: bold; margin: 0;"">Is there a person in this image?</p>
                    </div>
                </div>","0","main_experiment_trial","8","hotel_scheme","schematic_sequence","chronological","","","","","","",""
"","","","","","html-keyboard-response","54","298380","0.0-54.0","E57DD25D89CF498BB27B6162FD394EDB","019cfc47-7f28-75c5-aabf-159547f65f16","019cfc28-2143-7934-89cc-ce6402563331","","null","
                <div class=""stimulus-container"">
                    <img src=""images/schematic_sequence/hotel_scheme/hotel_scheme_9.png"" class=""exp-image"">
                    <div class=""question-area""></div> 
                </div>","null","","","","","","","","","","","",""
"","","","","","html-button-response","55","300269","0.0-55.0","E57DD25D89CF498BB27B6162FD394EDB","019cfc47-7f28-75c5-aabf-159547f65f16","019cfc28-2143-7934-89cc-ce6402563331","","1888","
                <div class=""stimulus-container"">
                    <img src=""images/schematic_sequence/hotel_scheme/hotel_scheme_9.png"" class=""exp-image"">
                    <div class=""question-area"">
                        <p style=""font-size: 20px; font-weight: bold; margin: 0;"">Is there a person in this image?</p>
                    </div>
                </div>","0","main_experiment_trial","9","hotel_scheme","schematic_sequence","chronological","","","","","","",""
"","","","","","html-keyboard-response","56","305270","0.0-56.0","E57DD25D89CF498BB27B6162FD394EDB","019cfc47-7f28-75c5-aabf-159547f65f16","019cfc28-2143-7934-89cc-ce6402563331","","null","
                <div class=""stimulus-container"">
                    <img src=""images/schematic_sequence/hotel_scheme/hotel_scheme_ten.png"" class=""exp-image"">
                    <div class=""question-area""></div> 
                </div>","null","","","","","","","","","","","",""
"","","","","","html-button-response","57","307031","0.0-57.0","E57DD25D89CF498BB27B6162FD394EDB","019cfc47-7f28-75c5-aabf-159547f65f16","019cfc28-2143-7934-89cc-ce6402563331","","1761","
                <div class=""stimulus-container"">
                    <img src=""images/schematic_sequence/hotel_scheme/hotel_scheme_ten.png"" class=""exp-image"">
                    <div class=""question-area"">
                        <p style=""font-size: 20px; font-weight: bold; margin: 0;"">Is there a person in this image?</p>
                    </div>
                </div>","0","main_experiment_trial","ten","hotel_scheme","schematic_sequence","chronological","","","","","","",""
"","","","","","html-keyboard-response","58","312033","0.0-58.0","E57DD25D89CF498BB27B6162FD394EDB","019cfc47-7f28-75c5-aabf-159547f65f16","019cfc28-2143-7934-89cc-ce6402563331","","null","<div style=""background-color: white; width: 100vw; height: 100vh;""></div>","null","","","","","","","","","","","",""
"","","","","","html-keyboard-response","59","317048","0.0-59.0","E57DD25D89CF498BB27B6162FD394EDB","019cfc47-7f28-75c5-aabf-159547f65f16","019cfc28-2143-7934-89cc-ce6402563331","","null","
                <div class=""stimulus-container"">
                    <img src=""images/semantic_sequence/creative_activities_semantic/creative_activities_semantic_1.png"" class=""exp-image"">
                    <div class=""question-area""></div> 
                </div>","null","","","","","","","","","","","",""
"","","","","","html-button-response","60","320058","0.0-60.0","E57DD25D89CF498BB27B6162FD394EDB","019cfc47-7f28-75c5-aabf-159547f65f16","019cfc28-2143-7934-89cc-ce6402563331","","null","
                <div class=""stimulus-container"">
                    <img src=""images/semantic_sequence/creative_activities_semantic/creative_activities_semantic_1.png"" class=""exp-image"">
                    <div class=""question-area"">
                        <p style=""font-size: 20px; font-weight: bold; margin: 0;"">Is there a person in this image?</p>
                    </div>
                </div>","null","main_experiment_trial","1","creative_activities_semantic","semantic_sequence","chronological","","","","","","",""
"","","","","","html-keyboard-response","61","325068","0.0-61.0","E57DD25D89CF498BB27B6162FD394EDB","019cfc47-7f28-75c5-aabf-159547f65f16","019cfc28-2143-7934-89cc-ce6402563331","","null","
                <div class=""stimulus-container"">
                    <img src=""images/semantic_sequence/creative_activities_semantic/creative_activities_semantic_2.png"" class=""exp-image"">
                    <div class=""question-area""></div> 
                </div>","null","","","","","","","","","","","",""
"","","","","","html-button-response","62","326889","0.0-62.0","E57DD25D89CF498BB27B6162FD394EDB","019cfc47-7f28-75c5-aabf-159547f65f16","019cfc28-2143-7934-89cc-ce6402563331","","1821","
                <div class=""stimulus-container"">
                    <img src=""images/semantic_sequence/creative_activities_semantic/creative_activities_semantic_2.png"" class=""exp-image"">
                    <div class=""question-area"">
                        <p style=""font-size: 20px; font-weight: bold; margin: 0;"">Is there a person in this image?</p>
                    </div>
                </div>","0","main_experiment_trial","2","creative_activities_semantic","semantic_sequence","chronological","","","","","","",""
"","","","","","html-keyboard-response","63","331890","0.0-63.0","E57DD25D89CF498BB27B6162FD394EDB","019cfc47-7f28-75c5-aabf-159547f65f16","019cfc28-2143-7934-89cc-ce6402563331","","null","
                <div class=""stimulus-container"">
                    <img src=""images/semantic_sequence/creative_activities_semantic/creative_activities_semantic_3.png"" class=""exp-image"">
                    <div class=""question-area""></div> 
                </div>","null","","","","","","","","","","","",""
"","","","","","html-button-response","64","333552","0.0-64.0","E57DD25D89CF498BB27B6162FD394EDB","019cfc47-7f28-75c5-aabf-159547f65f16","019cfc28-2143-7934-89cc-ce6402563331","","1662","
                <div class=""stimulus-container"">
                    <img src=""images/semantic_sequence/creative_activities_semantic/creative_activities_semantic_3.png"" class=""exp-image"">
                    <div class=""question-area"">
                        <p style=""font-size: 20px; font-weight: bold; margin: 0;"">Is there a person in this image?</p>
                    </div>
                </div>","0","main_experiment_trial","3","creative_activities_semantic","semantic_sequence","chronological","","","","","","",""
"","","","","","html-keyboard-response","65","338554","0.0-65.0","E57DD25D89CF498BB27B6162FD394EDB","019cfc47-7f28-75c5-aabf-159547f65f16","019cfc28-2143-7934-89cc-ce6402563331","","null","
                <div class=""stimulus-container"">
                    <img src=""images/semantic_sequence/creative_activities_semantic/creative_activities_semantic_4.png"" class=""exp-image"">
                    <div class=""question-area""></div> 
                </div>","null","","","","","","","","","","","",""
"","","","","","html-button-response","66","341568","0.0-66.0","E57DD25D89CF498BB27B6162FD394EDB","019cfc47-7f28-75c5-aabf-159547f65f16","019cfc28-2143-7934-89cc-ce6402563331","","null","
                <div class=""stimulus-container"">
                    <img src=""images/semantic_sequence/creative_activities_semantic/creative_activities_semantic_4.png"" class=""exp-image"">
                    <div class=""question-area"">
                        <p style=""font-size: 20px; font-weight: bold; margin: 0;"">Is there a person in this image?</p>
                    </div>
                </div>","null","main_experiment_trial","4","creative_activities_semantic","semantic_sequence","chronological","","","","","","",""
"","","","","","html-keyboard-response","67","346568","0.0-67.0","E57DD25D89CF498BB27B6162FD394EDB","019cfc47-7f28-75c5-aabf-159547f65f16","019cfc28-2143-7934-89cc-ce6402563331","","null","
                <div class=""stimulus-container"">
                    <img src=""images/semantic_sequence/creative_activities_semantic/creative_activities_semantic_5.png"" class=""exp-image"">
                    <div class=""question-area""></div> 
                </div>","null","","","","","","","","","","","",""
"","","","","","html-button-response","68","347857","0.0-68.0","E57DD25D89CF498BB27B6162FD394EDB","019cfc47-7f28-75c5-aabf-159547f65f16","019cfc28-2143-7934-89cc-ce6402563331","","1288","
                <div class=""stimulus-container"">
                    <img src=""images/semantic_sequence/creative_activities_semantic/creative_activities_semantic_5.png"" class=""exp-image"">
                    <div class=""question-area"">
                        <p style=""font-size: 20px; font-weight: bold; margin: 0;"">Is there a person in this image?</p>
                    </div>
                </div>","0","main_experiment_trial","5","creative_activities_semantic","semantic_sequence","chronological","","","","","","",""
"","","","","","html-keyboard-response","69","352870","0.0-69.0","E57DD25D89CF498BB27B6162FD394EDB","019cfc47-7f28-75c5-aabf-159547f65f16","019cfc28-2143-7934-89cc-ce6402563331","","null","
                <div class=""stimulus-container"">
                    <img src=""images/semantic_sequence/creative_activities_semantic/creative_activities_semantic_6.png"" class=""exp-image"">
                    <div class=""question-area""></div> 
                </div>","null","","","","","","","","","","","",""
"","","","","","html-button-response","70","354843","0.0-70.0","E57DD25D89CF498BB27B6162FD394EDB","019cfc47-7f28-75c5-aabf-159547f65f16","019cfc28-2143-7934-89cc-ce6402563331","","1973","
                <div class=""stimulus-container"">
                    <img src=""images/semantic_sequence/creative_activities_semantic/creative_activities_semantic_6.png"" class=""exp-image"">
                    <div class=""question-area"">
                        <p style=""font-size: 20px; font-weight: bold; margin: 0;"">Is there a person in this image?</p>
                    </div>
                </div>","0","main_experiment_trial","6","creative_activities_semantic","semantic_sequence","chronological","","","","","","",""
"","","","","","html-keyboard-response","71","359855","0.0-71.0","E57DD25D89CF498BB27B6162FD394EDB","019cfc47-7f28-75c5-aabf-159547f65f16","019cfc28-2143-7934-89cc-ce6402563331","","null","
                <div class=""stimulus-container"">
                    <img src=""images/semantic_sequence/creative_activities_semantic/creative_activities_semantic_7.png"" class=""exp-image"">
                    <div class=""question-area""></div> 
                </div>","null","","","","","","","","","","","",""
"","","","","","html-button-response","72","361518","0.0-72.0","E57DD25D89CF498BB27B6162FD394EDB","019cfc47-7f28-75c5-aabf-159547f65f16","019cfc28-2143-7934-89cc-ce6402563331","","1662","
                <div class=""stimulus-container"">
                    <img src=""images/semantic_sequence/creative_activities_semantic/creative_activities_semantic_7.png"" class=""exp-image"">
                    <div class=""question-area"">
                        <p style=""font-size: 20px; font-weight: bold; margin: 0;"">Is there a person in this image?</p>
                    </div>
                </div>","0","main_experiment_trial","7","creative_activities_semantic","semantic_sequence","chronological","","","","","","",""
"","","","","","html-keyboard-response","73","366533","0.0-73.0","E57DD25D89CF498BB27B6162FD394EDB","019cfc47-7f28-75c5-aabf-159547f65f16","019cfc28-2143-7934-89cc-ce6402563331","","null","
                <div class=""stimulus-container"">
                    <img src=""images/semantic_sequence/creative_activities_semantic/creative_activities_semantic_8.png"" class=""exp-image"">
                    <div class=""question-area""></div> 
                </div>","null","","","","","","","","","","","",""
"","","","","","html-button-response","74","369536","0.0-74.0","E57DD25D89CF498BB27B6162FD394EDB","019cfc47-7f28-75c5-aabf-159547f65f16","019cfc28-2143-7934-89cc-ce6402563331","","null","
                <div class=""stimulus-container"">
                    <img src=""images/semantic_sequence/creative_activities_semantic/creative_activities_semantic_8.png"" class=""exp-image"">
                    <div class=""question-area"">
                        <p style=""font-size: 20px; font-weight: bold; margin: 0;"">Is there a person in this image?</p>
                    </div>
                </div>","null","main_experiment_trial","8","creative_activities_semantic","semantic_sequence","chronological","","","","","","",""
"","","","","","html-keyboard-response","75","374538","0.0-75.0","E57DD25D89CF498BB27B6162FD394EDB","019cfc47-7f28-75c5-aabf-159547f65f16","019cfc28-2143-7934-89cc-ce6402563331","","null","
                <div class=""stimulus-container"">
                    <img src=""images/semantic_sequence/creative_activities_semantic/creative_activities_semantic_9.png"" class=""exp-image"">
                    <div class=""question-area""></div> 
                </div>","null","","","","","","","","","","","",""
"","","","","","html-button-response","76","376159","0.0-76.0","E57DD25D89CF498BB27B6162FD394EDB","019cfc47-7f28-75c5-aabf-159547f65f16","019cfc28-2143-7934-89cc-ce6402563331","","1620","
                <div class=""stimulus-container"">
                    <img src=""images/semantic_sequence/creative_activities_semantic/creative_activities_semantic_9.png"" class=""exp-image"">
                    <div class=""question-area"">
                        <p style=""font-size: 20px; font-weight: bold; margin: 0;"">Is there a person in this image?</p>
                    </div>
                </div>","1","main_experiment_trial","9","creative_activities_semantic","semantic_sequence","chronological","","","","","","",""
"","","","","","html-keyboard-response","77","381170","0.0-77.0","E57DD25D89CF498BB27B6162FD394EDB","019cfc47-7f28-75c5-aabf-159547f65f16","019cfc28-2143-7934-89cc-ce6402563331","","null","
                <div class=""stimulus-container"">
                    <img src=""images/semantic_sequence/creative_activities_semantic/creative_activities_semantic_ten.png"" class=""exp-image"">
                    <div class=""question-area""></div> 
                </div>","null","","","","","","","","","","","",""
"","","","","","html-button-response","78","382776","0.0-78.0","E57DD25D89CF498BB27B6162FD394EDB","019cfc47-7f28-75c5-aabf-159547f65f16","019cfc28-2143-7934-89cc-ce6402563331","","1606","
                <div class=""stimulus-container"">
                    <img src=""images/semantic_sequence/creative_activities_semantic/creative_activities_semantic_ten.png"" class=""exp-image"">
                    <div class=""question-area"">
                        <p style=""font-size: 20px; font-weight: bold; margin: 0;"">Is there a person in this image?</p>
                    </div>
                </div>","0","main_experiment_trial","ten","creative_activities_semantic","semantic_sequence","chronological","","","","","","",""
"","","","","","html-keyboard-response","79","387778","0.0-79.0","E57DD25D89CF498BB27B6162FD394EDB","019cfc47-7f28-75c5-aabf-159547f65f16","019cfc28-2143-7934-89cc-ce6402563331","","null","<div style=""background-color: white; width: 100vw; height: 100vh;""></div>","null","","","","","","","","","","","",""
"","","","","","html-keyboard-response","80","392779","0.0-80.0","E57DD25D89CF498BB27B6162FD394EDB","019cfc47-7f28-75c5-aabf-159547f65f16","019cfc28-2143-7934-89cc-ce6402563331","","null","
                <div class=""stimulus-container"">
                    <img src=""images/schematic_sequence/flight_scheme/flight_scheme_1.png"" class=""exp-image"">
                    <div class=""question-area""></div> 
                </div>","null","","","","","","","","","","","",""
"","","","","","html-button-response","81","394756","0.0-81.0","E57DD25D89CF498BB27B6162FD394EDB","019cfc47-7f28-75c5-aabf-159547f65f16","019cfc28-2143-7934-89cc-ce6402563331","","1976","
                <div class=""stimulus-container"">
                    <img src=""images/schematic_sequence/flight_scheme/flight_scheme_1.png"" class=""exp-image"">
                    <div class=""question-area"">
                        <p style=""font-size: 20px; font-weight: bold; margin: 0;"">Is there a person in this image?</p>
                    </div>
                </div>","1","main_experiment_trial","1","flight_scheme","schematic_sequence","chronological","","","","","","",""
"","","","","","html-keyboard-response","82","399757","0.0-82.0","E57DD25D89CF498BB27B6162FD394EDB","019cfc47-7f28-75c5-aabf-159547f65f16","019cfc28-2143-7934-89cc-ce6402563331","","null","
                <div class=""stimulus-container"">
                    <img src=""images/schematic_sequence/flight_scheme/flight_scheme_2.png"" class=""exp-image"">
                    <div class=""question-area""></div> 
                </div>","null","","","","","","","","","","","",""
"","","","","","html-button-response","83","401906","0.0-83.0","E57DD25D89CF498BB27B6162FD394EDB","019cfc47-7f28-75c5-aabf-159547f65f16","019cfc28-2143-7934-89cc-ce6402563331","","2148","
                <div class=""stimulus-container"">
                    <img src=""images/schematic_sequence/flight_scheme/flight_scheme_2.png"" class=""exp-image"">
                    <div class=""question-area"">
                        <p style=""font-size: 20px; font-weight: bold; margin: 0;"">Is there a person in this image?</p>
                    </div>
                </div>","1","main_experiment_trial","2","flight_scheme","schematic_sequence","chronological","","","","","","",""
"","","","","","html-keyboard-response","84","406908","0.0-84.0","E57DD25D89CF498BB27B6162FD394EDB","019cfc47-7f28-75c5-aabf-159547f65f16","019cfc28-2143-7934-89cc-ce6402563331","","null","
                <div class=""stimulus-container"">
                    <img src=""images/schematic_sequence/flight_scheme/flight_scheme_3.png"" class=""exp-image"">
                    <div class=""question-area""></div> 
                </div>","null","","","","","","","","","","","",""
"","","","","","html-button-response","85","408577","0.0-85.0","E57DD25D89CF498BB27B6162FD394EDB","019cfc47-7f28-75c5-aabf-159547f65f16","019cfc28-2143-7934-89cc-ce6402563331","","1669","
                <div class=""stimulus-container"">
                    <img src=""images/schematic_sequence/flight_scheme/flight_scheme_3.png"" class=""exp-image"">
                    <div class=""question-area"">
                        <p style=""font-size: 20px; font-weight: bold; margin: 0;"">Is there a person in this image?</p>
                    </div>
                </div>","0","main_experiment_trial","3","flight_scheme","schematic_sequence","chronological","","","","","","",""
"","","","","","html-keyboard-response","86","413586","0.0-86.0","E57DD25D89CF498BB27B6162FD394EDB","019cfc47-7f28-75c5-aabf-159547f65f16","019cfc28-2143-7934-89cc-ce6402563331","","null","
                <div class=""stimulus-container"">
                    <img src=""images/schematic_sequence/flight_scheme/flight_scheme_4.png"" class=""exp-image"">
                    <div class=""question-area""></div> 
                </div>","null","","","","","","","","","","","",""
"","","","","","html-button-response","87","415125","0.0-87.0","E57DD25D89CF498BB27B6162FD394EDB","019cfc47-7f28-75c5-aabf-159547f65f16","019cfc28-2143-7934-89cc-ce6402563331","","1538","
                <div class=""stimulus-container"">
                    <img src=""images/schematic_sequence/flight_scheme/flight_scheme_4.png"" class=""exp-image"">
                    <div class=""question-area"">
                        <p style=""font-size: 20px; font-weight: bold; margin: 0;"">Is there a person in this image?</p>
                    </div>
                </div>","0","main_experiment_trial","4","flight_scheme","schematic_sequence","chronological","","","","","","",""
"","","","","","html-keyboard-response","88","420137","0.0-88.0","E57DD25D89CF498BB27B6162FD394EDB","019cfc47-7f28-75c5-aabf-159547f65f16","019cfc28-2143-7934-89cc-ce6402563331","","null","
                <div class=""stimulus-container"">
                    <img src=""images/schematic_sequence/flight_scheme/flight_scheme_5.png"" class=""exp-image"">
                    <div class=""question-area""></div> 
                </div>","null","","","","","","","","","","","",""
"","","","","","html-button-response","89","423152","0.0-89.0","E57DD25D89CF498BB27B6162FD394EDB","019cfc47-7f28-75c5-aabf-159547f65f16","019cfc28-2143-7934-89cc-ce6402563331","","null","
                <div class=""stimulus-container"">
                    <img src=""images/schematic_sequence/flight_scheme/flight_scheme_5.png"" class=""exp-image"">
                    <div class=""question-area"">
                        <p style=""font-size: 20px; font-weight: bold; margin: 0;"">Is there a person in this image?</p>
                    </div>
                </div>","null","main_experiment_trial","5","flight_scheme","schematic_sequence","chronological","","","","","","",""
"","","","","","html-keyboard-response","90","428159","0.0-90.0","E57DD25D89CF498BB27B6162FD394EDB","019cfc47-7f28-75c5-aabf-159547f65f16","019cfc28-2143-7934-89cc-ce6402563331","","null","
                <div class=""stimulus-container"">
                    <img src=""images/schematic_sequence/flight_scheme/flight_scheme_6.png"" class=""exp-image"">
                    <div class=""question-area""></div> 
                </div>","null","","","","","","","","","","","",""
"","","","","","html-button-response","91","429946","0.0-91.0","E57DD25D89CF498BB27B6162FD394EDB","019cfc47-7f28-75c5-aabf-159547f65f16","019cfc28-2143-7934-89cc-ce6402563331","","1787","
                <div class=""stimulus-container"">
                    <img src=""images/schematic_sequence/flight_scheme/flight_scheme_6.png"" class=""exp-image"">
                    <div class=""question-area"">
                        <p style=""font-size: 20px; font-weight: bold; margin: 0;"">Is there a person in this image?</p>
                    </div>
                </div>","1","main_experiment_trial","6","flight_scheme","schematic_sequence","chronological","","","","","","",""
"","","","","","html-keyboard-response","92","434948","0.0-92.0","E57DD25D89CF498BB27B6162FD394EDB","019cfc47-7f28-75c5-aabf-159547f65f16","019cfc28-2143-7934-89cc-ce6402563331","","null","
                <div class=""stimulus-container"">
                    <img src=""images/schematic_sequence/flight_scheme/flight_scheme_7.png"" class=""exp-image"">
                    <div class=""question-area""></div> 
                </div>","null","","","","","","","","","","","",""
"","","","","","html-button-response","93","436257","0.0-93.0","E57DD25D89CF498BB27B6162FD394EDB","019cfc47-7f28-75c5-aabf-159547f65f16","019cfc28-2143-7934-89cc-ce6402563331","","1308","
                <div class=""stimulus-container"">
                    <img src=""images/schematic_sequence/flight_scheme/flight_scheme_7.png"" class=""exp-image"">
                    <div class=""question-area"">
                        <p style=""font-size: 20px; font-weight: bold; margin: 0;"">Is there a person in this image?</p>
                    </div>
                </div>","1","main_experiment_trial","7","flight_scheme","schematic_sequence","chronological","","","","","","",""
"","","","","","html-keyboard-response","94","441257","0.0-94.0","E57DD25D89CF498BB27B6162FD394EDB","019cfc47-7f28-75c5-aabf-159547f65f16","019cfc28-2143-7934-89cc-ce6402563331","","null","
                <div class=""stimulus-container"">
                    <img src=""images/schematic_sequence/flight_scheme/flight_scheme_8.png"" class=""exp-image"">
                    <div class=""question-area""></div> 
                </div>","null","","","","","","","","","","","",""
"","","","","","html-button-response","95","442626","0.0-95.0","E57DD25D89CF498BB27B6162FD394EDB","019cfc47-7f28-75c5-aabf-159547f65f16","019cfc28-2143-7934-89cc-ce6402563331","","1368","
                <div class=""stimulus-container"">
                    <img src=""images/schematic_sequence/flight_scheme/flight_scheme_8.png"" class=""exp-image"">
                    <div class=""question-area"">
                        <p style=""font-size: 20px; font-weight: bold; margin: 0;"">Is there a person in this image?</p>
                    </div>
                </div>","1","main_experiment_trial","8","flight_scheme","schematic_sequence","chronological","","","","","","",""
"","","","","","html-keyboard-response","96","447641","0.0-96.0","E57DD25D89CF498BB27B6162FD394EDB","019cfc47-7f28-75c5-aabf-159547f65f16","019cfc28-2143-7934-89cc-ce6402563331","","null","
                <div class=""stimulus-container"">
                    <img src=""images/schematic_sequence/flight_scheme/flight_scheme_9.png"" class=""exp-image"">
                    <div class=""question-area""></div> 
                </div>","null","","","","","","","","","","","",""
"","","","","","html-button-response","97","449476","0.0-97.0","E57DD25D89CF498BB27B6162FD394EDB","019cfc47-7f28-75c5-aabf-159547f65f16","019cfc28-2143-7934-89cc-ce6402563331","","1834","
                <div class=""stimulus-container"">
                    <img src=""images/schematic_sequence/flight_scheme/flight_scheme_9.png"" class=""exp-image"">
                    <div class=""question-area"">
                        <p style=""font-size: 20px; font-weight: bold; margin: 0;"">Is there a person in this image?</p>
                    </div>
                </div>","1","main_experiment_trial","9","flight_scheme","schematic_sequence","chronological","","","","","","",""
"","","","","","html-keyboard-response","98","454492","0.0-98.0","E57DD25D89CF498BB27B6162FD394EDB","019cfc47-7f28-75c5-aabf-159547f65f16","019cfc28-2143-7934-89cc-ce6402563331","","null","
                <div class=""stimulus-container"">
                    <img src=""images/schematic_sequence/flight_scheme/flight_scheme_ten.png"" class=""exp-image"">
                    <div class=""question-area""></div> 
                </div>","null","","","","","","","","","","","",""
"","","","","","html-button-response","99","456106","0.0-99.0","E57DD25D89CF498BB27B6162FD394EDB","019cfc47-7f28-75c5-aabf-159547f65f16","019cfc28-2143-7934-89cc-ce6402563331","","1613","
                <div class=""stimulus-container"">
                    <img src=""images/schematic_sequence/flight_scheme/flight_scheme_ten.png"" class=""exp-image"">
                    <div class=""question-area"">
                        <p style=""font-size: 20px; font-weight: bold; margin: 0;"">Is there a person in this image?</p>
                    </div>
                </div>","0","main_experiment_trial","ten","flight_scheme","schematic_sequence","chronological","","","","","","",""
"","","","","","html-keyboard-response","100","461113","0.0-100.0","E57DD25D89CF498BB27B6162FD394EDB","019cfc47-7f28-75c5-aabf-159547f65f16","019cfc28-2143-7934-89cc-ce6402563331","","null","<div style=""background-color: white; width: 100vw; height: 100vh;""></div>","null","","","","","","","","","","","",""
"","","","","","html-keyboard-response","101","466123","0.0-101.0","E57DD25D89CF498BB27B6162FD394EDB","019cfc47-7f28-75c5-aabf-159547f65f16","019cfc28-2143-7934-89cc-ce6402563331","","null","
                <div class=""stimulus-container"">
                    <img src=""images/semantic_sequence/kitchen_operations_semantic/kitchen_operations_semantic_1.png"" class=""exp-image"">
                    <div class=""question-area""></div> 
                </div>","null","","","","","","","","","","","",""
"","","","","","html-button-response","102","467906","0.0-102.0","E57DD25D89CF498BB27B6162FD394EDB","019cfc47-7f28-75c5-aabf-159547f65f16","019cfc28-2143-7934-89cc-ce6402563331","","1782","
                <div class=""stimulus-container"">
                    <img src=""images/semantic_sequence/kitchen_operations_semantic/kitchen_operations_semantic_1.png"" class=""exp-image"">
                    <div class=""question-area"">
                        <p style=""font-size: 20px; font-weight: bold; margin: 0;"">Is there a person in this image?</p>
                    </div>
                </div>","0","main_experiment_trial","1","kitchen_operations_semantic","semantic_sequence","chronological","","","","","","",""
"","","","","","html-keyboard-response","103","472920","0.0-103.0","E57DD25D89CF498BB27B6162FD394EDB","019cfc47-7f28-75c5-aabf-159547f65f16","019cfc28-2143-7934-89cc-ce6402563331","","null","
                <div class=""stimulus-container"">
                    <img src=""images/semantic_sequence/kitchen_operations_semantic/kitchen_operations_semantic_2.png"" class=""exp-image"">
                    <div class=""question-area""></div> 
                </div>","null","","","","","","","","","","","",""
"","","","","","html-button-response","104","474484","0.0-104.0","E57DD25D89CF498BB27B6162FD394EDB","019cfc47-7f28-75c5-aabf-159547f65f16","019cfc28-2143-7934-89cc-ce6402563331","","1564","
                <div class=""stimulus-container"">
                    <img src=""images/semantic_sequence/kitchen_operations_semantic/kitchen_operations_semantic_2.png"" class=""exp-image"">
                    <div class=""question-area"">
                        <p style=""font-size: 20px; font-weight: bold; margin: 0;"">Is there a person in this image?</p>
                    </div>
                </div>","0","main_experiment_trial","2","kitchen_operations_semantic","semantic_sequence","chronological","","","","","","",""
"","","","","","html-keyboard-response","105","479499","0.0-105.0","E57DD25D89CF498BB27B6162FD394EDB","019cfc47-7f28-75c5-aabf-159547f65f16","019cfc28-2143-7934-89cc-ce6402563331","","null","
                <div class=""stimulus-container"">
                    <img src=""images/semantic_sequence/kitchen_operations_semantic/kitchen_operations_semantic_3.png"" class=""exp-image"">
                    <div class=""question-area""></div> 
                </div>","null","","","","","","","","","","","",""
"","","","","","html-button-response","106","480905","0.0-106.0","E57DD25D89CF498BB27B6162FD394EDB","019cfc47-7f28-75c5-aabf-159547f65f16","019cfc28-2143-7934-89cc-ce6402563331","","1406","
                <div class=""stimulus-container"">
                    <img src=""images/semantic_sequence/kitchen_operations_semantic/kitchen_operations_semantic_3.png"" class=""exp-image"">
                    <div class=""question-area"">
                        <p style=""font-size: 20px; font-weight: bold; margin: 0;"">Is there a person in this image?</p>
                    </div>
                </div>","0","main_experiment_trial","3","kitchen_operations_semantic","semantic_sequence","chronological","","","","","","",""
"","","","","","html-keyboard-response","107","485918","0.0-107.0","E57DD25D89CF498BB27B6162FD394EDB","019cfc47-7f28-75c5-aabf-159547f65f16","019cfc28-2143-7934-89cc-ce6402563331","","null","
                <div class=""stimulus-container"">
                    <img src=""images/semantic_sequence/kitchen_operations_semantic/kitchen_operations_semantic_4.png"" class=""exp-image"">
                    <div class=""question-area""></div> 
                </div>","null","","","","","","","","","","","",""
"","","","","","html-button-response","108","488934","0.0-108.0","E57DD25D89CF498BB27B6162FD394EDB","019cfc47-7f28-75c5-aabf-159547f65f16","019cfc28-2143-7934-89cc-ce6402563331","","null","
                <div class=""stimulus-container"">
                    <img src=""images/semantic_sequence/kitchen_operations_semantic/kitchen_operations_semantic_4.png"" class=""exp-image"">
                    <div class=""question-area"">
                        <p style=""font-size: 20px; font-weight: bold; margin: 0;"">Is there a person in this image?</p>
                    </div>
                </div>","null","main_experiment_trial","4","kitchen_operations_semantic","semantic_sequence","chronological","","","","","","",""
"","","","","","html-keyboard-response","109","493951","0.0-109.0","E57DD25D89CF498BB27B6162FD394EDB","019cfc47-7f28-75c5-aabf-159547f65f16","019cfc28-2143-7934-89cc-ce6402563331","","null","
                <div class=""stimulus-container"">
                    <img src=""images/semantic_sequence/kitchen_operations_semantic/kitchen_operations_semantic_5.png"" class=""exp-image"">
                    <div class=""question-area""></div> 
                </div>","null","","","","","","","","","","","",""
"","","","","","html-button-response","110","496046","0.0-110.0","E57DD25D89CF498BB27B6162FD394EDB","019cfc47-7f28-75c5-aabf-159547f65f16","019cfc28-2143-7934-89cc-ce6402563331","","2095","
                <div class=""stimulus-container"">
                    <img src=""images/semantic_sequence/kitchen_operations_semantic/kitchen_operations_semantic_5.png"" class=""exp-image"">
                    <div class=""question-area"">
                        <p style=""font-size: 20px; font-weight: bold; margin: 0;"">Is there a person in this image?</p>
                    </div>
                </div>","0","main_experiment_trial","5","kitchen_operations_semantic","semantic_sequence","chronological","","","","","","",""
"","","","","","html-keyboard-response","111","501053","0.0-111.0","E57DD25D89CF498BB27B6162FD394EDB","019cfc47-7f28-75c5-aabf-159547f65f16","019cfc28-2143-7934-89cc-ce6402563331","","null","
                <div class=""stimulus-container"">
                    <img src=""images/semantic_sequence/kitchen_operations_semantic/kitchen_operations_semantic_6.png"" class=""exp-image"">
                    <div class=""question-area""></div> 
                </div>","null","","","","","","","","","","","",""
"","","","","","html-button-response","112","503096","0.0-112.0","E57DD25D89CF498BB27B6162FD394EDB","019cfc47-7f28-75c5-aabf-159547f65f16","019cfc28-2143-7934-89cc-ce6402563331","","2042","
                <div class=""stimulus-container"">
                    <img src=""images/semantic_sequence/kitchen_operations_semantic/kitchen_operations_semantic_6.png"" class=""exp-image"">
                    <div class=""question-area"">
                        <p style=""font-size: 20px; font-weight: bold; margin: 0;"">Is there a person in this image?</p>
                    </div>
                </div>","0","main_experiment_trial","6","kitchen_operations_semantic","semantic_sequence","chronological","","","","","","",""
"","","","","","html-keyboard-response","113","508110","0.0-113.0","E57DD25D89CF498BB27B6162FD394EDB","019cfc47-7f28-75c5-aabf-159547f65f16","019cfc28-2143-7934-89cc-ce6402563331","","null","
                <div class=""stimulus-container"">
                    <img src=""images/semantic_sequence/kitchen_operations_semantic/kitchen_operations_semantic_7.png"" class=""exp-image"">
                    <div class=""question-area""></div> 
                </div>","null","","","","","","","","","","","",""
"","","","","","html-button-response","114","511111","0.0-114.0","E57DD25D89CF498BB27B6162FD394EDB","019cfc47-7f28-75c5-aabf-159547f65f16","019cfc28-2143-7934-89cc-ce6402563331","","null","
                <div class=""stimulus-container"">
                    <img src=""images/semantic_sequence/kitchen_operations_semantic/kitchen_operations_semantic_7.png"" class=""exp-image"">
                    <div class=""question-area"">
                        <p style=""font-size: 20px; font-weight: bold; margin: 0;"">Is there a person in this image?</p>
                    </div>
                </div>","null","main_experiment_trial","7","kitchen_operations_semantic","semantic_sequence","chronological","","","","","","",""
"","","","","","html-keyboard-response","115","516121","0.0-115.0","E57DD25D89CF498BB27B6162FD394EDB","019cfc47-7f28-75c5-aabf-159547f65f16","019cfc28-2143-7934-89cc-ce6402563331","","null","
                <div class=""stimulus-container"">
                    <img src=""images/semantic_sequence/kitchen_operations_semantic/kitchen_operations_semantic_8.png"" class=""exp-image"">
                    <div class=""question-area""></div> 
                </div>","null","","","","","","","","","","","",""
"","","","","","html-button-response","116","519125","0.0-116.0","E57DD25D89CF498BB27B6162FD394EDB","019cfc47-7f28-75c5-aabf-159547f65f16","019cfc28-2143-7934-89cc-ce6402563331","","null","
                <div class=""stimulus-container"">
                    <img src=""images/semantic_sequence/kitchen_operations_semantic/kitchen_operations_semantic_8.png"" class=""exp-image"">
                    <div class=""question-area"">
                        <p style=""font-size: 20px; font-weight: bold; margin: 0;"">Is there a person in this image?</p>
                    </div>
                </div>","null","main_experiment_trial","8","kitchen_operations_semantic","semantic_sequence","chronological","","","","","","",""
"","","","","","html-keyboard-response","117","524126","0.0-117.0","E57DD25D89CF498BB27B6162FD394EDB","019cfc47-7f28-75c5-aabf-159547f65f16","019cfc28-2143-7934-89cc-ce6402563331","","null","
                <div class=""stimulus-container"">
                    <img src=""images/semantic_sequence/kitchen_operations_semantic/kitchen_operations_semantic_9.png"" class=""exp-image"">
                    <div class=""question-area""></div> 
                </div>","null","","","","","","","","","","","",""
"","","","","","html-button-response","118","525360","0.0-118.0","E57DD25D89CF498BB27B6162FD394EDB","019cfc47-7f28-75c5-aabf-159547f65f16","019cfc28-2143-7934-89cc-ce6402563331","","1234","
                <div class=""stimulus-container"">
                    <img src=""images/semantic_sequence/kitchen_operations_semantic/kitchen_operations_semantic_9.png"" class=""exp-image"">
                    <div class=""question-area"">
                        <p style=""font-size: 20px; font-weight: bold; margin: 0;"">Is there a person in this image?</p>
                    </div>
                </div>","0","main_experiment_trial","9","kitchen_operations_semantic","semantic_sequence","chronological","","","","","","",""
"","","","","","html-keyboard-response","119","530378","0.0-119.0","E57DD25D89CF498BB27B6162FD394EDB","019cfc47-7f28-75c5-aabf-159547f65f16","019cfc28-2143-7934-89cc-ce6402563331","","null","
                <div class=""stimulus-container"">
                    <img src=""images/semantic_sequence/kitchen_operations_semantic/kitchen_operations_semantic_ten.png"" class=""exp-image"">
                    <div class=""question-area""></div> 
                </div>","null","","","","","","","","","","","",""
"","","","","","html-button-response","120","532320","0.0-120.0","E57DD25D89CF498BB27B6162FD394EDB","019cfc47-7f28-75c5-aabf-159547f65f16","019cfc28-2143-7934-89cc-ce6402563331","","1941","
                <div class=""stimulus-container"">
                    <img src=""images/semantic_sequence/kitchen_operations_semantic/kitchen_operations_semantic_ten.png"" class=""exp-image"">
                    <div class=""question-area"">
                        <p style=""font-size: 20px; font-weight: bold; margin: 0;"">Is there a person in this image?</p>
                    </div>
                </div>","0","main_experiment_trial","ten","kitchen_operations_semantic","semantic_sequence","chronological","","","","","","",""
"","","","","","html-keyboard-response","121","537327","0.0-121.0","E57DD25D89CF498BB27B6162FD394EDB","019cfc47-7f28-75c5-aabf-159547f65f16","019cfc28-2143-7934-89cc-ce6402563331","","null","<div style=""background-color: white; width: 100vw; height: 100vh;""></div>","null","","","","","","","","","","","",""
"","","","","","html-keyboard-response","122","542337","0.0-122.0","E57DD25D89CF498BB27B6162FD394EDB","019cfc47-7f28-75c5-aabf-159547f65f16","019cfc28-2143-7934-89cc-ce6402563331","","null","
                <div class=""stimulus-container"">
                    <img src=""images/schematic_sequence/interview_scheme/interview_scheme_1.png"" class=""exp-image"">
                    <div class=""question-area""></div> 
                </div>","null","","","","","","","","","","","",""
"","","","","","html-button-response","123","545349","0.0-123.0","E57DD25D89CF498BB27B6162FD394EDB","019cfc47-7f28-75c5-aabf-159547f65f16","019cfc28-2143-7934-89cc-ce6402563331","","null","
                <div class=""stimulus-container"">
                    <img src=""images/schematic_sequence/interview_scheme/interview_scheme_1.png"" class=""exp-image"">
                    <div class=""question-area"">
                        <p style=""font-size: 20px; font-weight: bold; margin: 0;"">Is there a person in this image?</p>
                    </div>
                </div>","null","main_experiment_trial","1","interview_scheme","schematic_sequence","chronological","","","","","","",""
"","","","","","html-keyboard-response","124","550366","0.0-124.0","E57DD25D89CF498BB27B6162FD394EDB","019cfc47-7f28-75c5-aabf-159547f65f16","019cfc28-2143-7934-89cc-ce6402563331","","null","
                <div class=""stimulus-container"">
                    <img src=""images/schematic_sequence/interview_scheme/interview_scheme_2.png"" class=""exp-image"">
                    <div class=""question-area""></div> 
                </div>","null","","","","","","","","","","","",""
"","","","","","html-button-response","125","552215","0.0-125.0","E57DD25D89CF498BB27B6162FD394EDB","019cfc47-7f28-75c5-aabf-159547f65f16","019cfc28-2143-7934-89cc-ce6402563331","","1848","
                <div class=""stimulus-container"">
                    <img src=""images/schematic_sequence/interview_scheme/interview_scheme_2.png"" class=""exp-image"">
                    <div class=""question-area"">
                        <p style=""font-size: 20px; font-weight: bold; margin: 0;"">Is there a person in this image?</p>
                    </div>
                </div>","1","main_experiment_trial","2","interview_scheme","schematic_sequence","chronological","","","","","","",""
"","","","","","html-keyboard-response","126","557226","0.0-126.0","E57DD25D89CF498BB27B6162FD394EDB","019cfc47-7f28-75c5-aabf-159547f65f16","019cfc28-2143-7934-89cc-ce6402563331","","null","
                <div class=""stimulus-container"">
                    <img src=""images/schematic_sequence/interview_scheme/interview_scheme_3.png"" class=""exp-image"">
                    <div class=""question-area""></div> 
                </div>","null","","","","","","","","","","","",""
"","","","","","html-button-response","127","559240","0.0-127.0","E57DD25D89CF498BB27B6162FD394EDB","019cfc47-7f28-75c5-aabf-159547f65f16","019cfc28-2143-7934-89cc-ce6402563331","","2014","
                <div class=""stimulus-container"">
                    <img src=""images/schematic_sequence/interview_scheme/interview_scheme_3.png"" class=""exp-image"">
                    <div class=""question-area"">
                        <p style=""font-size: 20px; font-weight: bold; margin: 0;"">Is there a person in this image?</p>
                    </div>
                </div>","1","main_experiment_trial","3","interview_scheme","schematic_sequence","chronological","","","","","","",""
"","","","","","html-keyboard-response","128","564435","0.0-128.0","E57DD25D89CF498BB27B6162FD394EDB","019cfc47-7f28-75c5-aabf-159547f65f16","019cfc28-2143-7934-89cc-ce6402563331","","null","
                <div class=""stimulus-container"">
                    <img src=""images/schematic_sequence/interview_scheme/interview_scheme_4.png"" class=""exp-image"">
                    <div class=""question-area""></div> 
                </div>","null","","","","","","","","","","","",""
"","","","","","html-button-response","129","566217","0.0-129.0","E57DD25D89CF498BB27B6162FD394EDB","019cfc47-7f28-75c5-aabf-159547f65f16","019cfc28-2143-7934-89cc-ce6402563331","","1782","
                <div class=""stimulus-container"">
                    <img src=""images/schematic_sequence/interview_scheme/interview_scheme_4.png"" class=""exp-image"">
                    <div class=""question-area"">
                        <p style=""font-size: 20px; font-weight: bold; margin: 0;"">Is there a person in this image?</p>
                    </div>
                </div>","1","main_experiment_trial","4","interview_scheme","schematic_sequence","chronological","","","","","","",""
"","","","","","html-keyboard-response","130","571224","0.0-130.0","E57DD25D89CF498BB27B6162FD394EDB","019cfc47-7f28-75c5-aabf-159547f65f16","019cfc28-2143-7934-89cc-ce6402563331","","null","
                <div class=""stimulus-container"">
                    <img src=""images/schematic_sequence/interview_scheme/interview_scheme_5.png"" class=""exp-image"">
                    <div class=""question-area""></div> 
                </div>","null","","","","","","","","","","","",""
"","","","","","html-button-response","131","573474","0.0-131.0","E57DD25D89CF498BB27B6162FD394EDB","019cfc47-7f28-75c5-aabf-159547f65f16","019cfc28-2143-7934-89cc-ce6402563331","","2250","
                <div class=""stimulus-container"">
                    <img src=""images/schematic_sequence/interview_scheme/interview_scheme_5.png"" class=""exp-image"">
                    <div class=""question-area"">
                        <p style=""font-size: 20px; font-weight: bold; margin: 0;"">Is there a person in this image?</p>
                    </div>
                </div>","0","main_experiment_trial","5","interview_scheme","schematic_sequence","chronological","","","","","","",""
"","","","","","html-keyboard-response","132","578478","0.0-132.0","E57DD25D89CF498BB27B6162FD394EDB","019cfc47-7f28-75c5-aabf-159547f65f16","019cfc28-2143-7934-89cc-ce6402563331","","null","
                <div class=""stimulus-container"">
                    <img src=""images/schematic_sequence/interview_scheme/interview_scheme_6.png"" class=""exp-image"">
                    <div class=""question-area""></div> 
                </div>","null","","","","","","","","","","","",""
"","","","","","html-button-response","133","580214","0.0-133.0","E57DD25D89CF498BB27B6162FD394EDB","019cfc47-7f28-75c5-aabf-159547f65f16","019cfc28-2143-7934-89cc-ce6402563331","","1736","
                <div class=""stimulus-container"">
                    <img src=""images/schematic_sequence/interview_scheme/interview_scheme_6.png"" class=""exp-image"">
                    <div class=""question-area"">
                        <p style=""font-size: 20px; font-weight: bold; margin: 0;"">Is there a person in this image?</p>
                    </div>
                </div>","0","main_experiment_trial","6","interview_scheme","schematic_sequence","chronological","","","","","","",""
"","","","","","html-keyboard-response","134","585216","0.0-134.0","E57DD25D89CF498BB27B6162FD394EDB","019cfc47-7f28-75c5-aabf-159547f65f16","019cfc28-2143-7934-89cc-ce6402563331","","null","
                <div class=""stimulus-container"">
                    <img src=""images/schematic_sequence/interview_scheme/interview_scheme_7.png"" class=""exp-image"">
                    <div class=""question-area""></div> 
                </div>","null","","","","","","","","","","","",""
"","","","","","html-button-response","135","587177","0.0-135.0","E57DD25D89CF498BB27B6162FD394EDB","019cfc47-7f28-75c5-aabf-159547f65f16","019cfc28-2143-7934-89cc-ce6402563331","","1961","
                <div class=""stimulus-container"">
                    <img src=""images/schematic_sequence/interview_scheme/interview_scheme_7.png"" class=""exp-image"">
                    <div class=""question-area"">
                        <p style=""font-size: 20px; font-weight: bold; margin: 0;"">Is there a person in this image?</p>
                    </div>
                </div>","0","main_experiment_trial","7","interview_scheme","schematic_sequence","chronological","","","","","","",""
"","","","","","html-keyboard-response","136","592187","0.0-136.0","E57DD25D89CF498BB27B6162FD394EDB","019cfc47-7f28-75c5-aabf-159547f65f16","019cfc28-2143-7934-89cc-ce6402563331","","null","
                <div class=""stimulus-container"">
                    <img src=""images/schematic_sequence/interview_scheme/interview_scheme_8.png"" class=""exp-image"">
                    <div class=""question-area""></div> 
                </div>","null","","","","","","","","","","","",""
"","","","","","html-button-response","137","594185","0.0-137.0","E57DD25D89CF498BB27B6162FD394EDB","019cfc47-7f28-75c5-aabf-159547f65f16","019cfc28-2143-7934-89cc-ce6402563331","","1997","
                <div class=""stimulus-container"">
                    <img src=""images/schematic_sequence/interview_scheme/interview_scheme_8.png"" class=""exp-image"">
                    <div class=""question-area"">
                        <p style=""font-size: 20px; font-weight: bold; margin: 0;"">Is there a person in this image?</p>
                    </div>
                </div>","0","main_experiment_trial","8","interview_scheme","schematic_sequence","chronological","","","","","","",""
"","","","","","html-keyboard-response","138","599200","0.0-138.0","E57DD25D89CF498BB27B6162FD394EDB","019cfc47-7f28-75c5-aabf-159547f65f16","019cfc28-2143-7934-89cc-ce6402563331","","null","
                <div class=""stimulus-container"">
                    <img src=""images/schematic_sequence/interview_scheme/interview_scheme_9.png"" class=""exp-image"">
                    <div class=""question-area""></div> 
                </div>","null","","","","","","","","","","","",""
"","","","","","html-button-response","139","600227","0.0-139.0","E57DD25D89CF498BB27B6162FD394EDB","019cfc47-7f28-75c5-aabf-159547f65f16","019cfc28-2143-7934-89cc-ce6402563331","","1026","
                <div class=""stimulus-container"">
                    <img src=""images/schematic_sequence/interview_scheme/interview_scheme_9.png"" class=""exp-image"">
                    <div class=""question-area"">
                        <p style=""font-size: 20px; font-weight: bold; margin: 0;"">Is there a person in this image?</p>
                    </div>
                </div>","0","main_experiment_trial","9","interview_scheme","schematic_sequence","chronological","","","","","","",""
"","","","","","html-keyboard-response","140","605236","0.0-140.0","E57DD25D89CF498BB27B6162FD394EDB","019cfc47-7f28-75c5-aabf-159547f65f16","019cfc28-2143-7934-89cc-ce6402563331","","null","
                <div class=""stimulus-container"">
                    <img src=""images/schematic_sequence/interview_scheme/interview_scheme_ten.png"" class=""exp-image"">
                    <div class=""question-area""></div> 
                </div>","null","","","","","","","","","","","",""
"","","","","","html-button-response","141","608249","0.0-141.0","E57DD25D89CF498BB27B6162FD394EDB","019cfc47-7f28-75c5-aabf-159547f65f16","019cfc28-2143-7934-89cc-ce6402563331","","null","
                <div class=""stimulus-container"">
                    <img src=""images/schematic_sequence/interview_scheme/interview_scheme_ten.png"" class=""exp-image"">
                    <div class=""question-area"">
                        <p style=""font-size: 20px; font-weight: bold; margin: 0;"">Is there a person in this image?</p>
                    </div>
                </div>","null","main_experiment_trial","ten","interview_scheme","schematic_sequence","chronological","","","","","","",""
"","","","","","html-keyboard-response","142","613249","0.0-142.0","E57DD25D89CF498BB27B6162FD394EDB","019cfc47-7f28-75c5-aabf-159547f65f16","019cfc28-2143-7934-89cc-ce6402563331","","null","<div style=""background-color: white; width: 100vw; height: 100vh;""></div>","null","","","","","","","","","","","",""
"","","","","","html-keyboard-response","143","618258","0.0-143.0","E57DD25D89CF498BB27B6162FD394EDB","019cfc47-7f28-75c5-aabf-159547f65f16","019cfc28-2143-7934-89cc-ce6402563331","","null","
                <div class=""stimulus-container"">
                    <img src=""images/schematic_sequence/restaurant_scheme/restaurant_scheme_1.png"" class=""exp-image"">
                    <div class=""question-area""></div> 
                </div>","null","","","","","","","","","","","",""
"","","","","","html-button-response","144","620370","0.0-144.0","E57DD25D89CF498BB27B6162FD394EDB","019cfc47-7f28-75c5-aabf-159547f65f16","019cfc28-2143-7934-89cc-ce6402563331","","2112","
                <div class=""stimulus-container"">
                    <img src=""images/schematic_sequence/restaurant_scheme/restaurant_scheme_1.png"" class=""exp-image"">
                    <div class=""question-area"">
                        <p style=""font-size: 20px; font-weight: bold; margin: 0;"">Is there a person in this image?</p>
                    </div>
                </div>","0","main_experiment_trial","1","restaurant_scheme","schematic_sequence","chronological","","","","","","",""
"","","","","","html-keyboard-response","145","625384","0.0-145.0","E57DD25D89CF498BB27B6162FD394EDB","019cfc47-7f28-75c5-aabf-159547f65f16","019cfc28-2143-7934-89cc-ce6402563331","","null","
                <div class=""stimulus-container"">
                    <img src=""images/schematic_sequence/restaurant_scheme/restaurant_scheme_2.png"" class=""exp-image"">
                    <div class=""question-area""></div> 
                </div>","null","","","","","","","","","","","",""
"","","","","","html-button-response","146","627822","0.0-146.0","E57DD25D89CF498BB27B6162FD394EDB","019cfc47-7f28-75c5-aabf-159547f65f16","019cfc28-2143-7934-89cc-ce6402563331","","2437","
                <div class=""stimulus-container"">
                    <img src=""images/schematic_sequence/restaurant_scheme/restaurant_scheme_2.png"" class=""exp-image"">
                    <div class=""question-area"">
                        <p style=""font-size: 20px; font-weight: bold; margin: 0;"">Is there a person in this image?</p>
                    </div>
                </div>","1","main_experiment_trial","2","restaurant_scheme","schematic_sequence","chronological","","","","","","",""
"","","","","","html-keyboard-response","147","632823","0.0-147.0","E57DD25D89CF498BB27B6162FD394EDB","019cfc47-7f28-75c5-aabf-159547f65f16","019cfc28-2143-7934-89cc-ce6402563331","","null","
                <div class=""stimulus-container"">
                    <img src=""images/schematic_sequence/restaurant_scheme/restaurant_scheme_3.png"" class=""exp-image"">
                    <div class=""question-area""></div> 
                </div>","null","","","","","","","","","","","",""
"","","","","","html-button-response","148","634569","0.0-148.0","E57DD25D89CF498BB27B6162FD394EDB","019cfc47-7f28-75c5-aabf-159547f65f16","019cfc28-2143-7934-89cc-ce6402563331","","1746","
                <div class=""stimulus-container"">
                    <img src=""images/schematic_sequence/restaurant_scheme/restaurant_scheme_3.png"" class=""exp-image"">
                    <div class=""question-area"">
                        <p style=""font-size: 20px; font-weight: bold; margin: 0;"">Is there a person in this image?</p>
                    </div>
                </div>","1","main_experiment_trial","3","restaurant_scheme","schematic_sequence","chronological","","","","","","",""
"","","","","","html-keyboard-response","149","639585","0.0-149.0","E57DD25D89CF498BB27B6162FD394EDB","019cfc47-7f28-75c5-aabf-159547f65f16","019cfc28-2143-7934-89cc-ce6402563331","","null","
                <div class=""stimulus-container"">
                    <img src=""images/schematic_sequence/restaurant_scheme/restaurant_scheme_4.png"" class=""exp-image"">
                    <div class=""question-area""></div> 
                </div>","null","","","","","","","","","","","",""
"","","","","","html-button-response","150","641049","0.0-150.0","E57DD25D89CF498BB27B6162FD394EDB","019cfc47-7f28-75c5-aabf-159547f65f16","019cfc28-2143-7934-89cc-ce6402563331","","1464","
                <div class=""stimulus-container"">
                    <img src=""images/schematic_sequence/restaurant_scheme/restaurant_scheme_4.png"" class=""exp-image"">
                    <div class=""question-area"">
                        <p style=""font-size: 20px; font-weight: bold; margin: 0;"">Is there a person in this image?</p>
                    </div>
                </div>","0","main_experiment_trial","4","restaurant_scheme","schematic_sequence","chronological","","","","","","",""
"","","","","","html-keyboard-response","151","646060","0.0-151.0","E57DD25D89CF498BB27B6162FD394EDB","019cfc47-7f28-75c5-aabf-159547f65f16","019cfc28-2143-7934-89cc-ce6402563331","","null","
                <div class=""stimulus-container"">
                    <img src=""images/schematic_sequence/restaurant_scheme/restaurant_scheme_5.png"" class=""exp-image"">
                    <div class=""question-area""></div> 
                </div>","null","","","","","","","","","","","",""
"","","","","","html-button-response","152","647692","0.0-152.0","E57DD25D89CF498BB27B6162FD394EDB","019cfc47-7f28-75c5-aabf-159547f65f16","019cfc28-2143-7934-89cc-ce6402563331","","1631","
                <div class=""stimulus-container"">
                    <img src=""images/schematic_sequence/restaurant_scheme/restaurant_scheme_5.png"" class=""exp-image"">
                    <div class=""question-area"">
                        <p style=""font-size: 20px; font-weight: bold; margin: 0;"">Is there a person in this image?</p>
                    </div>
                </div>","0","main_experiment_trial","5","restaurant_scheme","schematic_sequence","chronological","","","","","","",""
"","","","","","html-keyboard-response","153","652696","0.0-153.0","E57DD25D89CF498BB27B6162FD394EDB","019cfc47-7f28-75c5-aabf-159547f65f16","019cfc28-2143-7934-89cc-ce6402563331","","null","
                <div class=""stimulus-container"">
                    <img src=""images/schematic_sequence/restaurant_scheme/restaurant_scheme_6.png"" class=""exp-image"">
                    <div class=""question-area""></div> 
                </div>","null","","","","","","","","","","","",""
"","","","","","html-button-response","154","653789","0.0-154.0","E57DD25D89CF498BB27B6162FD394EDB","019cfc47-7f28-75c5-aabf-159547f65f16","019cfc28-2143-7934-89cc-ce6402563331","","1093","
                <div class=""stimulus-container"">
                    <img src=""images/schematic_sequence/restaurant_scheme/restaurant_scheme_6.png"" class=""exp-image"">
                    <div class=""question-area"">
                        <p style=""font-size: 20px; font-weight: bold; margin: 0;"">Is there a person in this image?</p>
                    </div>
                </div>","1","main_experiment_trial","6","restaurant_scheme","schematic_sequence","chronological","","","","","","",""
"","","","","","html-keyboard-response","155","658796","0.0-155.0","E57DD25D89CF498BB27B6162FD394EDB","019cfc47-7f28-75c5-aabf-159547f65f16","019cfc28-2143-7934-89cc-ce6402563331","","null","
                <div class=""stimulus-container"">
                    <img src=""images/schematic_sequence/restaurant_scheme/restaurant_scheme_7.png"" class=""exp-image"">
                    <div class=""question-area""></div> 
                </div>","null","","","","","","","","","","","",""
"","","","","","html-button-response","156","660498","0.0-156.0","E57DD25D89CF498BB27B6162FD394EDB","019cfc47-7f28-75c5-aabf-159547f65f16","019cfc28-2143-7934-89cc-ce6402563331","","1702","
                <div class=""stimulus-container"">
                    <img src=""images/schematic_sequence/restaurant_scheme/restaurant_scheme_7.png"" class=""exp-image"">
                    <div class=""question-area"">
                        <p style=""font-size: 20px; font-weight: bold; margin: 0;"">Is there a person in this image?</p>
                    </div>
                </div>","1","main_experiment_trial","7","restaurant_scheme","schematic_sequence","chronological","","","","","","",""
"","","","","","html-keyboard-response","157","665512","0.0-157.0","E57DD25D89CF498BB27B6162FD394EDB","019cfc47-7f28-75c5-aabf-159547f65f16","019cfc28-2143-7934-89cc-ce6402563331","","null","
                <div class=""stimulus-container"">
                    <img src=""images/schematic_sequence/restaurant_scheme/restaurant_scheme_8.png"" class=""exp-image"">
                    <div class=""question-area""></div> 
                </div>","null","","","","","","","","","","","",""
"","","","","","html-button-response","158","666984","0.0-158.0","E57DD25D89CF498BB27B6162FD394EDB","019cfc47-7f28-75c5-aabf-159547f65f16","019cfc28-2143-7934-89cc-ce6402563331","","1472","
                <div class=""stimulus-container"">
                    <img src=""images/schematic_sequence/restaurant_scheme/restaurant_scheme_8.png"" class=""exp-image"">
                    <div class=""question-area"">
                        <p style=""font-size: 20px; font-weight: bold; margin: 0;"">Is there a person in this image?</p>
                    </div>
                </div>","1","main_experiment_trial","8","restaurant_scheme","schematic_sequence","chronological","","","","","","",""
"","","","","","html-keyboard-response","159","671994","0.0-159.0","E57DD25D89CF498BB27B6162FD394EDB","019cfc47-7f28-75c5-aabf-159547f65f16","019cfc28-2143-7934-89cc-ce6402563331","","null","
                <div class=""stimulus-container"">
                    <img src=""images/schematic_sequence/restaurant_scheme/restaurant_scheme_9.png"" class=""exp-image"">
                    <div class=""question-area""></div> 
                </div>","null","","","","","","","","","","","",""
"","","","","","html-button-response","160","673709","0.0-160.0","E57DD25D89CF498BB27B6162FD394EDB","019cfc47-7f28-75c5-aabf-159547f65f16","019cfc28-2143-7934-89cc-ce6402563331","","1715","
                <div class=""stimulus-container"">
                    <img src=""images/schematic_sequence/restaurant_scheme/restaurant_scheme_9.png"" class=""exp-image"">
                    <div class=""question-area"">
                        <p style=""font-size: 20px; font-weight: bold; margin: 0;"">Is there a person in this image?</p>
                    </div>
                </div>","0","main_experiment_trial","9","restaurant_scheme","schematic_sequence","chronological","","","","","","",""
"","","","","","html-keyboard-response","161","678722","0.0-161.0","E57DD25D89CF498BB27B6162FD394EDB","019cfc47-7f28-75c5-aabf-159547f65f16","019cfc28-2143-7934-89cc-ce6402563331","","null","
                <div class=""stimulus-container"">
                    <img src=""images/schematic_sequence/restaurant_scheme/restaurant_scheme_ten.png"" class=""exp-image"">
                    <div class=""question-area""></div> 
                </div>","null","","","","","","","","","","","",""
"","","","","","html-button-response","162","680225","0.0-162.0","E57DD25D89CF498BB27B6162FD394EDB","019cfc47-7f28-75c5-aabf-159547f65f16","019cfc28-2143-7934-89cc-ce6402563331","","1501","
                <div class=""stimulus-container"">
                    <img src=""images/schematic_sequence/restaurant_scheme/restaurant_scheme_ten.png"" class=""exp-image"">
                    <div class=""question-area"">
                        <p style=""font-size: 20px; font-weight: bold; margin: 0;"">Is there a person in this image?</p>
                    </div>
                </div>","0","main_experiment_trial","ten","restaurant_scheme","schematic_sequence","chronological","","","","","","",""
"","","","","","html-keyboard-response","163","685228","0.0-163.0","E57DD25D89CF498BB27B6162FD394EDB","019cfc47-7f28-75c5-aabf-159547f65f16","019cfc28-2143-7934-89cc-ce6402563331","","null","<div style=""background-color: white; width: 100vw; height: 100vh;""></div>","null","","","","","","","","","","","",""
"","","","","","html-keyboard-response","164","690234","0.0-164.0","E57DD25D89CF498BB27B6162FD394EDB","019cfc47-7f28-75c5-aabf-159547f65f16","019cfc28-2143-7934-89cc-ce6402563331","","null","
                <div class=""stimulus-container"">
                    <img src=""images/semantic_sequence/self_care_activities_semantic/self_care_activities_semantic_1.png"" class=""exp-image"">
                    <div class=""question-area""></div> 
                </div>","null","","","","","","","","","","","",""
"","","","","","html-button-response","165","692295","0.0-165.0","E57DD25D89CF498BB27B6162FD394EDB","019cfc47-7f28-75c5-aabf-159547f65f16","019cfc28-2143-7934-89cc-ce6402563331","","2060","
                <div class=""stimulus-container"">
                    <img src=""images/semantic_sequence/self_care_activities_semantic/self_care_activities_semantic_1.png"" class=""exp-image"">
                    <div class=""question-area"">
                        <p style=""font-size: 20px; font-weight: bold; margin: 0;"">Is there a person in this image?</p>
                    </div>
                </div>","0","main_experiment_trial","1","self_care_activities_semantic","semantic_sequence","chronological","","","","","","",""
"","","","","","html-keyboard-response","166","697295","0.0-166.0","E57DD25D89CF498BB27B6162FD394EDB","019cfc47-7f28-75c5-aabf-159547f65f16","019cfc28-2143-7934-89cc-ce6402563331","","null","
                <div class=""stimulus-container"">
                    <img src=""images/semantic_sequence/self_care_activities_semantic/self_care_activities_semantic_2.png"" class=""exp-image"">
                    <div class=""question-area""></div> 
                </div>","null","","","","","","","","","","","",""
"","","","","","html-button-response","167","698893","0.0-167.0","E57DD25D89CF498BB27B6162FD394EDB","019cfc47-7f28-75c5-aabf-159547f65f16","019cfc28-2143-7934-89cc-ce6402563331","","1597","
                <div class=""stimulus-container"">
                    <img src=""images/semantic_sequence/self_care_activities_semantic/self_care_activities_semantic_2.png"" class=""exp-image"">
                    <div class=""question-area"">
                        <p style=""font-size: 20px; font-weight: bold; margin: 0;"">Is there a person in this image?</p>
                    </div>
                </div>","0","main_experiment_trial","2","self_care_activities_semantic","semantic_sequence","chronological","","","","","","",""
"","","","","","html-keyboard-response","168","703894","0.0-168.0","E57DD25D89CF498BB27B6162FD394EDB","019cfc47-7f28-75c5-aabf-159547f65f16","019cfc28-2143-7934-89cc-ce6402563331","","null","
                <div class=""stimulus-container"">
                    <img src=""images/semantic_sequence/self_care_activities_semantic/self_care_activities_semantic_3.png"" class=""exp-image"">
                    <div class=""question-area""></div> 
                </div>","null","","","","","","","","","","","",""
"","","","","","html-button-response","169","706205","0.0-169.0","E57DD25D89CF498BB27B6162FD394EDB","019cfc47-7f28-75c5-aabf-159547f65f16","019cfc28-2143-7934-89cc-ce6402563331","","2310","
                <div class=""stimulus-container"">
                    <img src=""images/semantic_sequence/self_care_activities_semantic/self_care_activities_semantic_3.png"" class=""exp-image"">
                    <div class=""question-area"">
                        <p style=""font-size: 20px; font-weight: bold; margin: 0;"">Is there a person in this image?</p>
                    </div>
                </div>","0","main_experiment_trial","3","self_care_activities_semantic","semantic_sequence","chronological","","","","","","",""
"","","","","","html-keyboard-response","170","711207","0.0-170.0","E57DD25D89CF498BB27B6162FD394EDB","019cfc47-7f28-75c5-aabf-159547f65f16","019cfc28-2143-7934-89cc-ce6402563331","","null","
                <div class=""stimulus-container"">
                    <img src=""images/semantic_sequence/self_care_activities_semantic/self_care_activities_semantic_4.png"" class=""exp-image"">
                    <div class=""question-area""></div> 
                </div>","null","","","","","","","","","","","",""
"","","","","","html-button-response","171","713004","0.0-171.0","E57DD25D89CF498BB27B6162FD394EDB","019cfc47-7f28-75c5-aabf-159547f65f16","019cfc28-2143-7934-89cc-ce6402563331","","1797","
                <div class=""stimulus-container"">
                    <img src=""images/semantic_sequence/self_care_activities_semantic/self_care_activities_semantic_4.png"" class=""exp-image"">
                    <div class=""question-area"">
                        <p style=""font-size: 20px; font-weight: bold; margin: 0;"">Is there a person in this image?</p>
                    </div>
                </div>","0","main_experiment_trial","4","self_care_activities_semantic","semantic_sequence","chronological","","","","","","",""
"","","","","","html-keyboard-response","172","718186","0.0-172.0","E57DD25D89CF498BB27B6162FD394EDB","019cfc47-7f28-75c5-aabf-159547f65f16","019cfc28-2143-7934-89cc-ce6402563331","","null","
                <div class=""stimulus-container"">
                    <img src=""images/semantic_sequence/self_care_activities_semantic/self_care_activities_semantic_5.png"" class=""exp-image"">
                    <div class=""question-area""></div> 
                </div>","null","","","","","","","","","","","",""
"","","","","","html-button-response","173","721196","0.0-173.0","E57DD25D89CF498BB27B6162FD394EDB","019cfc47-7f28-75c5-aabf-159547f65f16","019cfc28-2143-7934-89cc-ce6402563331","","null","
                <div class=""stimulus-container"">
                    <img src=""images/semantic_sequence/self_care_activities_semantic/self_care_activities_semantic_5.png"" class=""exp-image"">
                    <div class=""question-area"">
                        <p style=""font-size: 20px; font-weight: bold; margin: 0;"">Is there a person in this image?</p>
                    </div>
                </div>","null","main_experiment_trial","5","self_care_activities_semantic","semantic_sequence","chronological","","","","","","",""
"","","","","","html-keyboard-response","174","726198","0.0-174.0","E57DD25D89CF498BB27B6162FD394EDB","019cfc47-7f28-75c5-aabf-159547f65f16","019cfc28-2143-7934-89cc-ce6402563331","","null","
                <div class=""stimulus-container"">
                    <img src=""images/semantic_sequence/self_care_activities_semantic/self_care_activities_semantic_6.png"" class=""exp-image"">
                    <div class=""question-area""></div> 
                </div>","null","","","","","","","","","","","",""
"","","","","","html-button-response","175","728284","0.0-175.0","E57DD25D89CF498BB27B6162FD394EDB","019cfc47-7f28-75c5-aabf-159547f65f16","019cfc28-2143-7934-89cc-ce6402563331","","2086","
                <div class=""stimulus-container"">
                    <img src=""images/semantic_sequence/self_care_activities_semantic/self_care_activities_semantic_6.png"" class=""exp-image"">
                    <div class=""question-area"">
                        <p style=""font-size: 20px; font-weight: bold; margin: 0;"">Is there a person in this image?</p>
                    </div>
