"success","timeout","failed_images","failed_audio","failed_video","trial_type","trial_index","time_elapsed","internal_node_id","subject_id","study_id","session_id","view_history","rt","stimulus","response","task","image_index","folder","sequence_type","valuable_image_index","reward_type","chosen_image_index","correct_choice"
"true","false","[]","[]","[]","preload","0","1991","0.0-0.0","BED4B84F921E449BB16552CF48D8A8CF","019cefa9-a2eb-7c7d-b64f-58422f783dea","019cef87-c56d-7b55-9135-c5814367ec25","","","","","","","","","","","",""
"","","","","","instructions","1","8150","0.0-1.0","BED4B84F921E449BB16552CF48D8A8CF","019cefa9-a2eb-7c7d-b64f-58422f783dea","019cef87-c56d-7b55-9135-c5814367ec25","[{""page_index"":0,""viewing_time"":6158}]","6158","","","","","","","","","",""
"","","","","","instructions","2","12192","0.0-2.0","BED4B84F921E449BB16552CF48D8A8CF","019cefa9-a2eb-7c7d-b64f-58422f783dea","019cef87-c56d-7b55-9135-c5814367ec25","[{""page_index"":0,""viewing_time"":4032}]","4042","","","","","","","","","",""
"true","","","","","fullscreen","3","14801","0.0-3.0","BED4B84F921E449BB16552CF48D8A8CF","019cefa9-a2eb-7c7d-b64f-58422f783dea","019cef87-c56d-7b55-9135-c5814367ec25","","1605","","","","","","","","","",""
"","","","","","instructions","4","84349","0.0-4.0","BED4B84F921E449BB16552CF48D8A8CF","019cefa9-a2eb-7c7d-b64f-58422f783dea","019cef87-c56d-7b55-9135-c5814367ec25","[{""page_index"":0,""viewing_time"":69548}]","69548","","","","","","","","","",""
"","","","","","instructions","5","170866","0.0-5.0","BED4B84F921E449BB16552CF48D8A8CF","019cefa9-a2eb-7c7d-b64f-58422f783dea","019cef87-c56d-7b55-9135-c5814367ec25","[{""page_index"":0,""viewing_time"":86517}]","86517","","","","","","","","","",""
"","","","","","html-keyboard-response","6","174869","0.0-6.0","BED4B84F921E449BB16552CF48D8A8CF","019cefa9-a2eb-7c7d-b64f-58422f783dea","019cef87-c56d-7b55-9135-c5814367ec25","","null","
                <div class=""stimulus-container"">
                    <img src=""images/instructions/movie_1.png"" class=""exp-image"">
                    <div class=""question-area""></div> 
                </div>","null","","","","","","","",""
"","","","","","html-button-response","7","177872","0.0-7.0","BED4B84F921E449BB16552CF48D8A8CF","019cefa9-a2eb-7c7d-b64f-58422f783dea","019cef87-c56d-7b55-9135-c5814367ec25","","null","
                <div class=""stimulus-container"">
                    <img src=""images/instructions/movie_1.png"" class=""exp-image"">
                    <div class=""question-area"">
                        <p style=""font-size: 20px; font-weight: bold; margin: 0;"">Was there a person in this image?</p>
                    </div>
                </div>","null","example_question","1","","","","","",""
"","","","","","html-keyboard-response","8","181874","0.0-8.0","BED4B84F921E449BB16552CF48D8A8CF","019cefa9-a2eb-7c7d-b64f-58422f783dea","019cef87-c56d-7b55-9135-c5814367ec25","","null","
                <div class=""stimulus-container"">
                    <img src=""images/instructions/movie_2.png"" class=""exp-image"">
                    <div class=""question-area""></div> 
                </div>","null","","","","","","","",""
"","","","","","html-button-response","9","182915","0.0-9.0","BED4B84F921E449BB16552CF48D8A8CF","019cefa9-a2eb-7c7d-b64f-58422f783dea","019cef87-c56d-7b55-9135-c5814367ec25","","1040","
                <div class=""stimulus-container"">
                    <img src=""images/instructions/movie_2.png"" class=""exp-image"">
                    <div class=""question-area"">
                        <p style=""font-size: 20px; font-weight: bold; margin: 0;"">Was there a person in this image?</p>
                    </div>
                </div>","0","example_question","2","","","","","",""
"","","","","","html-keyboard-response","10","186917","0.0-10.0","BED4B84F921E449BB16552CF48D8A8CF","019cefa9-a2eb-7c7d-b64f-58422f783dea","019cef87-c56d-7b55-9135-c5814367ec25","","null","
                <div class=""stimulus-container"">
                    <img src=""images/instructions/movie_3.png"" class=""exp-image"">
                    <div class=""question-area""></div> 
                </div>","null","","","","","","","",""
"","","","","","html-button-response","11","187699","0.0-11.0","BED4B84F921E449BB16552CF48D8A8CF","019cefa9-a2eb-7c7d-b64f-58422f783dea","019cef87-c56d-7b55-9135-c5814367ec25","","782","
                <div class=""stimulus-container"">
                    <img src=""images/instructions/movie_3.png"" class=""exp-image"">
                    <div class=""question-area"">
                        <p style=""font-size: 20px; font-weight: bold; margin: 0;"">Was there a person in this image?</p>
                    </div>
                </div>","0","example_question","3","","","","","",""
"","","","","","html-keyboard-response","12","191701","0.0-12.0","BED4B84F921E449BB16552CF48D8A8CF","019cefa9-a2eb-7c7d-b64f-58422f783dea","019cef87-c56d-7b55-9135-c5814367ec25","","null","
                <div class=""stimulus-container"">
                    <img src=""images/instructions/movie_4.png"" class=""exp-image"">
                    <div class=""question-area""></div> 
                </div>","null","","","","","","","",""
"","","","","","html-button-response","13","192399","0.0-13.0","BED4B84F921E449BB16552CF48D8A8CF","019cefa9-a2eb-7c7d-b64f-58422f783dea","019cef87-c56d-7b55-9135-c5814367ec25","","697","
                <div class=""stimulus-container"">
                    <img src=""images/instructions/movie_4.png"" class=""exp-image"">
                    <div class=""question-area"">
                        <p style=""font-size: 20px; font-weight: bold; margin: 0;"">Was there a person in this image?</p>
                    </div>
                </div>","0","example_question","4","","","","","",""
"","","","","","instructions","14","195132","0.0-14.0","BED4B84F921E449BB16552CF48D8A8CF","019cefa9-a2eb-7c7d-b64f-58422f783dea","019cef87-c56d-7b55-9135-c5814367ec25","[{""page_index"":0,""viewing_time"":2732}]","2732","","","","","","","","","",""
"","","","","","instructions","15","201933","0.0-15.0","BED4B84F921E449BB16552CF48D8A8CF","019cefa9-a2eb-7c7d-b64f-58422f783dea","019cef87-c56d-7b55-9135-c5814367ec25","[{""page_index"":0,""viewing_time"":6799}]","6799","","","","","","","","","",""
"","","","","","html-keyboard-response","16","202935","0.0-16.0","BED4B84F921E449BB16552CF48D8A8CF","019cefa9-a2eb-7c7d-b64f-58422f783dea","019cef87-c56d-7b55-9135-c5814367ec25","","null","<div style=""background-color: white; width: 100vw; height: 100vh;""></div>","null","","","","","","","",""
"","","","","","html-keyboard-response","17","207937","0.0-17.0","BED4B84F921E449BB16552CF48D8A8CF","019cefa9-a2eb-7c7d-b64f-58422f783dea","019cef87-c56d-7b55-9135-c5814367ec25","","null","
                <div class=""stimulus-container"">
                    <img src=""images/causal_sequence/museum_causal/museum_causal_1.png"" class=""exp-image"">
                    <div class=""question-area""></div> 
                </div>","null","","","","","","","",""
"","","","","","html-button-response","18","209099","0.0-18.0","BED4B84F921E449BB16552CF48D8A8CF","019cefa9-a2eb-7c7d-b64f-58422f783dea","019cef87-c56d-7b55-9135-c5814367ec25","","1160","
                <div class=""stimulus-container"">
                    <img src=""images/causal_sequence/museum_causal/museum_causal_1.png"" class=""exp-image"">
                    <div class=""question-area"">
                        <p style=""font-size: 20px; font-weight: bold; margin: 0;"">Is there a person in this image?</p>
                    </div>
                </div>","0","main_experiment_trial","1","museum_causal","causal_sequence","","","",""
"","","","","","html-keyboard-response","19","214101","0.0-19.0","BED4B84F921E449BB16552CF48D8A8CF","019cefa9-a2eb-7c7d-b64f-58422f783dea","019cef87-c56d-7b55-9135-c5814367ec25","","null","
                <div class=""stimulus-container"">
                    <img src=""images/causal_sequence/museum_causal/museum_causal_2.png"" class=""exp-image"">
                    <div class=""question-area""></div> 
                </div>","null","","","","","","","",""
"","","","","","html-button-response","20","215033","0.0-20.0","BED4B84F921E449BB16552CF48D8A8CF","019cefa9-a2eb-7c7d-b64f-58422f783dea","019cef87-c56d-7b55-9135-c5814367ec25","","930","
                <div class=""stimulus-container"">
                    <img src=""images/causal_sequence/museum_causal/museum_causal_2.png"" class=""exp-image"">
                    <div class=""question-area"">
                        <p style=""font-size: 20px; font-weight: bold; margin: 0;"">Is there a person in this image?</p>
                    </div>
                </div>","0","main_experiment_trial","2","museum_causal","causal_sequence","","","",""
"","","","","","html-keyboard-response","21","220035","0.0-21.0","BED4B84F921E449BB16552CF48D8A8CF","019cefa9-a2eb-7c7d-b64f-58422f783dea","019cef87-c56d-7b55-9135-c5814367ec25","","null","
                <div class=""stimulus-container"">
                    <img src=""images/causal_sequence/museum_causal/museum_causal_3.png"" class=""exp-image"">
                    <div class=""question-area""></div> 
                </div>","null","","","","","","","",""
"","","","","","html-button-response","22","220699","0.0-22.0","BED4B84F921E449BB16552CF48D8A8CF","019cefa9-a2eb-7c7d-b64f-58422f783dea","019cef87-c56d-7b55-9135-c5814367ec25","","663","
                <div class=""stimulus-container"">
                    <img src=""images/causal_sequence/museum_causal/museum_causal_3.png"" class=""exp-image"">
                    <div class=""question-area"">
                        <p style=""font-size: 20px; font-weight: bold; margin: 0;"">Is there a person in this image?</p>
                    </div>
                </div>","0","main_experiment_trial","3","museum_causal","causal_sequence","","","",""
"","","","","","html-keyboard-response","23","225701","0.0-23.0","BED4B84F921E449BB16552CF48D8A8CF","019cefa9-a2eb-7c7d-b64f-58422f783dea","019cef87-c56d-7b55-9135-c5814367ec25","","null","
                <div class=""stimulus-container"">
                    <img src=""images/causal_sequence/museum_causal/museum_causal_4.png"" class=""exp-image"">
                    <div class=""question-area""></div> 
                </div>","null","","","","","","","",""
"","","","","","html-button-response","24","226316","0.0-24.0","BED4B84F921E449BB16552CF48D8A8CF","019cefa9-a2eb-7c7d-b64f-58422f783dea","019cef87-c56d-7b55-9135-c5814367ec25","","612","
                <div class=""stimulus-container"">
                    <img src=""images/causal_sequence/museum_causal/museum_causal_4.png"" class=""exp-image"">
                    <div class=""question-area"">
                        <p style=""font-size: 20px; font-weight: bold; margin: 0;"">Is there a person in this image?</p>
                    </div>
                </div>","1","main_experiment_trial","4","museum_causal","causal_sequence","","","",""
"","","","","","html-keyboard-response","25","231318","0.0-25.0","BED4B84F921E449BB16552CF48D8A8CF","019cefa9-a2eb-7c7d-b64f-58422f783dea","019cef87-c56d-7b55-9135-c5814367ec25","","null","
                <div class=""stimulus-container"">
                    <img src=""images/causal_sequence/museum_causal/museum_causal_5.png"" class=""exp-image"">
                    <div class=""question-area""></div> 
                </div>","null","","","","","","","",""
"","","","","","html-button-response","26","232016","0.0-26.0","BED4B84F921E449BB16552CF48D8A8CF","019cefa9-a2eb-7c7d-b64f-58422f783dea","019cef87-c56d-7b55-9135-c5814367ec25","","696","
                <div class=""stimulus-container"">
                    <img src=""images/causal_sequence/museum_causal/museum_causal_5.png"" class=""exp-image"">
                    <div class=""question-area"">
                        <p style=""font-size: 20px; font-weight: bold; margin: 0;"">Is there a person in this image?</p>
                    </div>
                </div>","0","main_experiment_trial","5","museum_causal","causal_sequence","","","",""
"","","","","","html-keyboard-response","27","237018","0.0-27.0","BED4B84F921E449BB16552CF48D8A8CF","019cefa9-a2eb-7c7d-b64f-58422f783dea","019cef87-c56d-7b55-9135-c5814367ec25","","null","
                <div class=""stimulus-container"">
                    <img src=""images/causal_sequence/museum_causal/museum_causal_6.png"" class=""exp-image"">
                    <div class=""question-area""></div> 
                </div>","null","","","","","","","",""
"","","","","","html-button-response","28","237732","0.0-28.0","BED4B84F921E449BB16552CF48D8A8CF","019cefa9-a2eb-7c7d-b64f-58422f783dea","019cef87-c56d-7b55-9135-c5814367ec25","","714","
                <div class=""stimulus-container"">
                    <img src=""images/causal_sequence/museum_causal/museum_causal_6.png"" class=""exp-image"">
                    <div class=""question-area"">
                        <p style=""font-size: 20px; font-weight: bold; margin: 0;"">Is there a person in this image?</p>
                    </div>
                </div>","0","main_experiment_trial","6","museum_causal","causal_sequence","","","",""
"","","","","","html-keyboard-response","29","242734","0.0-29.0","BED4B84F921E449BB16552CF48D8A8CF","019cefa9-a2eb-7c7d-b64f-58422f783dea","019cef87-c56d-7b55-9135-c5814367ec25","","null","
                <div class=""stimulus-container"">
                    <img src=""images/causal_sequence/museum_causal/museum_causal_7.png"" class=""exp-image"">
                    <div class=""question-area""></div> 
                </div>","null","","","","","","","",""
"","","","","","html-button-response","30","243716","0.0-30.0","BED4B84F921E449BB16552CF48D8A8CF","019cefa9-a2eb-7c7d-b64f-58422f783dea","019cef87-c56d-7b55-9135-c5814367ec25","","980","
                <div class=""stimulus-container"">
                    <img src=""images/causal_sequence/museum_causal/museum_causal_7.png"" class=""exp-image"">
                    <div class=""question-area"">
                        <p style=""font-size: 20px; font-weight: bold; margin: 0;"">Is there a person in this image?</p>
                    </div>
                </div>","1","main_experiment_trial","7","museum_causal","causal_sequence","","","",""
"","","","","","html-keyboard-response","31","248718","0.0-31.0","BED4B84F921E449BB16552CF48D8A8CF","019cefa9-a2eb-7c7d-b64f-58422f783dea","019cef87-c56d-7b55-9135-c5814367ec25","","null","
                <div class=""stimulus-container"">
                    <img src=""images/causal_sequence/museum_causal/museum_causal_8.png"" class=""exp-image"">
                    <div class=""question-area""></div> 
                </div>","null","","","","","","","",""
"","","","","","html-button-response","32","249383","0.0-32.0","BED4B84F921E449BB16552CF48D8A8CF","019cefa9-a2eb-7c7d-b64f-58422f783dea","019cef87-c56d-7b55-9135-c5814367ec25","","663","
                <div class=""stimulus-container"">
                    <img src=""images/causal_sequence/museum_causal/museum_causal_8.png"" class=""exp-image"">
                    <div class=""question-area"">
                        <p style=""font-size: 20px; font-weight: bold; margin: 0;"">Is there a person in this image?</p>
                    </div>
                </div>","0","main_experiment_trial","8","museum_causal","causal_sequence","","","",""
"","","","","","html-keyboard-response","33","254385","0.0-33.0","BED4B84F921E449BB16552CF48D8A8CF","019cefa9-a2eb-7c7d-b64f-58422f783dea","019cef87-c56d-7b55-9135-c5814367ec25","","null","
                <div class=""stimulus-container"">
                    <img src=""images/causal_sequence/museum_causal/museum_causal_9.png"" class=""exp-image"">
                    <div class=""question-area""></div> 
                </div>","null","","","","","","","",""
"","","","","","html-button-response","34","255233","0.0-34.0","BED4B84F921E449BB16552CF48D8A8CF","019cefa9-a2eb-7c7d-b64f-58422f783dea","019cef87-c56d-7b55-9135-c5814367ec25","","846","
                <div class=""stimulus-container"">
                    <img src=""images/causal_sequence/museum_causal/museum_causal_9.png"" class=""exp-image"">
                    <div class=""question-area"">
                        <p style=""font-size: 20px; font-weight: bold; margin: 0;"">Is there a person in this image?</p>
                    </div>
                </div>","1","main_experiment_trial","9","museum_causal","causal_sequence","","","",""
"","","","","","html-keyboard-response","35","260235","0.0-35.0","BED4B84F921E449BB16552CF48D8A8CF","019cefa9-a2eb-7c7d-b64f-58422f783dea","019cef87-c56d-7b55-9135-c5814367ec25","","null","
                <div class=""stimulus-container"">
                    <img src=""images/causal_sequence/museum_causal/museum_causal_ten.png"" class=""exp-image"">
                    <div class=""question-area""></div> 
                </div>","null","","","","","","","",""
"","","","","","html-button-response","36","260699","0.0-36.0","BED4B84F921E449BB16552CF48D8A8CF","019cefa9-a2eb-7c7d-b64f-58422f783dea","019cef87-c56d-7b55-9135-c5814367ec25","","463","
                <div class=""stimulus-container"">
                    <img src=""images/causal_sequence/museum_causal/museum_causal_ten.png"" class=""exp-image"">
                    <div class=""question-area"">
                        <p style=""font-size: 20px; font-weight: bold; margin: 0;"">Is there a person in this image?</p>
                    </div>
                </div>","0","main_experiment_trial","ten","museum_causal","causal_sequence","","","",""
"","","","","","html-keyboard-response","37","261701","0.0-37.0","BED4B84F921E449BB16552CF48D8A8CF","019cefa9-a2eb-7c7d-b64f-58422f783dea","019cef87-c56d-7b55-9135-c5814367ec25","","null","<div style=""background-color: white; width: 100vw; height: 100vh;""></div>","null","","","","","","","",""
"","","","","","html-keyboard-response","38","266703","0.0-38.0","BED4B84F921E449BB16552CF48D8A8CF","019cefa9-a2eb-7c7d-b64f-58422f783dea","019cef87-c56d-7b55-9135-c5814367ec25","","null","
                <div class=""stimulus-container"">
                    <img src=""images/causal_sequence/the_performance_causal/the_performance_causal_1.png"" class=""exp-image"">
                    <div class=""question-area""></div> 
                </div>","null","","","","","","","",""
"","","","","","html-button-response","39","268433","0.0-39.0","BED4B84F921E449BB16552CF48D8A8CF","019cefa9-a2eb-7c7d-b64f-58422f783dea","019cef87-c56d-7b55-9135-c5814367ec25","","1728","
                <div class=""stimulus-container"">
                    <img src=""images/causal_sequence/the_performance_causal/the_performance_causal_1.png"" class=""exp-image"">
                    <div class=""question-area"">
                        <p style=""font-size: 20px; font-weight: bold; margin: 0;"">Is there a person in this image?</p>
                    </div>
                </div>","0","main_experiment_trial","1","the_performance_causal","causal_sequence","","","",""
"","","","","","html-keyboard-response","40","273434","0.0-40.0","BED4B84F921E449BB16552CF48D8A8CF","019cefa9-a2eb-7c7d-b64f-58422f783dea","019cef87-c56d-7b55-9135-c5814367ec25","","null","
                <div class=""stimulus-container"">
                    <img src=""images/causal_sequence/the_performance_causal/the_performance_causal_2.png"" class=""exp-image"">
                    <div class=""question-area""></div> 
                </div>","null","","","","","","","",""
"","","","","","html-button-response","41","274316","0.0-41.0","BED4B84F921E449BB16552CF48D8A8CF","019cefa9-a2eb-7c7d-b64f-58422f783dea","019cef87-c56d-7b55-9135-c5814367ec25","","881","
                <div class=""stimulus-container"">
                    <img src=""images/causal_sequence/the_performance_causal/the_performance_causal_2.png"" class=""exp-image"">
                    <div class=""question-area"">
                        <p style=""font-size: 20px; font-weight: bold; margin: 0;"">Is there a person in this image?</p>
                    </div>
                </div>","0","main_experiment_trial","2","the_performance_causal","causal_sequence","","","",""
"","","","","","html-keyboard-response","42","279318","0.0-42.0","BED4B84F921E449BB16552CF48D8A8CF","019cefa9-a2eb-7c7d-b64f-58422f783dea","019cef87-c56d-7b55-9135-c5814367ec25","","null","
                <div class=""stimulus-container"">
                    <img src=""images/causal_sequence/the_performance_causal/the_performance_causal_3.png"" class=""exp-image"">
                    <div class=""question-area""></div> 
                </div>","null","","","","","","","",""
"","","","","","html-button-response","43","280432","0.0-43.0","BED4B84F921E449BB16552CF48D8A8CF","019cefa9-a2eb-7c7d-b64f-58422f783dea","019cef87-c56d-7b55-9135-c5814367ec25","","1113","
                <div class=""stimulus-container"">
                    <img src=""images/causal_sequence/the_performance_causal/the_performance_causal_3.png"" class=""exp-image"">
                    <div class=""question-area"">
                        <p style=""font-size: 20px; font-weight: bold; margin: 0;"">Is there a person in this image?</p>
                    </div>
                </div>","0","main_experiment_trial","3","the_performance_causal","causal_sequence","","","",""
"","","","","","html-keyboard-response","44","285434","0.0-44.0","BED4B84F921E449BB16552CF48D8A8CF","019cefa9-a2eb-7c7d-b64f-58422f783dea","019cef87-c56d-7b55-9135-c5814367ec25","","null","
                <div class=""stimulus-container"">
                    <img src=""images/causal_sequence/the_performance_causal/the_performance_causal_4.png"" class=""exp-image"">
                    <div class=""question-area""></div> 
                </div>","null","","","","","","","",""
"","","","","","html-button-response","45","285965","0.0-45.0","BED4B84F921E449BB16552CF48D8A8CF","019cefa9-a2eb-7c7d-b64f-58422f783dea","019cef87-c56d-7b55-9135-c5814367ec25","","530","
                <div class=""stimulus-container"">
                    <img src=""images/causal_sequence/the_performance_causal/the_performance_causal_4.png"" class=""exp-image"">
                    <div class=""question-area"">
                        <p style=""font-size: 20px; font-weight: bold; margin: 0;"">Is there a person in this image?</p>
                    </div>
                </div>","0","main_experiment_trial","4","the_performance_causal","causal_sequence","","","",""
"","","","","","html-keyboard-response","46","290967","0.0-46.0","BED4B84F921E449BB16552CF48D8A8CF","019cefa9-a2eb-7c7d-b64f-58422f783dea","019cef87-c56d-7b55-9135-c5814367ec25","","null","
                <div class=""stimulus-container"">
                    <img src=""images/causal_sequence/the_performance_causal/the_performance_causal_5.png"" class=""exp-image"">
                    <div class=""question-area""></div> 
                </div>","null","","","","","","","",""
"","","","","","html-button-response","47","292183","0.0-47.0","BED4B84F921E449BB16552CF48D8A8CF","019cefa9-a2eb-7c7d-b64f-58422f783dea","019cef87-c56d-7b55-9135-c5814367ec25","","1214","
                <div class=""stimulus-container"">
                    <img src=""images/causal_sequence/the_performance_causal/the_performance_causal_5.png"" class=""exp-image"">
                    <div class=""question-area"">
                        <p style=""font-size: 20px; font-weight: bold; margin: 0;"">Is there a person in this image?</p>
                    </div>
                </div>","0","main_experiment_trial","5","the_performance_causal","causal_sequence","","","",""
"","","","","","html-keyboard-response","48","297185","0.0-48.0","BED4B84F921E449BB16552CF48D8A8CF","019cefa9-a2eb-7c7d-b64f-58422f783dea","019cef87-c56d-7b55-9135-c5814367ec25","","null","
                <div class=""stimulus-container"">
                    <img src=""images/causal_sequence/the_performance_causal/the_performance_causal_6.png"" class=""exp-image"">
                    <div class=""question-area""></div> 
                </div>","null","","","","","","","",""
"","","","","","html-button-response","49","297866","0.0-49.0","BED4B84F921E449BB16552CF48D8A8CF","019cefa9-a2eb-7c7d-b64f-58422f783dea","019cef87-c56d-7b55-9135-c5814367ec25","","680","
                <div class=""stimulus-container"">
                    <img src=""images/causal_sequence/the_performance_causal/the_performance_causal_6.png"" class=""exp-image"">
                    <div class=""question-area"">
                        <p style=""font-size: 20px; font-weight: bold; margin: 0;"">Is there a person in this image?</p>
                    </div>
                </div>","0","main_experiment_trial","6","the_performance_causal","causal_sequence","","","",""
"","","","","","html-keyboard-response","50","302868","0.0-50.0","BED4B84F921E449BB16552CF48D8A8CF","019cefa9-a2eb-7c7d-b64f-58422f783dea","019cef87-c56d-7b55-9135-c5814367ec25","","null","
                <div class=""stimulus-container"">
                    <img src=""images/causal_sequence/the_performance_causal/the_performance_causal_7.png"" class=""exp-image"">
                    <div class=""question-area""></div> 
                </div>","null","","","","","","","",""
"","","","","","html-button-response","51","304399","0.0-51.0","BED4B84F921E449BB16552CF48D8A8CF","019cefa9-a2eb-7c7d-b64f-58422f783dea","019cef87-c56d-7b55-9135-c5814367ec25","","1529","
                <div class=""stimulus-container"">
                    <img src=""images/causal_sequence/the_performance_causal/the_performance_causal_7.png"" class=""exp-image"">
                    <div class=""question-area"">
                        <p style=""font-size: 20px; font-weight: bold; margin: 0;"">Is there a person in this image?</p>
                    </div>
                </div>","0","main_experiment_trial","7","the_performance_causal","causal_sequence","","","",""
"","","","","","html-keyboard-response","52","309401","0.0-52.0","BED4B84F921E449BB16552CF48D8A8CF","019cefa9-a2eb-7c7d-b64f-58422f783dea","019cef87-c56d-7b55-9135-c5814367ec25","","null","
                <div class=""stimulus-container"">
                    <img src=""images/causal_sequence/the_performance_causal/the_performance_causal_8.png"" class=""exp-image"">
                    <div class=""question-area""></div> 
                </div>","null","","","","","","","",""
"","","","","","html-button-response","53","310450","0.0-53.0","BED4B84F921E449BB16552CF48D8A8CF","019cefa9-a2eb-7c7d-b64f-58422f783dea","019cef87-c56d-7b55-9135-c5814367ec25","","1047","
                <div class=""stimulus-container"">
                    <img src=""images/causal_sequence/the_performance_causal/the_performance_causal_8.png"" class=""exp-image"">
                    <div class=""question-area"">
                        <p style=""font-size: 20px; font-weight: bold; margin: 0;"">Is there a person in this image?</p>
                    </div>
                </div>","0","main_experiment_trial","8","the_performance_causal","causal_sequence","","","",""
"","","","","","html-keyboard-response","54","315451","0.0-54.0","BED4B84F921E449BB16552CF48D8A8CF","019cefa9-a2eb-7c7d-b64f-58422f783dea","019cef87-c56d-7b55-9135-c5814367ec25","","null","
                <div class=""stimulus-container"">
                    <img src=""images/causal_sequence/the_performance_causal/the_performance_causal_9.png"" class=""exp-image"">
                    <div class=""question-area""></div> 
                </div>","null","","","","","","","",""
"","","","","","html-button-response","55","316182","0.0-55.0","BED4B84F921E449BB16552CF48D8A8CF","019cefa9-a2eb-7c7d-b64f-58422f783dea","019cef87-c56d-7b55-9135-c5814367ec25","","730","
                <div class=""stimulus-container"">
                    <img src=""images/causal_sequence/the_performance_causal/the_performance_causal_9.png"" class=""exp-image"">
                    <div class=""question-area"">
                        <p style=""font-size: 20px; font-weight: bold; margin: 0;"">Is there a person in this image?</p>
                    </div>
                </div>","0","main_experiment_trial","9","the_performance_causal","causal_sequence","","","",""
"","","","","","html-keyboard-response","56","321184","0.0-56.0","BED4B84F921E449BB16552CF48D8A8CF","019cefa9-a2eb-7c7d-b64f-58422f783dea","019cef87-c56d-7b55-9135-c5814367ec25","","null","
                <div class=""stimulus-container"">
                    <img src=""images/causal_sequence/the_performance_causal/the_performance_causal_ten.png"" class=""exp-image"">
                    <div class=""question-area""></div> 
                </div>","null","","","","","","","",""
"","","","","","html-button-response","57","321649","0.0-57.0","BED4B84F921E449BB16552CF48D8A8CF","019cefa9-a2eb-7c7d-b64f-58422f783dea","019cef87-c56d-7b55-9135-c5814367ec25","","463","
                <div class=""stimulus-container"">
                    <img src=""images/causal_sequence/the_performance_causal/the_performance_causal_ten.png"" class=""exp-image"">
                    <div class=""question-area"">
                        <p style=""font-size: 20px; font-weight: bold; margin: 0;"">Is there a person in this image?</p>
                    </div>
                </div>","0","main_experiment_trial","ten","the_performance_causal","causal_sequence","","","",""
"","","","","","html-keyboard-response","58","322651","0.0-58.0","BED4B84F921E449BB16552CF48D8A8CF","019cefa9-a2eb-7c7d-b64f-58422f783dea","019cef87-c56d-7b55-9135-c5814367ec25","","null","<div style=""background-color: white; width: 100vw; height: 100vh;""></div>","null","","","","","","","",""
"","","","","","html-keyboard-response","59","327653","0.0-59.0","BED4B84F921E449BB16552CF48D8A8CF","019cefa9-a2eb-7c7d-b64f-58422f783dea","019cef87-c56d-7b55-9135-c5814367ec25","","null","
                <div class=""stimulus-container"">
                    <img src=""images/causal_sequence/package_causal/package_causal_1.png"" class=""exp-image"">
                    <div class=""question-area""></div> 
                </div>","null","","","","","","","",""
"","","","","","html-button-response","60","328183","0.0-60.0","BED4B84F921E449BB16552CF48D8A8CF","019cefa9-a2eb-7c7d-b64f-58422f783dea","019cef87-c56d-7b55-9135-c5814367ec25","","528","
                <div class=""stimulus-container"">
                    <img src=""images/causal_sequence/package_causal/package_causal_1.png"" class=""exp-image"">
                    <div class=""question-area"">
                        <p style=""font-size: 20px; font-weight: bold; margin: 0;"">Is there a person in this image?</p>
                    </div>
                </div>","0","main_experiment_trial","1","package_causal","causal_sequence","","","",""
"","","","","","html-keyboard-response","61","333185","0.0-61.0","BED4B84F921E449BB16552CF48D8A8CF","019cefa9-a2eb-7c7d-b64f-58422f783dea","019cef87-c56d-7b55-9135-c5814367ec25","","null","
                <div class=""stimulus-container"">
                    <img src=""images/causal_sequence/package_causal/package_causal_2.png"" class=""exp-image"">
                    <div class=""question-area""></div> 
                </div>","null","","","","","","","",""
"","","","","","html-button-response","62","333816","0.0-62.0","BED4B84F921E449BB16552CF48D8A8CF","019cefa9-a2eb-7c7d-b64f-58422f783dea","019cef87-c56d-7b55-9135-c5814367ec25","","630","
                <div class=""stimulus-container"">
                    <img src=""images/causal_sequence/package_causal/package_causal_2.png"" class=""exp-image"">
                    <div class=""question-area"">
                        <p style=""font-size: 20px; font-weight: bold; margin: 0;"">Is there a person in this image?</p>
                    </div>
                </div>","0","main_experiment_trial","2","package_causal","causal_sequence","","","",""
"","","","","","html-keyboard-response","63","338818","0.0-63.0","BED4B84F921E449BB16552CF48D8A8CF","019cefa9-a2eb-7c7d-b64f-58422f783dea","019cef87-c56d-7b55-9135-c5814367ec25","","null","
                <div class=""stimulus-container"">
                    <img src=""images/causal_sequence/package_causal/package_causal_3.png"" class=""exp-image"">
                    <div class=""question-area""></div> 
                </div>","null","","","","","","","",""
"","","","","","html-button-response","64","339699","0.0-64.0","BED4B84F921E449BB16552CF48D8A8CF","019cefa9-a2eb-7c7d-b64f-58422f783dea","019cef87-c56d-7b55-9135-c5814367ec25","","880","
                <div class=""stimulus-container"">
                    <img src=""images/causal_sequence/package_causal/package_causal_3.png"" class=""exp-image"">
                    <div class=""question-area"">
                        <p style=""font-size: 20px; font-weight: bold; margin: 0;"">Is there a person in this image?</p>
                    </div>
                </div>","0","main_experiment_trial","3","package_causal","causal_sequence","","","",""
"","","","","","html-keyboard-response","65","344701","0.0-65.0","BED4B84F921E449BB16552CF48D8A8CF","019cefa9-a2eb-7c7d-b64f-58422f783dea","019cef87-c56d-7b55-9135-c5814367ec25","","null","
                <div class=""stimulus-container"">
                    <img src=""images/causal_sequence/package_causal/package_causal_4.png"" class=""exp-image"">
                    <div class=""question-area""></div> 
                </div>","null","","","","","","","",""
"","","","","","html-button-response","66","345216","0.0-66.0","BED4B84F921E449BB16552CF48D8A8CF","019cefa9-a2eb-7c7d-b64f-58422f783dea","019cef87-c56d-7b55-9135-c5814367ec25","","514","
                <div class=""stimulus-container"">
                    <img src=""images/causal_sequence/package_causal/package_causal_4.png"" class=""exp-image"">
                    <div class=""question-area"">
                        <p style=""font-size: 20px; font-weight: bold; margin: 0;"">Is there a person in this image?</p>
                    </div>
                </div>","1","main_experiment_trial","4","package_causal","causal_sequence","","","",""
"","","","","","html-keyboard-response","67","350218","0.0-67.0","BED4B84F921E449BB16552CF48D8A8CF","019cefa9-a2eb-7c7d-b64f-58422f783dea","019cef87-c56d-7b55-9135-c5814367ec25","","null","
                <div class=""stimulus-container"">
                    <img src=""images/causal_sequence/package_causal/package_causal_5.png"" class=""exp-image"">
                    <div class=""question-area""></div> 
                </div>","null","","","","","","","",""
"","","","","","html-button-response","68","350849","0.0-68.0","BED4B84F921E449BB16552CF48D8A8CF","019cefa9-a2eb-7c7d-b64f-58422f783dea","019cef87-c56d-7b55-9135-c5814367ec25","","630","
                <div class=""stimulus-container"">
                    <img src=""images/causal_sequence/package_causal/package_causal_5.png"" class=""exp-image"">
                    <div class=""question-area"">
                        <p style=""font-size: 20px; font-weight: bold; margin: 0;"">Is there a person in this image?</p>
                    </div>
                </div>","0","main_experiment_trial","5","package_causal","causal_sequence","","","",""
"","","","","","html-keyboard-response","69","355852","0.0-69.0","BED4B84F921E449BB16552CF48D8A8CF","019cefa9-a2eb-7c7d-b64f-58422f783dea","019cef87-c56d-7b55-9135-c5814367ec25","","null","
                <div class=""stimulus-container"">
                    <img src=""images/causal_sequence/package_causal/package_causal_6.png"" class=""exp-image"">
                    <div class=""question-area""></div> 
                </div>","null","","","","","","","",""
"","","","","","html-button-response","70","356483","0.0-70.0","BED4B84F921E449BB16552CF48D8A8CF","019cefa9-a2eb-7c7d-b64f-58422f783dea","019cef87-c56d-7b55-9135-c5814367ec25","","630","
                <div class=""stimulus-container"">
                    <img src=""images/causal_sequence/package_causal/package_causal_6.png"" class=""exp-image"">
                    <div class=""question-area"">
                        <p style=""font-size: 20px; font-weight: bold; margin: 0;"">Is there a person in this image?</p>
                    </div>
                </div>","0","main_experiment_trial","6","package_causal","causal_sequence","","","",""
"","","","","","html-keyboard-response","71","361486","0.0-71.0","BED4B84F921E449BB16552CF48D8A8CF","019cefa9-a2eb-7c7d-b64f-58422f783dea","019cef87-c56d-7b55-9135-c5814367ec25","","null","
                <div class=""stimulus-container"">
                    <img src=""images/causal_sequence/package_causal/package_causal_7.png"" class=""exp-image"">
                    <div class=""question-area""></div> 
                </div>","null","","","","","","","",""
"","","","","","html-button-response","72","362016","0.0-72.0","BED4B84F921E449BB16552CF48D8A8CF","019cefa9-a2eb-7c7d-b64f-58422f783dea","019cef87-c56d-7b55-9135-c5814367ec25","","529","
                <div class=""stimulus-container"">
                    <img src=""images/causal_sequence/package_causal/package_causal_7.png"" class=""exp-image"">
                    <div class=""question-area"">
                        <p style=""font-size: 20px; font-weight: bold; margin: 0;"">Is there a person in this image?</p>
                    </div>
                </div>","0","main_experiment_trial","7","package_causal","causal_sequence","","","",""
"","","","","","html-keyboard-response","73","367018","0.0-73.0","BED4B84F921E449BB16552CF48D8A8CF","019cefa9-a2eb-7c7d-b64f-58422f783dea","019cef87-c56d-7b55-9135-c5814367ec25","","null","
                <div class=""stimulus-container"">
                    <img src=""images/causal_sequence/package_causal/package_causal_8.png"" class=""exp-image"">
                    <div class=""question-area""></div> 
                </div>","null","","","","","","","",""
"","","","","","html-button-response","74","367715","0.0-74.0","BED4B84F921E449BB16552CF48D8A8CF","019cefa9-a2eb-7c7d-b64f-58422f783dea","019cef87-c56d-7b55-9135-c5814367ec25","","696","
                <div class=""stimulus-container"">
                    <img src=""images/causal_sequence/package_causal/package_causal_8.png"" class=""exp-image"">
                    <div class=""question-area"">
                        <p style=""font-size: 20px; font-weight: bold; margin: 0;"">Is there a person in this image?</p>
                    </div>
                </div>","0","main_experiment_trial","8","package_causal","causal_sequence","","","",""
"","","","","","html-keyboard-response","75","372717","0.0-75.0","BED4B84F921E449BB16552CF48D8A8CF","019cefa9-a2eb-7c7d-b64f-58422f783dea","019cef87-c56d-7b55-9135-c5814367ec25","","null","
                <div class=""stimulus-container"">
                    <img src=""images/causal_sequence/package_causal/package_causal_9.png"" class=""exp-image"">
                    <div class=""question-area""></div> 
                </div>","null","","","","","","","",""
"","","","","","html-button-response","76","373767","0.0-76.0","BED4B84F921E449BB16552CF48D8A8CF","019cefa9-a2eb-7c7d-b64f-58422f783dea","019cef87-c56d-7b55-9135-c5814367ec25","","1049","
                <div class=""stimulus-container"">
                    <img src=""images/causal_sequence/package_causal/package_causal_9.png"" class=""exp-image"">
                    <div class=""question-area"">
                        <p style=""font-size: 20px; font-weight: bold; margin: 0;"">Is there a person in this image?</p>
                    </div>
                </div>","0","main_experiment_trial","9","package_causal","causal_sequence","","","",""
"","","","","","html-keyboard-response","77","378769","0.0-77.0","BED4B84F921E449BB16552CF48D8A8CF","019cefa9-a2eb-7c7d-b64f-58422f783dea","019cef87-c56d-7b55-9135-c5814367ec25","","null","
                <div class=""stimulus-container"">
                    <img src=""images/causal_sequence/package_causal/package_causal_ten.png"" class=""exp-image"">
                    <div class=""question-area""></div> 
                </div>","null","","","","","","","",""
"","","","","","html-button-response","78","380683","0.0-78.0","BED4B84F921E449BB16552CF48D8A8CF","019cefa9-a2eb-7c7d-b64f-58422f783dea","019cef87-c56d-7b55-9135-c5814367ec25","","1913","
                <div class=""stimulus-container"">
                    <img src=""images/causal_sequence/package_causal/package_causal_ten.png"" class=""exp-image"">
                    <div class=""question-area"">
                        <p style=""font-size: 20px; font-weight: bold; margin: 0;"">Is there a person in this image?</p>
                    </div>
                </div>","0","main_experiment_trial","ten","package_causal","causal_sequence","","","",""
"","","","","","html-keyboard-response","79","381685","0.0-79.0","BED4B84F921E449BB16552CF48D8A8CF","019cefa9-a2eb-7c7d-b64f-58422f783dea","019cef87-c56d-7b55-9135-c5814367ec25","","null","<div style=""background-color: white; width: 100vw; height: 100vh;""></div>","null","","","","","","","",""
"","","","","","html-keyboard-response","80","386687","0.0-80.0","BED4B84F921E449BB16552CF48D8A8CF","019cefa9-a2eb-7c7d-b64f-58422f783dea","019cef87-c56d-7b55-9135-c5814367ec25","","null","
                <div class=""stimulus-container"">
                    <img src=""images/schematic_sequence/hotel_scheme/hotel_scheme_1.png"" class=""exp-image"">
                    <div class=""question-area""></div> 
                </div>","null","","","","","","","",""
"","","","","","html-button-response","81","387399","0.0-81.0","BED4B84F921E449BB16552CF48D8A8CF","019cefa9-a2eb-7c7d-b64f-58422f783dea","019cef87-c56d-7b55-9135-c5814367ec25","","711","
                <div class=""stimulus-container"">
                    <img src=""images/schematic_sequence/hotel_scheme/hotel_scheme_1.png"" class=""exp-image"">
                    <div class=""question-area"">
                        <p style=""font-size: 20px; font-weight: bold; margin: 0;"">Is there a person in this image?</p>
                    </div>
                </div>","1","main_experiment_trial","1","hotel_scheme","schematic_sequence","","","",""
"","","","","","html-keyboard-response","82","392401","0.0-82.0","BED4B84F921E449BB16552CF48D8A8CF","019cefa9-a2eb-7c7d-b64f-58422f783dea","019cef87-c56d-7b55-9135-c5814367ec25","","null","
                <div class=""stimulus-container"">
                    <img src=""images/schematic_sequence/hotel_scheme/hotel_scheme_2.png"" class=""exp-image"">
                    <div class=""question-area""></div> 
                </div>","null","","","","","","","",""
"","","","","","html-button-response","83","393066","0.0-83.0","BED4B84F921E449BB16552CF48D8A8CF","019cefa9-a2eb-7c7d-b64f-58422f783dea","019cef87-c56d-7b55-9135-c5814367ec25","","664","
                <div class=""stimulus-container"">
                    <img src=""images/schematic_sequence/hotel_scheme/hotel_scheme_2.png"" class=""exp-image"">
                    <div class=""question-area"">
                        <p style=""font-size: 20px; font-weight: bold; margin: 0;"">Is there a person in this image?</p>
                    </div>
                </div>","0","main_experiment_trial","2","hotel_scheme","schematic_sequence","","","",""
"","","","","","html-keyboard-response","84","398068","0.0-84.0","BED4B84F921E449BB16552CF48D8A8CF","019cefa9-a2eb-7c7d-b64f-58422f783dea","019cef87-c56d-7b55-9135-c5814367ec25","","null","
                <div class=""stimulus-container"">
                    <img src=""images/schematic_sequence/hotel_scheme/hotel_scheme_3.png"" class=""exp-image"">
                    <div class=""question-area""></div> 
                </div>","null","","","","","","","",""
"","","","","","html-button-response","85","398533","0.0-85.0","BED4B84F921E449BB16552CF48D8A8CF","019cefa9-a2eb-7c7d-b64f-58422f783dea","019cef87-c56d-7b55-9135-c5814367ec25","","463","
                <div class=""stimulus-container"">
                    <img src=""images/schematic_sequence/hotel_scheme/hotel_scheme_3.png"" class=""exp-image"">
                    <div class=""question-area"">
                        <p style=""font-size: 20px; font-weight: bold; margin: 0;"">Is there a person in this image?</p>
                    </div>
                </div>","0","main_experiment_trial","3","hotel_scheme","schematic_sequence","","","",""
"","","","","","html-keyboard-response","86","403534","0.0-86.0","BED4B84F921E449BB16552CF48D8A8CF","019cefa9-a2eb-7c7d-b64f-58422f783dea","019cef87-c56d-7b55-9135-c5814367ec25","","null","
                <div class=""stimulus-container"">
                    <img src=""images/schematic_sequence/hotel_scheme/hotel_scheme_4.png"" class=""exp-image"">
                    <div class=""question-area""></div> 
                </div>","null","","","","","","","",""
"","","","","","html-button-response","87","404283","0.0-87.0","BED4B84F921E449BB16552CF48D8A8CF","019cefa9-a2eb-7c7d-b64f-58422f783dea","019cef87-c56d-7b55-9135-c5814367ec25","","748","
                <div class=""stimulus-container"">
                    <img src=""images/schematic_sequence/hotel_scheme/hotel_scheme_4.png"" class=""exp-image"">
                    <div class=""question-area"">
                        <p style=""font-size: 20px; font-weight: bold; margin: 0;"">Is there a person in this image?</p>
                    </div>
                </div>","1","main_experiment_trial","4","hotel_scheme","schematic_sequence","","","",""
"","","","","","html-keyboard-response","88","409285","0.0-88.0","BED4B84F921E449BB16552CF48D8A8CF","019cefa9-a2eb-7c7d-b64f-58422f783dea","019cef87-c56d-7b55-9135-c5814367ec25","","null","
                <div class=""stimulus-container"">
                    <img src=""images/schematic_sequence/hotel_scheme/hotel_scheme_5.png"" class=""exp-image"">
                    <div class=""question-area""></div> 
                </div>","null","","","","","","","",""
"","","","","","html-button-response","89","409866","0.0-89.0","BED4B84F921E449BB16552CF48D8A8CF","019cefa9-a2eb-7c7d-b64f-58422f783dea","019cef87-c56d-7b55-9135-c5814367ec25","","580","
                <div class=""stimulus-container"">
                    <img src=""images/schematic_sequence/hotel_scheme/hotel_scheme_5.png"" class=""exp-image"">
                    <div class=""question-area"">
                        <p style=""font-size: 20px; font-weight: bold; margin: 0;"">Is there a person in this image?</p>
                    </div>
                </div>","0","main_experiment_trial","5","hotel_scheme","schematic_sequence","","","",""
"","","","","","html-keyboard-response","90","414868","0.0-90.0","BED4B84F921E449BB16552CF48D8A8CF","019cefa9-a2eb-7c7d-b64f-58422f783dea","019cef87-c56d-7b55-9135-c5814367ec25","","null","
                <div class=""stimulus-container"">
                    <img src=""images/schematic_sequence/hotel_scheme/hotel_scheme_6.png"" class=""exp-image"">
                    <div class=""question-area""></div> 
                </div>","null","","","","","","","",""
"","","","","","html-button-response","91","415533","0.0-91.0","BED4B84F921E449BB16552CF48D8A8CF","019cefa9-a2eb-7c7d-b64f-58422f783dea","019cef87-c56d-7b55-9135-c5814367ec25","","664","
                <div class=""stimulus-container"">
                    <img src=""images/schematic_sequence/hotel_scheme/hotel_scheme_6.png"" class=""exp-image"">
                    <div class=""question-area"">
                        <p style=""font-size: 20px; font-weight: bold; margin: 0;"">Is there a person in this image?</p>
                    </div>
                </div>","0","main_experiment_trial","6","hotel_scheme","schematic_sequence","","","",""
"","","","","","html-keyboard-response","92","420535","0.0-92.0","BED4B84F921E449BB16552CF48D8A8CF","019cefa9-a2eb-7c7d-b64f-58422f783dea","019cef87-c56d-7b55-9135-c5814367ec25","","null","
                <div class=""stimulus-container"">
                    <img src=""images/schematic_sequence/hotel_scheme/hotel_scheme_7.png"" class=""exp-image"">
                    <div class=""question-area""></div> 
                </div>","null","","","","","","","",""
"","","","","","html-button-response","93","421099","0.0-93.0","BED4B84F921E449BB16552CF48D8A8CF","019cefa9-a2eb-7c7d-b64f-58422f783dea","019cef87-c56d-7b55-9135-c5814367ec25","","563","
                <div class=""stimulus-container"">
                    <img src=""images/schematic_sequence/hotel_scheme/hotel_scheme_7.png"" class=""exp-image"">
                    <div class=""question-area"">
                        <p style=""font-size: 20px; font-weight: bold; margin: 0;"">Is there a person in this image?</p>
                    </div>
                </div>","0","main_experiment_trial","7","hotel_scheme","schematic_sequence","","","",""
"","","","","","html-keyboard-response","94","426101","0.0-94.0","BED4B84F921E449BB16552CF48D8A8CF","019cefa9-a2eb-7c7d-b64f-58422f783dea","019cef87-c56d-7b55-9135-c5814367ec25","","null","
                <div class=""stimulus-container"">
                    <img src=""images/schematic_sequence/hotel_scheme/hotel_scheme_8.png"" class=""exp-image"">
                    <div class=""question-area""></div> 
                </div>","null","","","","","","","",""
"","","","","","html-button-response","95","426766","0.0-95.0","BED4B84F921E449BB16552CF48D8A8CF","019cefa9-a2eb-7c7d-b64f-58422f783dea","019cef87-c56d-7b55-9135-c5814367ec25","","664","
                <div class=""stimulus-container"">
                    <img src=""images/schematic_sequence/hotel_scheme/hotel_scheme_8.png"" class=""exp-image"">
                    <div class=""question-area"">
                        <p style=""font-size: 20px; font-weight: bold; margin: 0;"">Is there a person in this image?</p>
                    </div>
                </div>","0","main_experiment_trial","8","hotel_scheme","schematic_sequence","","","",""
"","","","","","html-keyboard-response","96","431768","0.0-96.0","BED4B84F921E449BB16552CF48D8A8CF","019cefa9-a2eb-7c7d-b64f-58422f783dea","019cef87-c56d-7b55-9135-c5814367ec25","","null","
                <div class=""stimulus-container"">
                    <img src=""images/schematic_sequence/hotel_scheme/hotel_scheme_9.png"" class=""exp-image"">
                    <div class=""question-area""></div> 
                </div>","null","","","","","","","",""
"","","","","","html-button-response","97","432515","0.0-97.0","BED4B84F921E449BB16552CF48D8A8CF","019cefa9-a2eb-7c7d-b64f-58422f783dea","019cef87-c56d-7b55-9135-c5814367ec25","","746","
                <div class=""stimulus-container"">
                    <img src=""images/schematic_sequence/hotel_scheme/hotel_scheme_9.png"" class=""exp-image"">
                    <div class=""question-area"">
                        <p style=""font-size: 20px; font-weight: bold; margin: 0;"">Is there a person in this image?</p>
                    </div>
                </div>","0","main_experiment_trial","9","hotel_scheme","schematic_sequence","","","",""
"","","","","","html-keyboard-response","98","437517","0.0-98.0","BED4B84F921E449BB16552CF48D8A8CF","019cefa9-a2eb-7c7d-b64f-58422f783dea","019cef87-c56d-7b55-9135-c5814367ec25","","null","
                <div class=""stimulus-container"">
                    <img src=""images/schematic_sequence/hotel_scheme/hotel_scheme_ten.png"" class=""exp-image"">
                    <div class=""question-area""></div> 
                </div>","null","","","","","","","",""
"","","","","","html-button-response","99","438033","0.0-99.0","BED4B84F921E449BB16552CF48D8A8CF","019cefa9-a2eb-7c7d-b64f-58422f783dea","019cef87-c56d-7b55-9135-c5814367ec25","","515","
                <div class=""stimulus-container"">
                    <img src=""images/schematic_sequence/hotel_scheme/hotel_scheme_ten.png"" class=""exp-image"">
                    <div class=""question-area"">
                        <p style=""font-size: 20px; font-weight: bold; margin: 0;"">Is there a person in this image?</p>
                    </div>
                </div>","0","main_experiment_trial","ten","hotel_scheme","schematic_sequence","","","",""
"","","","","","html-keyboard-response","100","439035","0.0-100.0","BED4B84F921E449BB16552CF48D8A8CF","019cefa9-a2eb-7c7d-b64f-58422f783dea","019cef87-c56d-7b55-9135-c5814367ec25","","null","<div style=""background-color: white; width: 100vw; height: 100vh;""></div>","null","","","","","","","",""
"","","","","","html-keyboard-response","101","444037","0.0-101.0","BED4B84F921E449BB16552CF48D8A8CF","019cefa9-a2eb-7c7d-b64f-58422f783dea","019cef87-c56d-7b55-9135-c5814367ec25","","null","
                <div class=""stimulus-container"">
                    <img src=""images/schematic_sequence/restaurant_scheme/restaurant_scheme_1.png"" class=""exp-image"">
                    <div class=""question-area""></div> 
                </div>","null","","","","","","","",""
"","","","","","html-button-response","102","444499","0.0-102.0","BED4B84F921E449BB16552CF48D8A8CF","019cefa9-a2eb-7c7d-b64f-58422f783dea","019cef87-c56d-7b55-9135-c5814367ec25","","461","
                <div class=""stimulus-container"">
                    <img src=""images/schematic_sequence/restaurant_scheme/restaurant_scheme_1.png"" class=""exp-image"">
                    <div class=""question-area"">
                        <p style=""font-size: 20px; font-weight: bold; margin: 0;"">Is there a person in this image?</p>
                    </div>
                </div>","0","main_experiment_trial","1","restaurant_scheme","schematic_sequence","","","",""
"","","","","","html-keyboard-response","103","449500","0.0-103.0","BED4B84F921E449BB16552CF48D8A8CF","019cefa9-a2eb-7c7d-b64f-58422f783dea","019cef87-c56d-7b55-9135-c5814367ec25","","null","
                <div class=""stimulus-container"">
                    <img src=""images/schematic_sequence/restaurant_scheme/restaurant_scheme_2.png"" class=""exp-image"">
                    <div class=""question-area""></div> 
                </div>","null","","","","","","","",""
"","","","","","html-button-response","104","450133","0.0-104.0","BED4B84F921E449BB16552CF48D8A8CF","019cefa9-a2eb-7c7d-b64f-58422f783dea","019cef87-c56d-7b55-9135-c5814367ec25","","632","
                <div class=""stimulus-container"">
                    <img src=""images/schematic_sequence/restaurant_scheme/restaurant_scheme_2.png"" class=""exp-image"">
                    <div class=""question-area"">
                        <p style=""font-size: 20px; font-weight: bold; margin: 0;"">Is there a person in this image?</p>
                    </div>
                </div>","1","main_experiment_trial","2","restaurant_scheme","schematic_sequence","","","",""
"","","","","","html-keyboard-response","105","455135","0.0-105.0","BED4B84F921E449BB16552CF48D8A8CF","019cefa9-a2eb-7c7d-b64f-58422f783dea","019cef87-c56d-7b55-9135-c5814367ec25","","null","
                <div class=""stimulus-container"">
                    <img src=""images/schematic_sequence/restaurant_scheme/restaurant_scheme_3.png"" class=""exp-image"">
                    <div class=""question-area""></div> 
                </div>","null","","","","","","","",""
"","","","","","html-button-response","106","455816","0.0-106.0","BED4B84F921E449BB16552CF48D8A8CF","019cefa9-a2eb-7c7d-b64f-58422f783dea","019cef87-c56d-7b55-9135-c5814367ec25","","680","
                <div class=""stimulus-container"">
                    <img src=""images/schematic_sequence/restaurant_scheme/restaurant_scheme_3.png"" class=""exp-image"">
                    <div class=""question-area"">
                        <p style=""font-size: 20px; font-weight: bold; margin: 0;"">Is there a person in this image?</p>
                    </div>
                </div>","1","main_experiment_trial","3","restaurant_scheme","schematic_sequence","","","",""
"","","","","","html-keyboard-response","107","460818","0.0-107.0","BED4B84F921E449BB16552CF48D8A8CF","019cefa9-a2eb-7c7d-b64f-58422f783dea","019cef87-c56d-7b55-9135-c5814367ec25","","null","
                <div class=""stimulus-container"">
                    <img src=""images/schematic_sequence/restaurant_scheme/restaurant_scheme_4.png"" class=""exp-image"">
                    <div class=""question-area""></div> 
                </div>","null","","","","","","","",""
"","","","","","html-button-response","108","461499","0.0-108.0","BED4B84F921E449BB16552CF48D8A8CF","019cefa9-a2eb-7c7d-b64f-58422f783dea","019cef87-c56d-7b55-9135-c5814367ec25","","680","
                <div class=""stimulus-container"">
                    <img src=""images/schematic_sequence/restaurant_scheme/restaurant_scheme_4.png"" class=""exp-image"">
                    <div class=""question-area"">
                        <p style=""font-size: 20px; font-weight: bold; margin: 0;"">Is there a person in this image?</p>
                    </div>
                </div>","0","main_experiment_trial","4","restaurant_scheme","schematic_sequence","","","",""
"","","","","","html-keyboard-response","109","466503","0.0-109.0","BED4B84F921E449BB16552CF48D8A8CF","019cefa9-a2eb-7c7d-b64f-58422f783dea","019cef87-c56d-7b55-9135-c5814367ec25","","null","
                <div class=""stimulus-container"">
                    <img src=""images/schematic_sequence/restaurant_scheme/restaurant_scheme_5.png"" class=""exp-image"">
                    <div class=""question-area""></div> 
                </div>","null","","","","","","","",""
"","","","","","html-button-response","110","467216","0.0-110.0","BED4B84F921E449BB16552CF48D8A8CF","019cefa9-a2eb-7c7d-b64f-58422f783dea","019cef87-c56d-7b55-9135-c5814367ec25","","712","
                <div class=""stimulus-container"">
                    <img src=""images/schematic_sequence/restaurant_scheme/restaurant_scheme_5.png"" class=""exp-image"">
                    <div class=""question-area"">
                        <p style=""font-size: 20px; font-weight: bold; margin: 0;"">Is there a person in this image?</p>
                    </div>
                </div>","0","main_experiment_trial","5","restaurant_scheme","schematic_sequence","","","",""
"","","","","","html-keyboard-response","111","472218","0.0-111.0","BED4B84F921E449BB16552CF48D8A8CF","019cefa9-a2eb-7c7d-b64f-58422f783dea","019cef87-c56d-7b55-9135-c5814367ec25","","null","
                <div class=""stimulus-container"">
                    <img src=""images/schematic_sequence/restaurant_scheme/restaurant_scheme_6.png"" class=""exp-image"">
                    <div class=""question-area""></div> 
                </div>","null","","","","","","","",""
"","","","","","html-button-response","112","473200","0.0-112.0","BED4B84F921E449BB16552CF48D8A8CF","019cefa9-a2eb-7c7d-b64f-58422f783dea","019cef87-c56d-7b55-9135-c5814367ec25","","980","
                <div class=""stimulus-container"">
                    <img src=""images/schematic_sequence/restaurant_scheme/restaurant_scheme_6.png"" class=""exp-image"">
                    <div class=""question-area"">
                        <p style=""font-size: 20px; font-weight: bold; margin: 0;"">Is there a person in this image?</p>
                    </div>
                </div>","1","main_experiment_trial","6","restaurant_scheme","schematic_sequence","","","",""
"","","","","","html-keyboard-response","113","478201","0.0-113.0","BED4B84F921E449BB16552CF48D8A8CF","019cefa9-a2eb-7c7d-b64f-58422f783dea","019cef87-c56d-7b55-9135-c5814367ec25","","null","
                <div class=""stimulus-container"">
                    <img src=""images/schematic_sequence/restaurant_scheme/restaurant_scheme_7.png"" class=""exp-image"">
                    <div class=""question-area""></div> 
                </div>","null","","","","","","","",""
"","","","","","html-button-response","114","478982","0.0-114.0","BED4B84F921E449BB16552CF48D8A8CF","019cefa9-a2eb-7c7d-b64f-58422f783dea","019cef87-c56d-7b55-9135-c5814367ec25","","780","
                <div class=""stimulus-container"">
                    <img src=""images/schematic_sequence/restaurant_scheme/restaurant_scheme_7.png"" class=""exp-image"">
                    <div class=""question-area"">
                        <p style=""font-size: 20px; font-weight: bold; margin: 0;"">Is there a person in this image?</p>
                    </div>
                </div>","1","main_experiment_trial","7","restaurant_scheme","schematic_sequence","","","",""
"","","","","","html-keyboard-response","115","483983","0.0-115.0","BED4B84F921E449BB16552CF48D8A8CF","019cefa9-a2eb-7c7d-b64f-58422f783dea","019cef87-c56d-7b55-9135-c5814367ec25","","null","
                <div class=""stimulus-container"">
                    <img src=""images/schematic_sequence/restaurant_scheme/restaurant_scheme_8.png"" class=""exp-image"">
                    <div class=""question-area""></div> 
                </div>","null","","","","","","","",""
"","","","","","html-button-response","116","484683","0.0-116.0","BED4B84F921E449BB16552CF48D8A8CF","019cefa9-a2eb-7c7d-b64f-58422f783dea","019cef87-c56d-7b55-9135-c5814367ec25","","698","
                <div class=""stimulus-container"">
                    <img src=""images/schematic_sequence/restaurant_scheme/restaurant_scheme_8.png"" class=""exp-image"">
                    <div class=""question-area"">
                        <p style=""font-size: 20px; font-weight: bold; margin: 0;"">Is there a person in this image?</p>
                    </div>
                </div>","0","main_experiment_trial","8","restaurant_scheme","schematic_sequence","","","",""
"","","","","","html-keyboard-response","117","489685","0.0-117.0","BED4B84F921E449BB16552CF48D8A8CF","019cefa9-a2eb-7c7d-b64f-58422f783dea","019cef87-c56d-7b55-9135-c5814367ec25","","null","
                <div class=""stimulus-container"">
                    <img src=""images/schematic_sequence/restaurant_scheme/restaurant_scheme_9.png"" class=""exp-image"">
                    <div class=""question-area""></div> 
                </div>","null","","","","","","","",""
"","","","","","html-button-response","118","490567","0.0-118.0","BED4B84F921E449BB16552CF48D8A8CF","019cefa9-a2eb-7c7d-b64f-58422f783dea","019cef87-c56d-7b55-9135-c5814367ec25","","880","
                <div class=""stimulus-container"">
                    <img src=""images/schematic_sequence/restaurant_scheme/restaurant_scheme_9.png"" class=""exp-image"">
                    <div class=""question-area"">
                        <p style=""font-size: 20px; font-weight: bold; margin: 0;"">Is there a person in this image?</p>
                    </div>
                </div>","0","main_experiment_trial","9","restaurant_scheme","schematic_sequence","","","",""
"","","","","","html-keyboard-response","119","495568","0.0-119.0","BED4B84F921E449BB16552CF48D8A8CF","019cefa9-a2eb-7c7d-b64f-58422f783dea","019cef87-c56d-7b55-9135-c5814367ec25","","null","
                <div class=""stimulus-container"">
                    <img src=""images/schematic_sequence/restaurant_scheme/restaurant_scheme_ten.png"" class=""exp-image"">
                    <div class=""question-area""></div> 
                </div>","null","","","","","","","",""
"","","","","","html-button-response","120","496167","0.0-120.0","BED4B84F921E449BB16552CF48D8A8CF","019cefa9-a2eb-7c7d-b64f-58422f783dea","019cef87-c56d-7b55-9135-c5814367ec25","","596","
                <div class=""stimulus-container"">
                    <img src=""images/schematic_sequence/restaurant_scheme/restaurant_scheme_ten.png"" class=""exp-image"">
                    <div class=""question-area"">
                        <p style=""font-size: 20px; font-weight: bold; margin: 0;"">Is there a person in this image?</p>
                    </div>
                </div>","0","main_experiment_trial","ten","restaurant_scheme","schematic_sequence","","","",""
"","","","","","html-keyboard-response","121","497169","0.0-121.0","BED4B84F921E449BB16552CF48D8A8CF","019cefa9-a2eb-7c7d-b64f-58422f783dea","019cef87-c56d-7b55-9135-c5814367ec25","","null","<div style=""background-color: white; width: 100vw; height: 100vh;""></div>","null","","","","","","","",""
"","","","","","html-keyboard-response","122","502171","0.0-122.0","BED4B84F921E449BB16552CF48D8A8CF","019cefa9-a2eb-7c7d-b64f-58422f783dea","019cef87-c56d-7b55-9135-c5814367ec25","","null","
                <div class=""stimulus-container"">
                    <img src=""images/schematic_sequence/supermarket_scheme/supermarket_scheme_1.png"" class=""exp-image"">
                    <div class=""question-area""></div> 
                </div>","null","","","","","","","",""
"","","","","","html-button-response","123","502933","0.0-123.0","BED4B84F921E449BB16552CF48D8A8CF","019cefa9-a2eb-7c7d-b64f-58422f783dea","019cef87-c56d-7b55-9135-c5814367ec25","","761","
                <div class=""stimulus-container"">
                    <img src=""images/schematic_sequence/supermarket_scheme/supermarket_scheme_1.png"" class=""exp-image"">
                    <div class=""question-area"">
                        <p style=""font-size: 20px; font-weight: bold; margin: 0;"">Is there a person in this image?</p>
                    </div>
                </div>","1","main_experiment_trial","1","supermarket_scheme","schematic_sequence","","","",""
"","","","","","html-keyboard-response","124","507935","0.0-124.0","BED4B84F921E449BB16552CF48D8A8CF","019cefa9-a2eb-7c7d-b64f-58422f783dea","019cef87-c56d-7b55-9135-c5814367ec25","","null","
                <div class=""stimulus-container"">
                    <img src=""images/schematic_sequence/supermarket_scheme/supermarket_scheme_2.png"" class=""exp-image"">
                    <div class=""question-area""></div> 
                </div>","null","","","","","","","",""
"","","","","","html-button-response","125","508600","0.0-125.0","BED4B84F921E449BB16552CF48D8A8CF","019cefa9-a2eb-7c7d-b64f-58422f783dea","019cef87-c56d-7b55-9135-c5814367ec25","","663","
                <div class=""stimulus-container"">
                    <img src=""images/schematic_sequence/supermarket_scheme/supermarket_scheme_2.png"" class=""exp-image"">
                    <div class=""question-area"">
                        <p style=""font-size: 20px; font-weight: bold; margin: 0;"">Is there a person in this image?</p>
                    </div>
                </div>","1","main_experiment_trial","2","supermarket_scheme","schematic_sequence","","","",""
"","","","","","html-keyboard-response","126","513602","0.0-126.0","BED4B84F921E449BB16552CF48D8A8CF","019cefa9-a2eb-7c7d-b64f-58422f783dea","019cef87-c56d-7b55-9135-c5814367ec25","","null","
                <div class=""stimulus-container"">
                    <img src=""images/schematic_sequence/supermarket_scheme/supermarket_scheme_3.png"" class=""exp-image"">
                    <div class=""question-area""></div> 
                </div>","null","","","","","","","",""
"","","","","","html-button-response","127","514016","0.0-127.0","BED4B84F921E449BB16552CF48D8A8CF","019cefa9-a2eb-7c7d-b64f-58422f783dea","019cef87-c56d-7b55-9135-c5814367ec25","","413","
                <div class=""stimulus-container"">
                    <img src=""images/schematic_sequence/supermarket_scheme/supermarket_scheme_3.png"" class=""exp-image"">
                    <div class=""question-area"">
                        <p style=""font-size: 20px; font-weight: bold; margin: 0;"">Is there a person in this image?</p>
                    </div>
                </div>","1","main_experiment_trial","3","supermarket_scheme","schematic_sequence","","","",""
"","","","","","html-keyboard-response","128","519018","0.0-128.0","BED4B84F921E449BB16552CF48D8A8CF","019cefa9-a2eb-7c7d-b64f-58422f783dea","019cef87-c56d-7b55-9135-c5814367ec25","","null","
                <div class=""stimulus-container"">
                    <img src=""images/schematic_sequence/supermarket_scheme/supermarket_scheme_4.png"" class=""exp-image"">
                    <div class=""question-area""></div> 
                </div>","null","","","","","","","",""
"","","","","","html-button-response","129","519583","0.0-129.0","BED4B84F921E449BB16552CF48D8A8CF","019cefa9-a2eb-7c7d-b64f-58422f783dea","019cef87-c56d-7b55-9135-c5814367ec25","","564","
                <div class=""stimulus-container"">
                    <img src=""images/schematic_sequence/supermarket_scheme/supermarket_scheme_4.png"" class=""exp-image"">
                    <div class=""question-area"">
                        <p style=""font-size: 20px; font-weight: bold; margin: 0;"">Is there a person in this image?</p>
                    </div>
                </div>","0","main_experiment_trial","4","supermarket_scheme","schematic_sequence","","","",""
"","","","","","html-keyboard-response","130","524585","0.0-130.0","BED4B84F921E449BB16552CF48D8A8CF","019cefa9-a2eb-7c7d-b64f-58422f783dea","019cef87-c56d-7b55-9135-c5814367ec25","","null","
                <div class=""stimulus-container"">
                    <img src=""images/schematic_sequence/supermarket_scheme/supermarket_scheme_5.png"" class=""exp-image"">
                    <div class=""question-area""></div> 
                </div>","null","","","","","","","",""
"","","","","","html-button-response","131","525049","0.0-131.0","BED4B84F921E449BB16552CF48D8A8CF","019cefa9-a2eb-7c7d-b64f-58422f783dea","019cef87-c56d-7b55-9135-c5814367ec25","","463","
                <div class=""stimulus-container"">
                    <img src=""images/schematic_sequence/supermarket_scheme/supermarket_scheme_5.png"" class=""exp-image"">
                    <div class=""question-area"">
                        <p style=""font-size: 20px; font-weight: bold; margin: 0;"">Is there a person in this image?</p>
                    </div>
                </div>","1","main_experiment_trial","5","supermarket_scheme","schematic_sequence","","","",""
"","","","","","html-keyboard-response","132","530051","0.0-132.0","BED4B84F921E449BB16552CF48D8A8CF","019cefa9-a2eb-7c7d-b64f-58422f783dea","019cef87-c56d-7b55-9135-c5814367ec25","","null","
                <div class=""stimulus-container"">
                    <img src=""images/schematic_sequence/supermarket_scheme/supermarket_scheme_6.png"" class=""exp-image"">
                    <div class=""question-area""></div> 
                </div>","null","","","","","","","",""
"","","","","","html-button-response","133","530500","0.0-133.0","BED4B84F921E449BB16552CF48D8A8CF","019cefa9-a2eb-7c7d-b64f-58422f783dea","019cef87-c56d-7b55-9135-c5814367ec25","","447","
                <div class=""stimulus-container"">
                    <img src=""images/schematic_sequence/supermarket_scheme/supermarket_scheme_6.png"" class=""exp-image"">
                    <div class=""question-area"">
                        <p style=""font-size: 20px; font-weight: bold; margin: 0;"">Is there a person in this image?</p>
                    </div>
                </div>","0","main_experiment_trial","6","supermarket_scheme","schematic_sequence","","","",""
"","","","","","html-keyboard-response","134","535502","0.0-134.0","BED4B84F921E449BB16552CF48D8A8CF","019cefa9-a2eb-7c7d-b64f-58422f783dea","019cef87-c56d-7b55-9135-c5814367ec25","","null","
                <div class=""stimulus-container"">
                    <img src=""images/schematic_sequence/supermarket_scheme/supermarket_scheme_7.png"" class=""exp-image"">
                    <div class=""question-area""></div> 
                </div>","null","","","","","","","",""
"","","","","","html-button-response","135","535966","0.0-135.0","BED4B84F921E449BB16552CF48D8A8CF","019cefa9-a2eb-7c7d-b64f-58422f783dea","019cef87-c56d-7b55-9135-c5814367ec25","","462","
                <div class=""stimulus-container"">
                    <img src=""images/schematic_sequence/supermarket_scheme/supermarket_scheme_7.png"" class=""exp-image"">
                    <div class=""question-area"">
                        <p style=""font-size: 20px; font-weight: bold; margin: 0;"">Is there a person in this image?</p>
                    </div>
                </div>","0","main_experiment_trial","7","supermarket_scheme","schematic_sequence","","","",""
"","","","","","html-keyboard-response","136","540969","0.0-136.0","BED4B84F921E449BB16552CF48D8A8CF","019cefa9-a2eb-7c7d-b64f-58422f783dea","019cef87-c56d-7b55-9135-c5814367ec25","","null","
                <div class=""stimulus-container"">
                    <img src=""images/schematic_sequence/supermarket_scheme/supermarket_scheme_8.png"" class=""exp-image"">
                    <div class=""question-area""></div> 
                </div>","null","","","","","","","",""
"","","","","","html-button-response","137","541383","0.0-137.0","BED4B84F921E449BB16552CF48D8A8CF","019cefa9-a2eb-7c7d-b64f-58422f783dea","019cef87-c56d-7b55-9135-c5814367ec25","","413","
                <div class=""stimulus-container"">
                    <img src=""images/schematic_sequence/supermarket_scheme/supermarket_scheme_8.png"" class=""exp-image"">
                    <div class=""question-area"">
                        <p style=""font-size: 20px; font-weight: bold; margin: 0;"">Is there a person in this image?</p>
                    </div>
                </div>","0","main_experiment_trial","8","supermarket_scheme","schematic_sequence","","","",""
"","","","","","html-keyboard-response","138","546385","0.0-138.0","BED4B84F921E449BB16552CF48D8A8CF","019cefa9-a2eb-7c7d-b64f-58422f783dea","019cef87-c56d-7b55-9135-c5814367ec25","","null","
                <div class=""stimulus-container"">
                    <img src=""images/schematic_sequence/supermarket_scheme/supermarket_scheme_9.png"" class=""exp-image"">
                    <div class=""question-area""></div> 
                </div>","null","","","","","","","",""
"","","","","","html-button-response","139","546782","0.0-139.0","BED4B84F921E449BB16552CF48D8A8CF","019cefa9-a2eb-7c7d-b64f-58422f783dea","019cef87-c56d-7b55-9135-c5814367ec25","","396","
                <div class=""stimulus-container"">
                    <img src=""images/schematic_sequence/supermarket_scheme/supermarket_scheme_9.png"" class=""exp-image"">
                    <div class=""question-area"">
                        <p style=""font-size: 20px; font-weight: bold; margin: 0;"">Is there a person in this image?</p>
                    </div>
                </div>","0","main_experiment_trial","9","supermarket_scheme","schematic_sequence","","","",""
"","","","","","html-keyboard-response","140","551785","0.0-140.0","BED4B84F921E449BB16552CF48D8A8CF","019cefa9-a2eb-7c7d-b64f-58422f783dea","019cef87-c56d-7b55-9135-c5814367ec25","","null","
                <div class=""stimulus-container"">
                    <img src=""images/schematic_sequence/supermarket_scheme/supermarket_scheme_ten.png"" class=""exp-image"">
                    <div class=""question-area""></div> 
                </div>","null","","","","","","","",""
"","","","","","html-button-response","141","552200","0.0-141.0","BED4B84F921E449BB16552CF48D8A8CF","019cefa9-a2eb-7c7d-b64f-58422f783dea","019cef87-c56d-7b55-9135-c5814367ec25","","414","
                <div class=""stimulus-container"">
                    <img src=""images/schematic_sequence/supermarket_scheme/supermarket_scheme_ten.png"" class=""exp-image"">
                    <div class=""question-area"">
                        <p style=""font-size: 20px; font-weight: bold; margin: 0;"">Is there a person in this image?</p>
                    </div>
                </div>","1","main_experiment_trial","ten","supermarket_scheme","schematic_sequence","","","",""
"","","","","","html-keyboard-response","142","553202","0.0-142.0","BED4B84F921E449BB16552CF48D8A8CF","019cefa9-a2eb-7c7d-b64f-58422f783dea","019cef87-c56d-7b55-9135-c5814367ec25","","null","<div style=""background-color: white; width: 100vw; height: 100vh;""></div>","null","","","","","","","",""
"","","","","","html-keyboard-response","143","558204","0.0-143.0","BED4B84F921E449BB16552CF48D8A8CF","019cefa9-a2eb-7c7d-b64f-58422f783dea","019cef87-c56d-7b55-9135-c5814367ec25","","null","
                <div class=""stimulus-container"">
                    <img src=""images/schematic_sequence/dinner_party_scheme/dinner_party_scheme_1.png"" class=""exp-image"">
                    <div class=""question-area""></div> 
                </div>","null","","","","","","","",""
"","","","","","html-button-response","144","559067","0.0-144.0","BED4B84F921E449BB16552CF48D8A8CF","019cefa9-a2eb-7c7d-b64f-58422f783dea","019cef87-c56d-7b55-9135-c5814367ec25","","860","
                <div class=""stimulus-container"">
                    <img src=""images/schematic_sequence/dinner_party_scheme/dinner_party_scheme_1.png"" class=""exp-image"">
                    <div class=""question-area"">
                        <p style=""font-size: 20px; font-weight: bold; margin: 0;"">Is there a person in this image?</p>
                    </div>
                </div>","0","main_experiment_trial","1","dinner_party_scheme","schematic_sequence","","","",""
"","","","","","html-keyboard-response","145","564069","0.0-145.0","BED4B84F921E449BB16552CF48D8A8CF","019cefa9-a2eb-7c7d-b64f-58422f783dea","019cef87-c56d-7b55-9135-c5814367ec25","","null","
                <div class=""stimulus-container"">
                    <img src=""images/schematic_sequence/dinner_party_scheme/dinner_party_scheme_2.png"" class=""exp-image"">
                    <div class=""question-area""></div> 
                </div>","null","","","","","","","",""
"","","","","","html-button-response","146","564550","0.0-146.0","BED4B84F921E449BB16552CF48D8A8CF","019cefa9-a2eb-7c7d-b64f-58422f783dea","019cef87-c56d-7b55-9135-c5814367ec25","","479","
                <div class=""stimulus-container"">
                    <img src=""images/schematic_sequence/dinner_party_scheme/dinner_party_scheme_2.png"" class=""exp-image"">
                    <div class=""question-area"">
                        <p style=""font-size: 20px; font-weight: bold; margin: 0;"">Is there a person in this image?</p>
                    </div>
                </div>","0","main_experiment_trial","2","dinner_party_scheme","schematic_sequence","","","",""
"","","","","","html-keyboard-response","147","569551","0.0-147.0","BED4B84F921E449BB16552CF48D8A8CF","019cefa9-a2eb-7c7d-b64f-58422f783dea","019cef87-c56d-7b55-9135-c5814367ec25","","null","
                <div class=""stimulus-container"">
                    <img src=""images/schematic_sequence/dinner_party_scheme/dinner_party_scheme_3.png"" class=""exp-image"">
                    <div class=""question-area""></div> 
                </div>","null","","","","","","","",""
"","","","","","html-button-response","148","570032","0.0-148.0","BED4B84F921E449BB16552CF48D8A8CF","019cefa9-a2eb-7c7d-b64f-58422f783dea","019cef87-c56d-7b55-9135-c5814367ec25","","479","
                <div class=""stimulus-container"">
                    <img src=""images/schematic_sequence/dinner_party_scheme/dinner_party_scheme_3.png"" class=""exp-image"">
                    <div class=""question-area"">
                        <p style=""font-size: 20px; font-weight: bold; margin: 0;"">Is there a person in this image?</p>
                    </div>
                </div>","0","main_experiment_trial","3","dinner_party_scheme","schematic_sequence","","","",""
"","","","","","html-keyboard-response","149","575034","0.0-149.0","BED4B84F921E449BB16552CF48D8A8CF","019cefa9-a2eb-7c7d-b64f-58422f783dea","019cef87-c56d-7b55-9135-c5814367ec25","","null","
                <div class=""stimulus-container"">
                    <img src=""images/schematic_sequence/dinner_party_scheme/dinner_party_scheme_4.png"" class=""exp-image"">
                    <div class=""question-area""></div> 
                </div>","null","","","","","","","",""
"","","","","","html-button-response","150","575550","0.0-150.0","BED4B84F921E449BB16552CF48D8A8CF","019cefa9-a2eb-7c7d-b64f-58422f783dea","019cef87-c56d-7b55-9135-c5814367ec25","","513","
                <div class=""stimulus-container"">
                    <img src=""images/schematic_sequence/dinner_party_scheme/dinner_party_scheme_4.png"" class=""exp-image"">
                    <div class=""question-area"">
                        <p style=""font-size: 20px; font-weight: bold; margin: 0;"">Is there a person in this image?</p>
                    </div>
                </div>","0","main_experiment_trial","4","dinner_party_scheme","schematic_sequence","","","",""
"","","","","","html-keyboard-response","151","580552","0.0-151.0","BED4B84F921E449BB16552CF48D8A8CF","019cefa9-a2eb-7c7d-b64f-58422f783dea","019cef87-c56d-7b55-9135-c5814367ec25","","null","
                <div class=""stimulus-container"">
                    <img src=""images/schematic_sequence/dinner_party_scheme/dinner_party_scheme_5.png"" class=""exp-image"">
                    <div class=""question-area""></div> 
                </div>","null","","","","","","","",""
"","","","","","html-button-response","152","580983","0.0-152.0","BED4B84F921E449BB16552CF48D8A8CF","019cefa9-a2eb-7c7d-b64f-58422f783dea","019cef87-c56d-7b55-9135-c5814367ec25","","429","
                <div class=""stimulus-container"">
                    <img src=""images/schematic_sequence/dinner_party_scheme/dinner_party_scheme_5.png"" class=""exp-image"">
                    <div class=""question-area"">
                        <p style=""font-size: 20px; font-weight: bold; margin: 0;"">Is there a person in this image?</p>
                    </div>
                </div>","0","main_experiment_trial","5","dinner_party_scheme","schematic_sequence","","","",""
"","","","","","html-keyboard-response","153","585986","0.0-153.0","BED4B84F921E449BB16552CF48D8A8CF","019cefa9-a2eb-7c7d-b64f-58422f783dea","019cef87-c56d-7b55-9135-c5814367ec25","","null","
                <div class=""stimulus-container"">
                    <img src=""images/schematic_sequence/dinner_party_scheme/dinner_party_scheme_6.png"" class=""exp-image"">
                    <div class=""question-area""></div> 
                </div>","null","","","","","","","",""
"","","","","","html-button-response","154","586533","0.0-154.0","BED4B84F921E449BB16552CF48D8A8CF","019cefa9-a2eb-7c7d-b64f-58422f783dea","019cef87-c56d-7b55-9135-c5814367ec25","","546","
                <div class=""stimulus-container"">
                    <img src=""images/schematic_sequence/dinner_party_scheme/dinner_party_scheme_6.png"" class=""exp-image"">
                    <div class=""question-area"">
                        <p style=""font-size: 20px; font-weight: bold; margin: 0;"">Is there a person in this image?</p>
                    </div>
                </div>","0","main_experiment_trial","6","dinner_party_scheme","schematic_sequence","","","",""
"","","","","","html-keyboard-response","155","591535","0.0-155.0","BED4B84F921E449BB16552CF48D8A8CF","019cefa9-a2eb-7c7d-b64f-58422f783dea","019cef87-c56d-7b55-9135-c5814367ec25","","null","
                <div class=""stimulus-container"">
                    <img src=""images/schematic_sequence/dinner_party_scheme/dinner_party_scheme_7.png"" class=""exp-image"">
                    <div class=""question-area""></div> 
                </div>","null","","","","","","","",""
"","","","","","html-button-response","156","592049","0.0-156.0","BED4B84F921E449BB16552CF48D8A8CF","019cefa9-a2eb-7c7d-b64f-58422f783dea","019cef87-c56d-7b55-9135-c5814367ec25","","512","
                <div class=""stimulus-container"">
                    <img src=""images/schematic_sequence/dinner_party_scheme/dinner_party_scheme_7.png"" class=""exp-image"">
                    <div class=""question-area"">
                        <p style=""font-size: 20px; font-weight: bold; margin: 0;"">Is there a person in this image?</p>
                    </div>
                </div>","0","main_experiment_trial","7","dinner_party_scheme","schematic_sequence","","","",""
"","","","","","html-keyboard-response","157","597051","0.0-157.0","BED4B84F921E449BB16552CF48D8A8CF","019cefa9-a2eb-7c7d-b64f-58422f783dea","019cef87-c56d-7b55-9135-c5814367ec25","","null","
                <div class=""stimulus-container"">
                    <img src=""images/schematic_sequence/dinner_party_scheme/dinner_party_scheme_8.png"" class=""exp-image"">
                    <div class=""question-area""></div> 
                </div>","null","","","","","","","",""
"","","","","","html-button-response","158","597533","0.0-158.0","BED4B84F921E449BB16552CF48D8A8CF","019cefa9-a2eb-7c7d-b64f-58422f783dea","019cef87-c56d-7b55-9135-c5814367ec25","","480","
                <div class=""stimulus-container"">
                    <img src=""images/schematic_sequence/dinner_party_scheme/dinner_party_scheme_8.png"" class=""exp-image"">
                    <div class=""question-area"">
                        <p style=""font-size: 20px; font-weight: bold; margin: 0;"">Is there a person in this image?</p>
                    </div>
                </div>","0","main_experiment_trial","8","dinner_party_scheme","schematic_sequence","","","",""
"","","","","","html-keyboard-response","159","602535","0.0-159.0","BED4B84F921E449BB16552CF48D8A8CF","019cefa9-a2eb-7c7d-b64f-58422f783dea","019cef87-c56d-7b55-9135-c5814367ec25","","null","
                <div class=""stimulus-container"">
                    <img src=""images/schematic_sequence/dinner_party_scheme/dinner_party_scheme_9.png"" class=""exp-image"">
                    <div class=""question-area""></div> 
                </div>","null","","","","","","","",""
"","","","","","html-button-response","160","603067","0.0-160.0","BED4B84F921E449BB16552CF48D8A8CF","019cefa9-a2eb-7c7d-b64f-58422f783dea","019cef87-c56d-7b55-9135-c5814367ec25","","529","
                <div class=""stimulus-container"">
                    <img src=""images/schematic_sequence/dinner_party_scheme/dinner_party_scheme_9.png"" class=""exp-image"">
                    <div class=""question-area"">
                        <p style=""font-size: 20px; font-weight: bold; margin: 0;"">Is there a person in this image?</p>
                    </div>
                </div>","0","main_experiment_trial","9","dinner_party_scheme","schematic_sequence","","","",""
"","","","","","html-keyboard-response","161","608069","0.0-161.0","BED4B84F921E449BB16552CF48D8A8CF","019cefa9-a2eb-7c7d-b64f-58422f783dea","019cef87-c56d-7b55-9135-c5814367ec25","","null","
                <div class=""stimulus-container"">
                    <img src=""images/schematic_sequence/dinner_party_scheme/dinner_party_scheme_ten.png"" class=""exp-image"">
                    <div class=""question-area""></div> 
                </div>","null","","","","","","","",""
"","","","","","html-button-response","162","608817","0.0-162.0","BED4B84F921E449BB16552CF48D8A8CF","019cefa9-a2eb-7c7d-b64f-58422f783dea","019cef87-c56d-7b55-9135-c5814367ec25","","747","
                <div class=""stimulus-container"">
                    <img src=""images/schematic_sequence/dinner_party_scheme/dinner_party_scheme_ten.png"" class=""exp-image"">
                    <div class=""question-area"">
                        <p style=""font-size: 20px; font-weight: bold; margin: 0;"">Is there a person in this image?</p>
                    </div>
                </div>","0","main_experiment_trial","ten","dinner_party_scheme","schematic_sequence","","","",""
"","","","","","html-keyboard-response","163","609819","0.0-163.0","BED4B84F921E449BB16552CF48D8A8CF","019cefa9-a2eb-7c7d-b64f-58422f783dea","019cef87-c56d-7b55-9135-c5814367ec25","","null","<div style=""background-color: white; width: 100vw; height: 100vh;""></div>","null","","","","","","","",""
"","","","","","html-keyboard-response","164","614821","0.0-164.0","BED4B84F921E449BB16552CF48D8A8CF","019cefa9-a2eb-7c7d-b64f-58422f783dea","019cef87-c56d-7b55-9135-c5814367ec25","","null","
                <div class=""stimulus-container"">
                    <img src=""images/causal_sequence/saving_a_cat_causal/saving_a_cat_causal_1.png"" class=""exp-image"">
                    <div class=""question-area""></div> 
                </div>","null","","","","","","","",""
"","","","","","html-button-response","165","615333","0.0-165.0","BED4B84F921E449BB16552CF48D8A8CF","019cefa9-a2eb-7c7d-b64f-58422f783dea","019cef87-c56d-7b55-9135-c5814367ec25","","511","
                <div class=""stimulus-container"">
                    <img src=""images/causal_sequence/saving_a_cat_causal/saving_a_cat_causal_1.png"" class=""exp-image"">
                    <div class=""question-area"">
                        <p style=""font-size: 20px; font-weight: bold; margin: 0;"">Is there a person in this image?</p>
                    </div>
                </div>","0","main_experiment_trial","1","saving_a_cat_causal","causal_sequence","","","",""
"","","","","","html-keyboard-response","166","620335","0.0-166.0","BED4B84F921E449BB16552CF48D8A8CF","019cefa9-a2eb-7c7d-b64f-58422f783dea","019cef87-c56d-7b55-9135-c5814367ec25","","null","
                <div class=""stimulus-container"">
                    <img src=""images/causal_sequence/saving_a_cat_causal/saving_a_cat_causal_2.png"" class=""exp-image"">
                    <div class=""question-area""></div> 
                </div>","null","","","","","","","",""
"","","","","","html-button-response","167","620950","0.0-167.0","BED4B84F921E449BB16552CF48D8A8CF","019cefa9-a2eb-7c7d-b64f-58422f783dea","019cef87-c56d-7b55-9135-c5814367ec25","","614","
                <div class=""stimulus-container"">
                    <img src=""images/causal_sequence/saving_a_cat_causal/saving_a_cat_causal_2.png"" class=""exp-image"">
                    <div class=""question-area"">
                        <p style=""font-size: 20px; font-weight: bold; margin: 0;"">Is there a person in this image?</p>
                    </div>
                </div>","1","main_experiment_trial","2","saving_a_cat_causal","causal_sequence","","","",""
"","","","","","html-keyboard-response","168","625952","0.0-168.0","BED4B84F921E449BB16552CF48D8A8CF","019cefa9-a2eb-7c7d-b64f-58422f783dea","019cef87-c56d-7b55-9135-c5814367ec25","","null","
                <div class=""stimulus-container"">
                    <img src=""images/causal_sequence/saving_a_cat_causal/saving_a_cat_causal_3.png"" class=""exp-image"">
                    <div class=""question-area""></div> 
                </div>","null","","","","","","","",""
"","","","","","html-button-response","169","626450","0.0-169.0","BED4B84F921E449BB16552CF48D8A8CF","019cefa9-a2eb-7c7d-b64f-58422f783dea","019cef87-c56d-7b55-9135-c5814367ec25","","497","
                <div class=""stimulus-container"">
                    <img src=""images/causal_sequence/saving_a_cat_causal/saving_a_cat_causal_3.png"" class=""exp-image"">
                    <div class=""question-area"">
                        <p style=""font-size: 20px; font-weight: bold; margin: 0;"">Is there a person in this image?</p>
                    </div>
                </div>","1","main_experiment_trial","3","saving_a_cat_causal","causal_sequence","","","",""
"","","","","","html-keyboard-response","170","631452","0.0-170.0","BED4B84F921E449BB16552CF48D8A8CF","019cefa9-a2eb-7c7d-b64f-58422f783dea","019cef87-c56d-7b55-9135-c5814367ec25","","null","
                <div class=""stimulus-container"">
                    <img src=""images/causal_sequence/saving_a_cat_causal/saving_a_cat_causal_4.png"" class=""exp-image"">
                    <div class=""question-area""></div> 
                </div>","null","","","","","","","",""
"","","","","","html-button-response","171","632066","0.0-171.0","BED4B84F921E449BB16552CF48D8A8CF","019cefa9-a2eb-7c7d-b64f-58422f783dea","019cef87-c56d-7b55-9135-c5814367ec25","","613","
                <div class=""stimulus-container"">
                    <img src=""images/causal_sequence/saving_a_cat_causal/saving_a_cat_causal_4.png"" class=""exp-image"">
                    <div class=""question-area"">
                        <p style=""font-size: 20px; font-weight: bold; margin: 0;"">Is there a person in this image?</p>
                    </div>
                </div>","0","main_experiment_trial","4","saving_a_cat_causal","causal_sequence","","","",""
"","","","","","html-keyboard-response","172","637068","0.0-172.0","BED4B84F921E449BB16552CF48D8A8CF","019cefa9-a2eb-7c7d-b64f-58422f783dea","019cef87-c56d-7b55-9135-c5814367ec25","","null","
                <div class=""stimulus-container"">
                    <img src=""images/causal_sequence/saving_a_cat_causal/saving_a_cat_causal_5.png"" class=""exp-image"">
                    <div class=""question-area""></div> 
                </div>","null","","","","","","","",""
"","","","","","html-button-response","173","637666","0.0-173.0","BED4B84F921E449BB16552CF48D8A8CF","019cefa9-a2eb-7c7d-b64f-58422f783dea","019cef87-c56d-7b55-9135-c5814367ec25","","596","
                <div class=""stimulus-container"">
                    <img src=""images/causal_sequence/saving_a_cat_causal/saving_a_cat_causal_5.png"" class=""exp-image"">
                    <div class=""question-area"">
                        <p style=""font-size: 20px; font-weight: bold; margin: 0;"">Is there a person in this image?</p>
                    </div>
                </div>","0","main_experiment_trial","5","saving_a_cat_causal","causal_sequence","","","",""
"","","","","","html-keyboard-response","174","642668","0.0-174.0","BED4B84F921E449BB16552CF48D8A8CF","019cefa9-a2eb-7c7d-b64f-58422f783dea","019cef87-c56d-7b55-9135-c5814367ec25","","null","
                <div class=""stimulus-container"">
                    <img src=""images/causal_sequence/saving_a_cat_causal/saving_a_cat_causal_6.png"" class=""exp-image"">
                    <div class=""question-area""></div> 
                </div>","null","","","","","","","",""
"","","","","","html-button-response","175","643167","0.0-175.0","BED4B84F921E449BB16552CF48D8A8CF","019cefa9-a2eb-7c7d-b64f-58422f783dea","019cef87-c56d-7b55-9135-c5814367ec25","","497","
                <div class=""stimulus-container"">
                    <img src=""images/causal_sequence/saving_a_cat_causal/saving_a_cat_causal_6.png"" class=""exp-image"">
                    <div class=""question-area"">
                        <p style=""font-size: 20px; font-weight: bold; margin: 0;"">Is there a person in this image?</p>
                    </div>
                </div>","0","main_experiment_trial","6","saving_a_cat_causal","causal_sequence","","","",""
"","","","","","html-keyboard-response","176","648169","0.0-176.0","BED4B84F921E449BB16552CF48D8A8CF","019cefa9-a2eb-7c7d-b64f-58422f783dea","019cef87-c56d-7b55-9135-c5814367ec25","","null","
                <div class=""stimulus-container"">
                    <img src=""images/causal_sequence/saving_a_cat_causal/saving_a_cat_causal_7.png"" class=""exp-image"">
                    <div class=""question-area""></div> 
                </div>","null","","","","","","","",""
"","","","","","html-button-response","177","648699","0.0-177.0","BED4B84F921E449BB16552CF48D8A8CF","019cefa9-a2eb-7c7d-b64f-58422f783dea","019cef87-c56d-7b55-9135-c5814367ec25","","529","
                <div class=""stimulus-container"">
                    <img src=""images/causal_sequence/saving_a_cat_causal/saving_a_cat_causal_7.png"" class=""exp-image"">
                    <div class=""question-area"">
                        <p style=""font-size: 20px; font-weight: bold; margin: 0;"">Is there a person in this image?</p>
                    </div>
                </div>","0","main_experiment_trial","7","saving_a_cat_causal","causal_sequence","","","",""
"","","","","","html-keyboard-response","178","653701","0.0-178.0","BED4B84F921E449BB16552CF48D8A8CF","019cefa9-a2eb-7c7d-b64f-58422f783dea","019cef87-c56d-7b55-9135-c5814367ec25","","null","
                <div class=""stimulus-container"">
                    <img src=""images/causal_sequence/saving_a_cat_causal/saving_a_cat_causal_8.png"" class=""exp-image"">
                    <div class=""question-area""></div> 
                </div>","null","","","","","","","",""
"","","","","","html-button-response","179","654167","0.0-179.0","BED4B84F921E449BB16552CF48D8A8CF","019cefa9-a2eb-7c7d-b64f-58422f783dea","019cef87-c56d-7b55-9135-c5814367ec25","","464","
                <div class=""stimulus-container"">
                    <img src=""images/causal_sequence/saving_a_cat_causal/saving_a_cat_causal_8.png"" class=""exp-image"">
                    <div class=""question-area"">
                        <p style=""font-size: 20px; font-weight: bold; margin: 0;"">Is there a person in this image?</p>
                    </div>
                </div>","0","main_experiment_trial","8","saving_a_cat_causal","causal_sequence","","","",""
"","","","","","html-keyboard-response","180","659170","0.0-180.0","BED4B84F921E449BB16552CF48D8A8CF","019cefa9-a2eb-7c7d-b64f-58422f783dea","019cef87-c56d-7b55-9135-c5814367ec25","","null","
                <div class=""stimulus-container"">
                    <img src=""images/causal_sequence/saving_a_cat_causal/saving_a_cat_causal_9.png"" class=""exp-image"">
                    <div class=""question-area""></div> 
                </div>","null","","","","","","","",""
"","","","","","html-button-response","181","659717","0.0-181.0","BED4B84F921E449BB16552CF48D8A8CF","019cefa9-a2eb-7c7d-b64f-58422f783dea","019cef87-c56d-7b55-9135-c5814367ec25","","546","
                <div class=""stimulus-container"">
                    <img src=""images/causal_sequence/saving_a_cat_causal/saving_a_cat_causal_9.png"" class=""exp-image"">
                    <div class=""question-area"">
                        <p style=""font-size: 20px; font-weight: bold; margin: 0;"">Is there a person in this image?</p>
                    </div>
                </div>","0","main_experiment_trial","9","saving_a_cat_causal","causal_sequence","","","",""
"","","","","","html-keyboard-response","182","664719","0.0-182.0","BED4B84F921E449BB16552CF48D8A8CF","019cefa9-a2eb-7c7d-b64f-58422f783dea","019cef87-c56d-7b55-9135-c5814367ec25","","null","
                <div class=""stimulus-container"">
                    <img src=""images/causal_sequence/saving_a_cat_causal/saving_a_cat_causal_ten.png"" class=""exp-image"">
                    <div class=""question-area""></div> 
                </div>","null","","","","","","","",""
"","","","","","html-button-response","183","665150","0.0-183.0","BED4B84F921E449BB16552CF48D8A8CF","019cefa9-a2eb-7c7d-b64f-58422f783dea","019cef87-c56d-7b55-9135-c5814367ec25","","429","
                <div class=""stimulus-container"">
                    <img src=""images/causal_sequence/saving_a_cat_causal/saving_a_cat_causal_ten.png"" class=""exp-image"">
                    <div class=""question-area"">
                        <p style=""font-size: 20px; font-weight: bold; margin: 0;"">Is there a person in this image?</p>
                    </div>
