"success","timeout","failed_images","failed_audio","failed_video","trial_type","trial_index","time_elapsed","internal_node_id","subject_id","study_id","session_id","view_history","rt","stimulus","response","task","image_index","folder","sequence_type","presentation_order","valuable_image_index","reward_type","distance_from_x","target_X","chosen_image_index","is_x_plus_dist","correct_choice"
"true","false","[]","[]","[]","preload","0","7261","0.0-0.0","BB4D2ACD4DAB45F5BAB68A472EB2E06C","019dac5c-02df-7bba-846d-50bff1bb4288","019dac5b-243f-7307-af64-a10f53f1ef70","","","","","","","","","","","","","","","",""
"","","","","","instructions","1","539550","0.0-1.0","BB4D2ACD4DAB45F5BAB68A472EB2E06C","019dac5c-02df-7bba-846d-50bff1bb4288","019dac5b-243f-7307-af64-a10f53f1ef70","[{""page_index"":0,""viewing_time"":532288}]","532289","","","","","","","","","","","","","",""
"","","","","","instructions","2","546114","0.0-2.0","BB4D2ACD4DAB45F5BAB68A472EB2E06C","019dac5c-02df-7bba-846d-50bff1bb4288","019dac5b-243f-7307-af64-a10f53f1ef70","[{""page_index"":0,""viewing_time"":6563}]","6563","","","","","","","","","","","","","",""
"true","","","","","fullscreen","3","549749","0.0-3.0","BB4D2ACD4DAB45F5BAB68A472EB2E06C","019dac5c-02df-7bba-846d-50bff1bb4288","019dac5b-243f-7307-af64-a10f53f1ef70","","2631","","","","","","","","","","","","","",""
"","","","","","instructions","4","618270","0.0-4.0","BB4D2ACD4DAB45F5BAB68A472EB2E06C","019dac5c-02df-7bba-846d-50bff1bb4288","019dac5b-243f-7307-af64-a10f53f1ef70","[{""page_index"":0,""viewing_time"":68521}]","68521","","","","","","","","","","","","","",""
"","","","","","instructions","5","628246","0.0-5.0","BB4D2ACD4DAB45F5BAB68A472EB2E06C","019dac5c-02df-7bba-846d-50bff1bb4288","019dac5b-243f-7307-af64-a10f53f1ef70","[{""page_index"":0,""viewing_time"":9975}]","9975","","","","","","","","","","","","","",""
"","","","","","html-keyboard-response","6","632259","0.0-6.0","BB4D2ACD4DAB45F5BAB68A472EB2E06C","019dac5c-02df-7bba-846d-50bff1bb4288","019dac5b-243f-7307-af64-a10f53f1ef70","","null","
                <div class=""stimulus-container"">
                    <img src=""images/instructions/movie_1.png"" class=""exp-image"">
                    <div class=""question-area""></div> 
                </div>","null","","","","","","","","","","","",""
"","","","","","html-button-response","7","635272","0.0-7.0","BB4D2ACD4DAB45F5BAB68A472EB2E06C","019dac5c-02df-7bba-846d-50bff1bb4288","019dac5b-243f-7307-af64-a10f53f1ef70","","null","
                <div class=""stimulus-container"">
                    <img src=""images/instructions/movie_1.png"" class=""exp-image"">
                    <div class=""question-area"">
                        <p style=""font-size: 20px; font-weight: bold; margin: 0;"">Was there a person in this image?</p>
                    </div>
                </div>","null","example_question","1","","","","","","","","","",""
"","","","","","html-keyboard-response","8","639277","0.0-8.0","BB4D2ACD4DAB45F5BAB68A472EB2E06C","019dac5c-02df-7bba-846d-50bff1bb4288","019dac5b-243f-7307-af64-a10f53f1ef70","","null","
                <div class=""stimulus-container"">
                    <img src=""images/instructions/movie_2.png"" class=""exp-image"">
                    <div class=""question-area""></div> 
                </div>","null","","","","","","","","","","","",""
"","","","","","html-button-response","9","641254","0.0-9.0","BB4D2ACD4DAB45F5BAB68A472EB2E06C","019dac5c-02df-7bba-846d-50bff1bb4288","019dac5b-243f-7307-af64-a10f53f1ef70","","1976","
                <div class=""stimulus-container"">
                    <img src=""images/instructions/movie_2.png"" class=""exp-image"">
                    <div class=""question-area"">
                        <p style=""font-size: 20px; font-weight: bold; margin: 0;"">Was there a person in this image?</p>
                    </div>
                </div>","0","example_question","2","","","","","","","","","",""
"","","","","","html-keyboard-response","10","645256","0.0-10.0","BB4D2ACD4DAB45F5BAB68A472EB2E06C","019dac5c-02df-7bba-846d-50bff1bb4288","019dac5b-243f-7307-af64-a10f53f1ef70","","null","
                <div class=""stimulus-container"">
                    <img src=""images/instructions/movie_3.png"" class=""exp-image"">
                    <div class=""question-area""></div> 
                </div>","null","","","","","","","","","","","",""
"","","","","","html-button-response","11","645982","0.0-11.0","BB4D2ACD4DAB45F5BAB68A472EB2E06C","019dac5c-02df-7bba-846d-50bff1bb4288","019dac5b-243f-7307-af64-a10f53f1ef70","","725","
                <div class=""stimulus-container"">
                    <img src=""images/instructions/movie_3.png"" class=""exp-image"">
                    <div class=""question-area"">
                        <p style=""font-size: 20px; font-weight: bold; margin: 0;"">Was there a person in this image?</p>
                    </div>
                </div>","0","example_question","3","","","","","","","","","",""
"","","","","","html-keyboard-response","12","649990","0.0-12.0","BB4D2ACD4DAB45F5BAB68A472EB2E06C","019dac5c-02df-7bba-846d-50bff1bb4288","019dac5b-243f-7307-af64-a10f53f1ef70","","null","
                <div class=""stimulus-container"">
                    <img src=""images/instructions/movie_4.png"" class=""exp-image"">
                    <div class=""question-area""></div> 
                </div>","null","","","","","","","","","","","",""
"","","","","","html-button-response","13","650922","0.0-13.0","BB4D2ACD4DAB45F5BAB68A472EB2E06C","019dac5c-02df-7bba-846d-50bff1bb4288","019dac5b-243f-7307-af64-a10f53f1ef70","","930","
                <div class=""stimulus-container"">
                    <img src=""images/instructions/movie_4.png"" class=""exp-image"">
                    <div class=""question-area"">
                        <p style=""font-size: 20px; font-weight: bold; margin: 0;"">Was there a person in this image?</p>
                    </div>
                </div>","0","example_question","4","","","","","","","","","",""
"","","","","","instructions","14","652482","0.0-14.0","BB4D2ACD4DAB45F5BAB68A472EB2E06C","019dac5c-02df-7bba-846d-50bff1bb4288","019dac5b-243f-7307-af64-a10f53f1ef70","[{""page_index"":0,""viewing_time"":1559}]","1560","","","","","","","","","","","","","",""
"","","","","","instructions","15","660286","0.0-15.0","BB4D2ACD4DAB45F5BAB68A472EB2E06C","019dac5c-02df-7bba-846d-50bff1bb4288","019dac5b-243f-7307-af64-a10f53f1ef70","[{""page_index"":0,""viewing_time"":7803}]","7804","","","","","","","","","","","","","",""
"","","","","","html-keyboard-response","16","665290","0.0-16.0","BB4D2ACD4DAB45F5BAB68A472EB2E06C","019dac5c-02df-7bba-846d-50bff1bb4288","019dac5b-243f-7307-af64-a10f53f1ef70","","null","<div style=""background-color: white; width: 100vw; height: 100vh;""></div>","null","","","","","","","","","","","",""
"","","","","","html-keyboard-response","17","670305","0.0-17.0","BB4D2ACD4DAB45F5BAB68A472EB2E06C","019dac5c-02df-7bba-846d-50bff1bb4288","019dac5b-243f-7307-af64-a10f53f1ef70","","null","
                <div class=""stimulus-container"">
                    <img src=""images/causal_sequence/dog_causal/dog_causal_1.png"" class=""exp-image"">
                    <div class=""question-area""></div> 
                </div>","null","","","","","","","","","","","",""
"","","","","","html-button-response","18","672485","0.0-18.0","BB4D2ACD4DAB45F5BAB68A472EB2E06C","019dac5c-02df-7bba-846d-50bff1bb4288","019dac5b-243f-7307-af64-a10f53f1ef70","","2180","
                <div class=""stimulus-container"">
                    <img src=""images/causal_sequence/dog_causal/dog_causal_1.png"" class=""exp-image"">
                    <div class=""question-area"">
                        <p style=""font-size: 20px; font-weight: bold; margin: 0;"">Is there a person in this image?</p>
                    </div>
                </div>","0","main_experiment_trial","1","dog_causal","causal_sequence","chronological","","","","","","",""
"","","","","","html-keyboard-response","19","677489","0.0-19.0","BB4D2ACD4DAB45F5BAB68A472EB2E06C","019dac5c-02df-7bba-846d-50bff1bb4288","019dac5b-243f-7307-af64-a10f53f1ef70","","null","
                <div class=""stimulus-container"">
                    <img src=""images/causal_sequence/dog_causal/dog_causal_2.png"" class=""exp-image"">
                    <div class=""question-area""></div> 
                </div>","null","","","","","","","","","","","",""
"","","","","","html-button-response","20","678166","0.0-20.0","BB4D2ACD4DAB45F5BAB68A472EB2E06C","019dac5c-02df-7bba-846d-50bff1bb4288","019dac5b-243f-7307-af64-a10f53f1ef70","","675","
                <div class=""stimulus-container"">
                    <img src=""images/causal_sequence/dog_causal/dog_causal_2.png"" class=""exp-image"">
                    <div class=""question-area"">
                        <p style=""font-size: 20px; font-weight: bold; margin: 0;"">Is there a person in this image?</p>
                    </div>
                </div>","0","main_experiment_trial","2","dog_causal","causal_sequence","chronological","","","","","","",""
"","","","","","html-keyboard-response","21","683179","0.0-21.0","BB4D2ACD4DAB45F5BAB68A472EB2E06C","019dac5c-02df-7bba-846d-50bff1bb4288","019dac5b-243f-7307-af64-a10f53f1ef70","","null","
                <div class=""stimulus-container"">
                    <img src=""images/causal_sequence/dog_causal/dog_causal_3.png"" class=""exp-image"">
                    <div class=""question-area""></div> 
                </div>","null","","","","","","","","","","","",""
"","","","","","html-button-response","22","684214","0.0-22.0","BB4D2ACD4DAB45F5BAB68A472EB2E06C","019dac5c-02df-7bba-846d-50bff1bb4288","019dac5b-243f-7307-af64-a10f53f1ef70","","1033","
                <div class=""stimulus-container"">
                    <img src=""images/causal_sequence/dog_causal/dog_causal_3.png"" class=""exp-image"">
                    <div class=""question-area"">
                        <p style=""font-size: 20px; font-weight: bold; margin: 0;"">Is there a person in this image?</p>
                    </div>
                </div>","0","main_experiment_trial","3","dog_causal","causal_sequence","chronological","","","","","","",""
"","","","","","html-keyboard-response","23","689221","0.0-23.0","BB4D2ACD4DAB45F5BAB68A472EB2E06C","019dac5c-02df-7bba-846d-50bff1bb4288","019dac5b-243f-7307-af64-a10f53f1ef70","","null","
                <div class=""stimulus-container"">
                    <img src=""images/causal_sequence/dog_causal/dog_causal_4.png"" class=""exp-image"">
                    <div class=""question-area""></div> 
                </div>","null","","","","","","","","","","","",""
"","","","","","html-button-response","24","689702","0.0-24.0","BB4D2ACD4DAB45F5BAB68A472EB2E06C","019dac5c-02df-7bba-846d-50bff1bb4288","019dac5b-243f-7307-af64-a10f53f1ef70","","480","
                <div class=""stimulus-container"">
                    <img src=""images/causal_sequence/dog_causal/dog_causal_4.png"" class=""exp-image"">
                    <div class=""question-area"">
                        <p style=""font-size: 20px; font-weight: bold; margin: 0;"">Is there a person in this image?</p>
                    </div>
                </div>","0","main_experiment_trial","4","dog_causal","causal_sequence","chronological","","","","","","",""
"","","","","","html-keyboard-response","25","694710","0.0-25.0","BB4D2ACD4DAB45F5BAB68A472EB2E06C","019dac5c-02df-7bba-846d-50bff1bb4288","019dac5b-243f-7307-af64-a10f53f1ef70","","null","
                <div class=""stimulus-container"">
                    <img src=""images/causal_sequence/dog_causal/dog_causal_5.png"" class=""exp-image"">
                    <div class=""question-area""></div> 
                </div>","null","","","","","","","","","","","",""
"","","","","","html-button-response","26","695434","0.0-26.0","BB4D2ACD4DAB45F5BAB68A472EB2E06C","019dac5c-02df-7bba-846d-50bff1bb4288","019dac5b-243f-7307-af64-a10f53f1ef70","","722","
                <div class=""stimulus-container"">
                    <img src=""images/causal_sequence/dog_causal/dog_causal_5.png"" class=""exp-image"">
                    <div class=""question-area"">
                        <p style=""font-size: 20px; font-weight: bold; margin: 0;"">Is there a person in this image?</p>
                    </div>
                </div>","0","main_experiment_trial","5","dog_causal","causal_sequence","chronological","","","","","","",""
"","","","","","html-keyboard-response","27","700448","0.0-27.0","BB4D2ACD4DAB45F5BAB68A472EB2E06C","019dac5c-02df-7bba-846d-50bff1bb4288","019dac5b-243f-7307-af64-a10f53f1ef70","","null","
                <div class=""stimulus-container"">
                    <img src=""images/causal_sequence/dog_causal/dog_causal_6.png"" class=""exp-image"">
                    <div class=""question-area""></div> 
                </div>","null","","","","","","","","","","","",""
"","","","","","html-button-response","28","701946","0.0-28.0","BB4D2ACD4DAB45F5BAB68A472EB2E06C","019dac5c-02df-7bba-846d-50bff1bb4288","019dac5b-243f-7307-af64-a10f53f1ef70","","1496","
                <div class=""stimulus-container"">
                    <img src=""images/causal_sequence/dog_causal/dog_causal_6.png"" class=""exp-image"">
                    <div class=""question-area"">
                        <p style=""font-size: 20px; font-weight: bold; margin: 0;"">Is there a person in this image?</p>
                    </div>
                </div>","0","main_experiment_trial","6","dog_causal","causal_sequence","chronological","","","","","","",""
"","","","","","html-keyboard-response","29","706954","0.0-29.0","BB4D2ACD4DAB45F5BAB68A472EB2E06C","019dac5c-02df-7bba-846d-50bff1bb4288","019dac5b-243f-7307-af64-a10f53f1ef70","","null","
                <div class=""stimulus-container"">
                    <img src=""images/causal_sequence/dog_causal/dog_causal_7.png"" class=""exp-image"">
                    <div class=""question-area""></div> 
                </div>","null","","","","","","","","","","","",""
"","","","","","html-button-response","30","707798","0.0-30.0","BB4D2ACD4DAB45F5BAB68A472EB2E06C","019dac5c-02df-7bba-846d-50bff1bb4288","019dac5b-243f-7307-af64-a10f53f1ef70","","843","
                <div class=""stimulus-container"">
                    <img src=""images/causal_sequence/dog_causal/dog_causal_7.png"" class=""exp-image"">
                    <div class=""question-area"">
                        <p style=""font-size: 20px; font-weight: bold; margin: 0;"">Is there a person in this image?</p>
                    </div>
                </div>","0","main_experiment_trial","7","dog_causal","causal_sequence","chronological","","","","","","",""
"","","","","","html-keyboard-response","31","712808","0.0-31.0","BB4D2ACD4DAB45F5BAB68A472EB2E06C","019dac5c-02df-7bba-846d-50bff1bb4288","019dac5b-243f-7307-af64-a10f53f1ef70","","null","
                <div class=""stimulus-container"">
                    <img src=""images/causal_sequence/dog_causal/dog_causal_8.png"" class=""exp-image"">
                    <div class=""question-area""></div> 
                </div>","null","","","","","","","","","","","",""
"","","","","","html-button-response","32","713650","0.0-32.0","BB4D2ACD4DAB45F5BAB68A472EB2E06C","019dac5c-02df-7bba-846d-50bff1bb4288","019dac5b-243f-7307-af64-a10f53f1ef70","","841","
                <div class=""stimulus-container"">
                    <img src=""images/causal_sequence/dog_causal/dog_causal_8.png"" class=""exp-image"">
                    <div class=""question-area"">
                        <p style=""font-size: 20px; font-weight: bold; margin: 0;"">Is there a person in this image?</p>
                    </div>
                </div>","0","main_experiment_trial","8","dog_causal","causal_sequence","chronological","","","","","","",""
"","","","","","html-keyboard-response","33","718659","0.0-33.0","BB4D2ACD4DAB45F5BAB68A472EB2E06C","019dac5c-02df-7bba-846d-50bff1bb4288","019dac5b-243f-7307-af64-a10f53f1ef70","","null","
                <div class=""stimulus-container"">
                    <img src=""images/causal_sequence/dog_causal/dog_causal_9.png"" class=""exp-image"">
                    <div class=""question-area""></div> 
                </div>","null","","","","","","","","","","","",""
"","","","","","html-button-response","34","719554","0.0-34.0","BB4D2ACD4DAB45F5BAB68A472EB2E06C","019dac5c-02df-7bba-846d-50bff1bb4288","019dac5b-243f-7307-af64-a10f53f1ef70","","894","
                <div class=""stimulus-container"">
                    <img src=""images/causal_sequence/dog_causal/dog_causal_9.png"" class=""exp-image"">
                    <div class=""question-area"">
                        <p style=""font-size: 20px; font-weight: bold; margin: 0;"">Is there a person in this image?</p>
                    </div>
                </div>","0","main_experiment_trial","9","dog_causal","causal_sequence","chronological","","","","","","",""
"","","","","","html-keyboard-response","35","724554","0.0-35.0","BB4D2ACD4DAB45F5BAB68A472EB2E06C","019dac5c-02df-7bba-846d-50bff1bb4288","019dac5b-243f-7307-af64-a10f53f1ef70","","null","
                <div class=""stimulus-container"">
                    <img src=""images/causal_sequence/dog_causal/dog_causal_ten.png"" class=""exp-image"">
                    <div class=""question-area""></div> 
                </div>","null","","","","","","","","","","","",""
"","","","","","html-button-response","36","725146","0.0-36.0","BB4D2ACD4DAB45F5BAB68A472EB2E06C","019dac5c-02df-7bba-846d-50bff1bb4288","019dac5b-243f-7307-af64-a10f53f1ef70","","591","
                <div class=""stimulus-container"">
                    <img src=""images/causal_sequence/dog_causal/dog_causal_ten.png"" class=""exp-image"">
                    <div class=""question-area"">
                        <p style=""font-size: 20px; font-weight: bold; margin: 0;"">Is there a person in this image?</p>
                    </div>
                </div>","0","main_experiment_trial","ten","dog_causal","causal_sequence","chronological","","","","","","",""
"","","","","","html-keyboard-response","37","730147","0.0-37.0","BB4D2ACD4DAB45F5BAB68A472EB2E06C","019dac5c-02df-7bba-846d-50bff1bb4288","019dac5b-243f-7307-af64-a10f53f1ef70","","null","<div style=""background-color: white; width: 100vw; height: 100vh;""></div>","null","","","","","","","","","","","",""
"","","","","","html-keyboard-response","38","735159","0.0-38.0","BB4D2ACD4DAB45F5BAB68A472EB2E06C","019dac5c-02df-7bba-846d-50bff1bb4288","019dac5b-243f-7307-af64-a10f53f1ef70","","null","
                <div class=""stimulus-container"">
                    <img src=""images/semantic_sequence/visiting_cities_semantic/visiting_cities_semantic_1.png"" class=""exp-image"">
                    <div class=""question-area""></div> 
                </div>","null","","","","","","","","","","","",""
"","","","","","html-button-response","39","736518","0.0-39.0","BB4D2ACD4DAB45F5BAB68A472EB2E06C","019dac5c-02df-7bba-846d-50bff1bb4288","019dac5b-243f-7307-af64-a10f53f1ef70","","1358","
                <div class=""stimulus-container"">
                    <img src=""images/semantic_sequence/visiting_cities_semantic/visiting_cities_semantic_1.png"" class=""exp-image"">
                    <div class=""question-area"">
                        <p style=""font-size: 20px; font-weight: bold; margin: 0;"">Is there a person in this image?</p>
                    </div>
                </div>","0","main_experiment_trial","1","visiting_cities_semantic","semantic_sequence","chronological","","","","","","",""
"","","","","","html-keyboard-response","40","741528","0.0-40.0","BB4D2ACD4DAB45F5BAB68A472EB2E06C","019dac5c-02df-7bba-846d-50bff1bb4288","019dac5b-243f-7307-af64-a10f53f1ef70","","null","
                <div class=""stimulus-container"">
                    <img src=""images/semantic_sequence/visiting_cities_semantic/visiting_cities_semantic_2.png"" class=""exp-image"">
                    <div class=""question-area""></div> 
                </div>","null","","","","","","","","","","","",""
"","","","","","html-button-response","41","742718","0.0-41.0","BB4D2ACD4DAB45F5BAB68A472EB2E06C","019dac5c-02df-7bba-846d-50bff1bb4288","019dac5b-243f-7307-af64-a10f53f1ef70","","1189","
                <div class=""stimulus-container"">
                    <img src=""images/semantic_sequence/visiting_cities_semantic/visiting_cities_semantic_2.png"" class=""exp-image"">
                    <div class=""question-area"">
                        <p style=""font-size: 20px; font-weight: bold; margin: 0;"">Is there a person in this image?</p>
                    </div>
                </div>","1","main_experiment_trial","2","visiting_cities_semantic","semantic_sequence","chronological","","","","","","",""
"","","","","","html-keyboard-response","42","747730","0.0-42.0","BB4D2ACD4DAB45F5BAB68A472EB2E06C","019dac5c-02df-7bba-846d-50bff1bb4288","019dac5b-243f-7307-af64-a10f53f1ef70","","null","
                <div class=""stimulus-container"">
                    <img src=""images/semantic_sequence/visiting_cities_semantic/visiting_cities_semantic_3.png"" class=""exp-image"">
                    <div class=""question-area""></div> 
                </div>","null","","","","","","","","","","","",""
"","","","","","html-button-response","43","748374","0.0-43.0","BB4D2ACD4DAB45F5BAB68A472EB2E06C","019dac5c-02df-7bba-846d-50bff1bb4288","019dac5b-243f-7307-af64-a10f53f1ef70","","643","
                <div class=""stimulus-container"">
                    <img src=""images/semantic_sequence/visiting_cities_semantic/visiting_cities_semantic_3.png"" class=""exp-image"">
                    <div class=""question-area"">
                        <p style=""font-size: 20px; font-weight: bold; margin: 0;"">Is there a person in this image?</p>
                    </div>
                </div>","1","main_experiment_trial","3","visiting_cities_semantic","semantic_sequence","chronological","","","","","","",""
"","","","","","html-keyboard-response","44","753374","0.0-44.0","BB4D2ACD4DAB45F5BAB68A472EB2E06C","019dac5c-02df-7bba-846d-50bff1bb4288","019dac5b-243f-7307-af64-a10f53f1ef70","","null","
                <div class=""stimulus-container"">
                    <img src=""images/semantic_sequence/visiting_cities_semantic/visiting_cities_semantic_4.png"" class=""exp-image"">
                    <div class=""question-area""></div> 
                </div>","null","","","","","","","","","","","",""
"","","","","","html-button-response","45","754326","0.0-45.0","BB4D2ACD4DAB45F5BAB68A472EB2E06C","019dac5c-02df-7bba-846d-50bff1bb4288","019dac5b-243f-7307-af64-a10f53f1ef70","","951","
                <div class=""stimulus-container"">
                    <img src=""images/semantic_sequence/visiting_cities_semantic/visiting_cities_semantic_4.png"" class=""exp-image"">
                    <div class=""question-area"">
                        <p style=""font-size: 20px; font-weight: bold; margin: 0;"">Is there a person in this image?</p>
                    </div>
                </div>","1","main_experiment_trial","4","visiting_cities_semantic","semantic_sequence","chronological","","","","","","",""
"","","","","","html-keyboard-response","46","759327","0.0-46.0","BB4D2ACD4DAB45F5BAB68A472EB2E06C","019dac5c-02df-7bba-846d-50bff1bb4288","019dac5b-243f-7307-af64-a10f53f1ef70","","null","
                <div class=""stimulus-container"">
                    <img src=""images/semantic_sequence/visiting_cities_semantic/visiting_cities_semantic_5.png"" class=""exp-image"">
                    <div class=""question-area""></div> 
                </div>","null","","","","","","","","","","","",""
"","","","","","html-button-response","47","761038","0.0-47.0","BB4D2ACD4DAB45F5BAB68A472EB2E06C","019dac5c-02df-7bba-846d-50bff1bb4288","019dac5b-243f-7307-af64-a10f53f1ef70","","1710","
                <div class=""stimulus-container"">
                    <img src=""images/semantic_sequence/visiting_cities_semantic/visiting_cities_semantic_5.png"" class=""exp-image"">
                    <div class=""question-area"">
                        <p style=""font-size: 20px; font-weight: bold; margin: 0;"">Is there a person in this image?</p>
                    </div>
                </div>","1","main_experiment_trial","5","visiting_cities_semantic","semantic_sequence","chronological","","","","","","",""
"","","","","","html-keyboard-response","48","766048","0.0-48.0","BB4D2ACD4DAB45F5BAB68A472EB2E06C","019dac5c-02df-7bba-846d-50bff1bb4288","019dac5b-243f-7307-af64-a10f53f1ef70","","null","
                <div class=""stimulus-container"">
                    <img src=""images/semantic_sequence/visiting_cities_semantic/visiting_cities_semantic_6.png"" class=""exp-image"">
                    <div class=""question-area""></div> 
                </div>","null","","","","","","","","","","","",""
"","","","","","html-button-response","49","767226","0.0-49.0","BB4D2ACD4DAB45F5BAB68A472EB2E06C","019dac5c-02df-7bba-846d-50bff1bb4288","019dac5b-243f-7307-af64-a10f53f1ef70","","1177","
                <div class=""stimulus-container"">
                    <img src=""images/semantic_sequence/visiting_cities_semantic/visiting_cities_semantic_6.png"" class=""exp-image"">
                    <div class=""question-area"">
                        <p style=""font-size: 20px; font-weight: bold; margin: 0;"">Is there a person in this image?</p>
                    </div>
                </div>","1","main_experiment_trial","6","visiting_cities_semantic","semantic_sequence","chronological","","","","","","",""
"","","","","","html-keyboard-response","50","772231","0.0-50.0","BB4D2ACD4DAB45F5BAB68A472EB2E06C","019dac5c-02df-7bba-846d-50bff1bb4288","019dac5b-243f-7307-af64-a10f53f1ef70","","null","
                <div class=""stimulus-container"">
                    <img src=""images/semantic_sequence/visiting_cities_semantic/visiting_cities_semantic_7.png"" class=""exp-image"">
                    <div class=""question-area""></div> 
                </div>","null","","","","","","","","","","","",""
"","","","","","html-button-response","51","773042","0.0-51.0","BB4D2ACD4DAB45F5BAB68A472EB2E06C","019dac5c-02df-7bba-846d-50bff1bb4288","019dac5b-243f-7307-af64-a10f53f1ef70","","810","
                <div class=""stimulus-container"">
                    <img src=""images/semantic_sequence/visiting_cities_semantic/visiting_cities_semantic_7.png"" class=""exp-image"">
                    <div class=""question-area"">
                        <p style=""font-size: 20px; font-weight: bold; margin: 0;"">Is there a person in this image?</p>
                    </div>
                </div>","0","main_experiment_trial","7","visiting_cities_semantic","semantic_sequence","chronological","","","","","","",""
"","","","","","html-keyboard-response","52","778056","0.0-52.0","BB4D2ACD4DAB45F5BAB68A472EB2E06C","019dac5c-02df-7bba-846d-50bff1bb4288","019dac5b-243f-7307-af64-a10f53f1ef70","","null","
                <div class=""stimulus-container"">
                    <img src=""images/semantic_sequence/visiting_cities_semantic/visiting_cities_semantic_8.png"" class=""exp-image"">
                    <div class=""question-area""></div> 
                </div>","null","","","","","","","","","","","",""
"","","","","","html-button-response","53","778506","0.0-53.0","BB4D2ACD4DAB45F5BAB68A472EB2E06C","019dac5c-02df-7bba-846d-50bff1bb4288","019dac5b-243f-7307-af64-a10f53f1ef70","","449","
                <div class=""stimulus-container"">
                    <img src=""images/semantic_sequence/visiting_cities_semantic/visiting_cities_semantic_8.png"" class=""exp-image"">
                    <div class=""question-area"">
                        <p style=""font-size: 20px; font-weight: bold; margin: 0;"">Is there a person in this image?</p>
                    </div>
                </div>","0","main_experiment_trial","8","visiting_cities_semantic","semantic_sequence","chronological","","","","","","",""
"","","","","","html-keyboard-response","54","783507","0.0-54.0","BB4D2ACD4DAB45F5BAB68A472EB2E06C","019dac5c-02df-7bba-846d-50bff1bb4288","019dac5b-243f-7307-af64-a10f53f1ef70","","null","
                <div class=""stimulus-container"">
                    <img src=""images/semantic_sequence/visiting_cities_semantic/visiting_cities_semantic_9.png"" class=""exp-image"">
                    <div class=""question-area""></div> 
                </div>","null","","","","","","","","","","","",""
"","","","","","html-button-response","55","784182","0.0-55.0","BB4D2ACD4DAB45F5BAB68A472EB2E06C","019dac5c-02df-7bba-846d-50bff1bb4288","019dac5b-243f-7307-af64-a10f53f1ef70","","674","
                <div class=""stimulus-container"">
                    <img src=""images/semantic_sequence/visiting_cities_semantic/visiting_cities_semantic_9.png"" class=""exp-image"">
                    <div class=""question-area"">
                        <p style=""font-size: 20px; font-weight: bold; margin: 0;"">Is there a person in this image?</p>
                    </div>
                </div>","0","main_experiment_trial","9","visiting_cities_semantic","semantic_sequence","chronological","","","","","","",""
"","","","","","html-keyboard-response","56","789194","0.0-56.0","BB4D2ACD4DAB45F5BAB68A472EB2E06C","019dac5c-02df-7bba-846d-50bff1bb4288","019dac5b-243f-7307-af64-a10f53f1ef70","","null","
                <div class=""stimulus-container"">
                    <img src=""images/semantic_sequence/visiting_cities_semantic/visiting_cities_semantic_ten.png"" class=""exp-image"">
                    <div class=""question-area""></div> 
                </div>","null","","","","","","","","","","","",""
"","","","","","html-button-response","57","789898","0.0-57.0","BB4D2ACD4DAB45F5BAB68A472EB2E06C","019dac5c-02df-7bba-846d-50bff1bb4288","019dac5b-243f-7307-af64-a10f53f1ef70","","704","
                <div class=""stimulus-container"">
                    <img src=""images/semantic_sequence/visiting_cities_semantic/visiting_cities_semantic_ten.png"" class=""exp-image"">
                    <div class=""question-area"">
                        <p style=""font-size: 20px; font-weight: bold; margin: 0;"">Is there a person in this image?</p>
                    </div>
                </div>","0","main_experiment_trial","ten","visiting_cities_semantic","semantic_sequence","chronological","","","","","","",""
"","","","","","html-keyboard-response","58","794905","0.0-58.0","BB4D2ACD4DAB45F5BAB68A472EB2E06C","019dac5c-02df-7bba-846d-50bff1bb4288","019dac5b-243f-7307-af64-a10f53f1ef70","","null","<div style=""background-color: white; width: 100vw; height: 100vh;""></div>","null","","","","","","","","","","","",""
"","","","","","html-keyboard-response","59","799906","0.0-59.0","BB4D2ACD4DAB45F5BAB68A472EB2E06C","019dac5c-02df-7bba-846d-50bff1bb4288","019dac5b-243f-7307-af64-a10f53f1ef70","","null","
                <div class=""stimulus-container"">
                    <img src=""images/semantic_sequence/physical_activity_semantic/physical_activity_semantic_1.png"" class=""exp-image"">
                    <div class=""question-area""></div> 
                </div>","null","","","","","","","","","","","",""
"","","","","","html-button-response","60","800918","0.0-60.0","BB4D2ACD4DAB45F5BAB68A472EB2E06C","019dac5c-02df-7bba-846d-50bff1bb4288","019dac5b-243f-7307-af64-a10f53f1ef70","","1011","
                <div class=""stimulus-container"">
                    <img src=""images/semantic_sequence/physical_activity_semantic/physical_activity_semantic_1.png"" class=""exp-image"">
                    <div class=""question-area"">
                        <p style=""font-size: 20px; font-weight: bold; margin: 0;"">Is there a person in this image?</p>
                    </div>
                </div>","0","main_experiment_trial","1","physical_activity_semantic","semantic_sequence","chronological","","","","","","",""
"","","","","","html-keyboard-response","61","805923","0.0-61.0","BB4D2ACD4DAB45F5BAB68A472EB2E06C","019dac5c-02df-7bba-846d-50bff1bb4288","019dac5b-243f-7307-af64-a10f53f1ef70","","null","
                <div class=""stimulus-container"">
                    <img src=""images/semantic_sequence/physical_activity_semantic/physical_activity_semantic_2.png"" class=""exp-image"">
                    <div class=""question-area""></div> 
                </div>","null","","","","","","","","","","","",""
"","","","","","html-button-response","62","806390","0.0-62.0","BB4D2ACD4DAB45F5BAB68A472EB2E06C","019dac5c-02df-7bba-846d-50bff1bb4288","019dac5b-243f-7307-af64-a10f53f1ef70","","466","
                <div class=""stimulus-container"">
                    <img src=""images/semantic_sequence/physical_activity_semantic/physical_activity_semantic_2.png"" class=""exp-image"">
                    <div class=""question-area"">
                        <p style=""font-size: 20px; font-weight: bold; margin: 0;"">Is there a person in this image?</p>
                    </div>
                </div>","0","main_experiment_trial","2","physical_activity_semantic","semantic_sequence","chronological","","","","","","",""
"","","","","","html-keyboard-response","63","811391","0.0-63.0","BB4D2ACD4DAB45F5BAB68A472EB2E06C","019dac5c-02df-7bba-846d-50bff1bb4288","019dac5b-243f-7307-af64-a10f53f1ef70","","null","
                <div class=""stimulus-container"">
                    <img src=""images/semantic_sequence/physical_activity_semantic/physical_activity_semantic_3.png"" class=""exp-image"">
                    <div class=""question-area""></div> 
                </div>","null","","","","","","","","","","","",""
"","","","","","html-button-response","64","812142","0.0-64.0","BB4D2ACD4DAB45F5BAB68A472EB2E06C","019dac5c-02df-7bba-846d-50bff1bb4288","019dac5b-243f-7307-af64-a10f53f1ef70","","750","
                <div class=""stimulus-container"">
                    <img src=""images/semantic_sequence/physical_activity_semantic/physical_activity_semantic_3.png"" class=""exp-image"">
                    <div class=""question-area"">
                        <p style=""font-size: 20px; font-weight: bold; margin: 0;"">Is there a person in this image?</p>
                    </div>
                </div>","0","main_experiment_trial","3","physical_activity_semantic","semantic_sequence","chronological","","","","","","",""
"","","","","","html-keyboard-response","65","817156","0.0-65.0","BB4D2ACD4DAB45F5BAB68A472EB2E06C","019dac5c-02df-7bba-846d-50bff1bb4288","019dac5b-243f-7307-af64-a10f53f1ef70","","null","
                <div class=""stimulus-container"">
                    <img src=""images/semantic_sequence/physical_activity_semantic/physical_activity_semantic_4.png"" class=""exp-image"">
                    <div class=""question-area""></div> 
                </div>","null","","","","","","","","","","","",""
"","","","","","html-button-response","66","818498","0.0-66.0","BB4D2ACD4DAB45F5BAB68A472EB2E06C","019dac5c-02df-7bba-846d-50bff1bb4288","019dac5b-243f-7307-af64-a10f53f1ef70","","1341","
                <div class=""stimulus-container"">
                    <img src=""images/semantic_sequence/physical_activity_semantic/physical_activity_semantic_4.png"" class=""exp-image"">
                    <div class=""question-area"">
                        <p style=""font-size: 20px; font-weight: bold; margin: 0;"">Is there a person in this image?</p>
                    </div>
                </div>","0","main_experiment_trial","4","physical_activity_semantic","semantic_sequence","chronological","","","","","","",""
"","","","","","html-keyboard-response","67","823499","0.0-67.0","BB4D2ACD4DAB45F5BAB68A472EB2E06C","019dac5c-02df-7bba-846d-50bff1bb4288","019dac5b-243f-7307-af64-a10f53f1ef70","","null","
                <div class=""stimulus-container"">
                    <img src=""images/semantic_sequence/physical_activity_semantic/physical_activity_semantic_5.png"" class=""exp-image"">
                    <div class=""question-area""></div> 
                </div>","null","","","","","","","","","","","",""
"","","","","","html-button-response","68","824046","0.0-68.0","BB4D2ACD4DAB45F5BAB68A472EB2E06C","019dac5c-02df-7bba-846d-50bff1bb4288","019dac5b-243f-7307-af64-a10f53f1ef70","","546","
                <div class=""stimulus-container"">
                    <img src=""images/semantic_sequence/physical_activity_semantic/physical_activity_semantic_5.png"" class=""exp-image"">
                    <div class=""question-area"">
                        <p style=""font-size: 20px; font-weight: bold; margin: 0;"">Is there a person in this image?</p>
                    </div>
                </div>","0","main_experiment_trial","5","physical_activity_semantic","semantic_sequence","chronological","","","","","","",""
"","","","","","html-keyboard-response","69","829061","0.0-69.0","BB4D2ACD4DAB45F5BAB68A472EB2E06C","019dac5c-02df-7bba-846d-50bff1bb4288","019dac5b-243f-7307-af64-a10f53f1ef70","","null","
                <div class=""stimulus-container"">
                    <img src=""images/semantic_sequence/physical_activity_semantic/physical_activity_semantic_6.png"" class=""exp-image"">
                    <div class=""question-area""></div> 
                </div>","null","","","","","","","","","","","",""
"","","","","","html-button-response","70","830390","0.0-70.0","BB4D2ACD4DAB45F5BAB68A472EB2E06C","019dac5c-02df-7bba-846d-50bff1bb4288","019dac5b-243f-7307-af64-a10f53f1ef70","","1328","
                <div class=""stimulus-container"">
                    <img src=""images/semantic_sequence/physical_activity_semantic/physical_activity_semantic_6.png"" class=""exp-image"">
                    <div class=""question-area"">
                        <p style=""font-size: 20px; font-weight: bold; margin: 0;"">Is there a person in this image?</p>
                    </div>
                </div>","0","main_experiment_trial","6","physical_activity_semantic","semantic_sequence","chronological","","","","","","",""
"","","","","","html-keyboard-response","71","835393","0.0-71.0","BB4D2ACD4DAB45F5BAB68A472EB2E06C","019dac5c-02df-7bba-846d-50bff1bb4288","019dac5b-243f-7307-af64-a10f53f1ef70","","null","
                <div class=""stimulus-container"">
                    <img src=""images/semantic_sequence/physical_activity_semantic/physical_activity_semantic_7.png"" class=""exp-image"">
                    <div class=""question-area""></div> 
                </div>","null","","","","","","","","","","","",""
"","","","","","html-button-response","72","837342","0.0-72.0","BB4D2ACD4DAB45F5BAB68A472EB2E06C","019dac5c-02df-7bba-846d-50bff1bb4288","019dac5b-243f-7307-af64-a10f53f1ef70","","1948","
                <div class=""stimulus-container"">
                    <img src=""images/semantic_sequence/physical_activity_semantic/physical_activity_semantic_7.png"" class=""exp-image"">
                    <div class=""question-area"">
                        <p style=""font-size: 20px; font-weight: bold; margin: 0;"">Is there a person in this image?</p>
                    </div>
                </div>","0","main_experiment_trial","7","physical_activity_semantic","semantic_sequence","chronological","","","","","","",""
"","","","","","html-keyboard-response","73","842353","0.0-73.0","BB4D2ACD4DAB45F5BAB68A472EB2E06C","019dac5c-02df-7bba-846d-50bff1bb4288","019dac5b-243f-7307-af64-a10f53f1ef70","","null","
                <div class=""stimulus-container"">
                    <img src=""images/semantic_sequence/physical_activity_semantic/physical_activity_semantic_8.png"" class=""exp-image"">
                    <div class=""question-area""></div> 
                </div>","null","","","","","","","","","","","",""
"","","","","","html-button-response","74","844306","0.0-74.0","BB4D2ACD4DAB45F5BAB68A472EB2E06C","019dac5c-02df-7bba-846d-50bff1bb4288","019dac5b-243f-7307-af64-a10f53f1ef70","","1952","
                <div class=""stimulus-container"">
                    <img src=""images/semantic_sequence/physical_activity_semantic/physical_activity_semantic_8.png"" class=""exp-image"">
                    <div class=""question-area"">
                        <p style=""font-size: 20px; font-weight: bold; margin: 0;"">Is there a person in this image?</p>
                    </div>
                </div>","0","main_experiment_trial","8","physical_activity_semantic","semantic_sequence","chronological","","","","","","",""
"","","","","","html-keyboard-response","75","849310","0.0-75.0","BB4D2ACD4DAB45F5BAB68A472EB2E06C","019dac5c-02df-7bba-846d-50bff1bb4288","019dac5b-243f-7307-af64-a10f53f1ef70","","null","
                <div class=""stimulus-container"">
                    <img src=""images/semantic_sequence/physical_activity_semantic/physical_activity_semantic_9.png"" class=""exp-image"">
                    <div class=""question-area""></div> 
                </div>","null","","","","","","","","","","","",""
"","","","","","html-button-response","76","850642","0.0-76.0","BB4D2ACD4DAB45F5BAB68A472EB2E06C","019dac5c-02df-7bba-846d-50bff1bb4288","019dac5b-243f-7307-af64-a10f53f1ef70","","1331","
                <div class=""stimulus-container"">
                    <img src=""images/semantic_sequence/physical_activity_semantic/physical_activity_semantic_9.png"" class=""exp-image"">
                    <div class=""question-area"">
                        <p style=""font-size: 20px; font-weight: bold; margin: 0;"">Is there a person in this image?</p>
                    </div>
                </div>","0","main_experiment_trial","9","physical_activity_semantic","semantic_sequence","chronological","","","","","","",""
"","","","","","html-keyboard-response","77","855644","0.0-77.0","BB4D2ACD4DAB45F5BAB68A472EB2E06C","019dac5c-02df-7bba-846d-50bff1bb4288","019dac5b-243f-7307-af64-a10f53f1ef70","","null","
                <div class=""stimulus-container"">
                    <img src=""images/semantic_sequence/physical_activity_semantic/physical_activity_semantic_ten.png"" class=""exp-image"">
                    <div class=""question-area""></div> 
                </div>","null","","","","","","","","","","","",""
"","","","","","html-button-response","78","858182","0.0-78.0","BB4D2ACD4DAB45F5BAB68A472EB2E06C","019dac5c-02df-7bba-846d-50bff1bb4288","019dac5b-243f-7307-af64-a10f53f1ef70","","2537","
                <div class=""stimulus-container"">
                    <img src=""images/semantic_sequence/physical_activity_semantic/physical_activity_semantic_ten.png"" class=""exp-image"">
                    <div class=""question-area"">
                        <p style=""font-size: 20px; font-weight: bold; margin: 0;"">Is there a person in this image?</p>
                    </div>
                </div>","0","main_experiment_trial","ten","physical_activity_semantic","semantic_sequence","chronological","","","","","","",""
"","","","","","html-keyboard-response","79","863196","0.0-79.0","BB4D2ACD4DAB45F5BAB68A472EB2E06C","019dac5c-02df-7bba-846d-50bff1bb4288","019dac5b-243f-7307-af64-a10f53f1ef70","","null","<div style=""background-color: white; width: 100vw; height: 100vh;""></div>","null","","","","","","","","","","","",""
"","","","","","html-keyboard-response","80","868197","0.0-80.0","BB4D2ACD4DAB45F5BAB68A472EB2E06C","019dac5c-02df-7bba-846d-50bff1bb4288","019dac5b-243f-7307-af64-a10f53f1ef70","","null","
                <div class=""stimulus-container"">
                    <img src=""images/semantic_sequence/maintaining_a_car_semantic/maintaining_a_car_semantic_1.png"" class=""exp-image"">
                    <div class=""question-area""></div> 
                </div>","null","","","","","","","","","","","",""
"","","","","","html-button-response","81","869014","0.0-81.0","BB4D2ACD4DAB45F5BAB68A472EB2E06C","019dac5c-02df-7bba-846d-50bff1bb4288","019dac5b-243f-7307-af64-a10f53f1ef70","","816","
                <div class=""stimulus-container"">
                    <img src=""images/semantic_sequence/maintaining_a_car_semantic/maintaining_a_car_semantic_1.png"" class=""exp-image"">
                    <div class=""question-area"">
                        <p style=""font-size: 20px; font-weight: bold; margin: 0;"">Is there a person in this image?</p>
                    </div>
                </div>","0","main_experiment_trial","1","maintaining_a_car_semantic","semantic_sequence","chronological","","","","","","",""
"","","","","","html-keyboard-response","82","874025","0.0-82.0","BB4D2ACD4DAB45F5BAB68A472EB2E06C","019dac5c-02df-7bba-846d-50bff1bb4288","019dac5b-243f-7307-af64-a10f53f1ef70","","null","
                <div class=""stimulus-container"">
                    <img src=""images/semantic_sequence/maintaining_a_car_semantic/maintaining_a_car_semantic_2.png"" class=""exp-image"">
                    <div class=""question-area""></div> 
                </div>","null","","","","","","","","","","","",""
"","","","","","html-button-response","83","876342","0.0-83.0","BB4D2ACD4DAB45F5BAB68A472EB2E06C","019dac5c-02df-7bba-846d-50bff1bb4288","019dac5b-243f-7307-af64-a10f53f1ef70","","2316","
                <div class=""stimulus-container"">
                    <img src=""images/semantic_sequence/maintaining_a_car_semantic/maintaining_a_car_semantic_2.png"" class=""exp-image"">
                    <div class=""question-area"">
                        <p style=""font-size: 20px; font-weight: bold; margin: 0;"">Is there a person in this image?</p>
                    </div>
                </div>","0","main_experiment_trial","2","maintaining_a_car_semantic","semantic_sequence","chronological","","","","","","",""
"","","","","","html-keyboard-response","84","881352","0.0-84.0","BB4D2ACD4DAB45F5BAB68A472EB2E06C","019dac5c-02df-7bba-846d-50bff1bb4288","019dac5b-243f-7307-af64-a10f53f1ef70","","null","
                <div class=""stimulus-container"">
                    <img src=""images/semantic_sequence/maintaining_a_car_semantic/maintaining_a_car_semantic_3.png"" class=""exp-image"">
                    <div class=""question-area""></div> 
                </div>","null","","","","","","","","","","","",""
"","","","","","html-button-response","85","883378","0.0-85.0","BB4D2ACD4DAB45F5BAB68A472EB2E06C","019dac5c-02df-7bba-846d-50bff1bb4288","019dac5b-243f-7307-af64-a10f53f1ef70","","2025","
                <div class=""stimulus-container"">
                    <img src=""images/semantic_sequence/maintaining_a_car_semantic/maintaining_a_car_semantic_3.png"" class=""exp-image"">
                    <div class=""question-area"">
                        <p style=""font-size: 20px; font-weight: bold; margin: 0;"">Is there a person in this image?</p>
                    </div>
                </div>","0","main_experiment_trial","3","maintaining_a_car_semantic","semantic_sequence","chronological","","","","","","",""
"","","","","","html-keyboard-response","86","888390","0.0-86.0","BB4D2ACD4DAB45F5BAB68A472EB2E06C","019dac5c-02df-7bba-846d-50bff1bb4288","019dac5b-243f-7307-af64-a10f53f1ef70","","null","
                <div class=""stimulus-container"">
                    <img src=""images/semantic_sequence/maintaining_a_car_semantic/maintaining_a_car_semantic_4.png"" class=""exp-image"">
                    <div class=""question-area""></div> 
                </div>","null","","","","","","","","","","","",""
"","","","","","html-button-response","87","890362","0.0-87.0","BB4D2ACD4DAB45F5BAB68A472EB2E06C","019dac5c-02df-7bba-846d-50bff1bb4288","019dac5b-243f-7307-af64-a10f53f1ef70","","1971","
                <div class=""stimulus-container"">
                    <img src=""images/semantic_sequence/maintaining_a_car_semantic/maintaining_a_car_semantic_4.png"" class=""exp-image"">
                    <div class=""question-area"">
                        <p style=""font-size: 20px; font-weight: bold; margin: 0;"">Is there a person in this image?</p>
                    </div>
                </div>","0","main_experiment_trial","4","maintaining_a_car_semantic","semantic_sequence","chronological","","","","","","",""
"","","","","","html-keyboard-response","88","895367","0.0-88.0","BB4D2ACD4DAB45F5BAB68A472EB2E06C","019dac5c-02df-7bba-846d-50bff1bb4288","019dac5b-243f-7307-af64-a10f53f1ef70","","null","
                <div class=""stimulus-container"">
                    <img src=""images/semantic_sequence/maintaining_a_car_semantic/maintaining_a_car_semantic_5.png"" class=""exp-image"">
                    <div class=""question-area""></div> 
                </div>","null","","","","","","","","","","","",""
"","","","","","html-button-response","89","898371","0.0-89.0","BB4D2ACD4DAB45F5BAB68A472EB2E06C","019dac5c-02df-7bba-846d-50bff1bb4288","019dac5b-243f-7307-af64-a10f53f1ef70","","null","
                <div class=""stimulus-container"">
                    <img src=""images/semantic_sequence/maintaining_a_car_semantic/maintaining_a_car_semantic_5.png"" class=""exp-image"">
                    <div class=""question-area"">
                        <p style=""font-size: 20px; font-weight: bold; margin: 0;"">Is there a person in this image?</p>
                    </div>
                </div>","null","main_experiment_trial","5","maintaining_a_car_semantic","semantic_sequence","chronological","","","","","","",""
"","","","","","html-keyboard-response","90","903372","0.0-90.0","BB4D2ACD4DAB45F5BAB68A472EB2E06C","019dac5c-02df-7bba-846d-50bff1bb4288","019dac5b-243f-7307-af64-a10f53f1ef70","","null","
                <div class=""stimulus-container"">
                    <img src=""images/semantic_sequence/maintaining_a_car_semantic/maintaining_a_car_semantic_6.png"" class=""exp-image"">
                    <div class=""question-area""></div> 
                </div>","null","","","","","","","","","","","",""
"","","","","","html-button-response","91","905062","0.0-91.0","BB4D2ACD4DAB45F5BAB68A472EB2E06C","019dac5c-02df-7bba-846d-50bff1bb4288","019dac5b-243f-7307-af64-a10f53f1ef70","","1689","
                <div class=""stimulus-container"">
                    <img src=""images/semantic_sequence/maintaining_a_car_semantic/maintaining_a_car_semantic_6.png"" class=""exp-image"">
                    <div class=""question-area"">
                        <p style=""font-size: 20px; font-weight: bold; margin: 0;"">Is there a person in this image?</p>
                    </div>
                </div>","0","main_experiment_trial","6","maintaining_a_car_semantic","semantic_sequence","chronological","","","","","","",""
"","","","","","html-keyboard-response","92","910064","0.0-92.0","BB4D2ACD4DAB45F5BAB68A472EB2E06C","019dac5c-02df-7bba-846d-50bff1bb4288","019dac5b-243f-7307-af64-a10f53f1ef70","","null","
                <div class=""stimulus-container"">
                    <img src=""images/semantic_sequence/maintaining_a_car_semantic/maintaining_a_car_semantic_7.png"" class=""exp-image"">
                    <div class=""question-area""></div> 
                </div>","null","","","","","","","","","","","",""
"","","","","","html-button-response","93","911090","0.0-93.0","BB4D2ACD4DAB45F5BAB68A472EB2E06C","019dac5c-02df-7bba-846d-50bff1bb4288","019dac5b-243f-7307-af64-a10f53f1ef70","","1025","
                <div class=""stimulus-container"">
                    <img src=""images/semantic_sequence/maintaining_a_car_semantic/maintaining_a_car_semantic_7.png"" class=""exp-image"">
                    <div class=""question-area"">
                        <p style=""font-size: 20px; font-weight: bold; margin: 0;"">Is there a person in this image?</p>
                    </div>
                </div>","0","main_experiment_trial","7","maintaining_a_car_semantic","semantic_sequence","chronological","","","","","","",""
"","","","","","html-keyboard-response","94","916093","0.0-94.0","BB4D2ACD4DAB45F5BAB68A472EB2E06C","019dac5c-02df-7bba-846d-50bff1bb4288","019dac5b-243f-7307-af64-a10f53f1ef70","","null","
                <div class=""stimulus-container"">
                    <img src=""images/semantic_sequence/maintaining_a_car_semantic/maintaining_a_car_semantic_8.png"" class=""exp-image"">
                    <div class=""question-area""></div> 
                </div>","null","","","","","","","","","","","",""
"","","","","","html-button-response","95","916710","0.0-95.0","BB4D2ACD4DAB45F5BAB68A472EB2E06C","019dac5c-02df-7bba-846d-50bff1bb4288","019dac5b-243f-7307-af64-a10f53f1ef70","","616","
                <div class=""stimulus-container"">
                    <img src=""images/semantic_sequence/maintaining_a_car_semantic/maintaining_a_car_semantic_8.png"" class=""exp-image"">
                    <div class=""question-area"">
                        <p style=""font-size: 20px; font-weight: bold; margin: 0;"">Is there a person in this image?</p>
                    </div>
                </div>","0","main_experiment_trial","8","maintaining_a_car_semantic","semantic_sequence","chronological","","","","","","",""
"","","","","","html-keyboard-response","96","921715","0.0-96.0","BB4D2ACD4DAB45F5BAB68A472EB2E06C","019dac5c-02df-7bba-846d-50bff1bb4288","019dac5b-243f-7307-af64-a10f53f1ef70","","null","
                <div class=""stimulus-container"">
                    <img src=""images/semantic_sequence/maintaining_a_car_semantic/maintaining_a_car_semantic_9.png"" class=""exp-image"">
                    <div class=""question-area""></div> 
                </div>","null","","","","","","","","","","","",""
"","","","","","html-button-response","97","922182","0.0-97.0","BB4D2ACD4DAB45F5BAB68A472EB2E06C","019dac5c-02df-7bba-846d-50bff1bb4288","019dac5b-243f-7307-af64-a10f53f1ef70","","466","
                <div class=""stimulus-container"">
                    <img src=""images/semantic_sequence/maintaining_a_car_semantic/maintaining_a_car_semantic_9.png"" class=""exp-image"">
                    <div class=""question-area"">
                        <p style=""font-size: 20px; font-weight: bold; margin: 0;"">Is there a person in this image?</p>
                    </div>
                </div>","0","main_experiment_trial","9","maintaining_a_car_semantic","semantic_sequence","chronological","","","","","","",""
"","","","","","html-keyboard-response","98","927186","0.0-98.0","BB4D2ACD4DAB45F5BAB68A472EB2E06C","019dac5c-02df-7bba-846d-50bff1bb4288","019dac5b-243f-7307-af64-a10f53f1ef70","","null","
                <div class=""stimulus-container"">
                    <img src=""images/semantic_sequence/maintaining_a_car_semantic/maintaining_a_car_semantic_ten.png"" class=""exp-image"">
                    <div class=""question-area""></div> 
                </div>","null","","","","","","","","","","","",""
"","","","","","html-button-response","99","928102","0.0-99.0","BB4D2ACD4DAB45F5BAB68A472EB2E06C","019dac5c-02df-7bba-846d-50bff1bb4288","019dac5b-243f-7307-af64-a10f53f1ef70","","916","
                <div class=""stimulus-container"">
                    <img src=""images/semantic_sequence/maintaining_a_car_semantic/maintaining_a_car_semantic_ten.png"" class=""exp-image"">
                    <div class=""question-area"">
                        <p style=""font-size: 20px; font-weight: bold; margin: 0;"">Is there a person in this image?</p>
                    </div>
                </div>","0","main_experiment_trial","ten","maintaining_a_car_semantic","semantic_sequence","chronological","","","","","","",""
"","","","","","html-keyboard-response","100","933111","0.0-100.0","BB4D2ACD4DAB45F5BAB68A472EB2E06C","019dac5c-02df-7bba-846d-50bff1bb4288","019dac5b-243f-7307-af64-a10f53f1ef70","","null","<div style=""background-color: white; width: 100vw; height: 100vh;""></div>","null","","","","","","","","","","","",""
"","","","","","html-keyboard-response","101","938117","0.0-101.0","BB4D2ACD4DAB45F5BAB68A472EB2E06C","019dac5c-02df-7bba-846d-50bff1bb4288","019dac5b-243f-7307-af64-a10f53f1ef70","","null","
                <div class=""stimulus-container"">
                    <img src=""images/causal_sequence/the_performance_causal/the_performance_causal_1.png"" class=""exp-image"">
                    <div class=""question-area""></div> 
                </div>","null","","","","","","","","","","","",""
"","","","","","html-button-response","102","939138","0.0-102.0","BB4D2ACD4DAB45F5BAB68A472EB2E06C","019dac5c-02df-7bba-846d-50bff1bb4288","019dac5b-243f-7307-af64-a10f53f1ef70","","1020","
                <div class=""stimulus-container"">
                    <img src=""images/causal_sequence/the_performance_causal/the_performance_causal_1.png"" class=""exp-image"">
                    <div class=""question-area"">
                        <p style=""font-size: 20px; font-weight: bold; margin: 0;"">Is there a person in this image?</p>
                    </div>
                </div>","0","main_experiment_trial","1","the_performance_causal","causal_sequence","chronological","","","","","","",""
"","","","","","html-keyboard-response","103","944147","0.0-103.0","BB4D2ACD4DAB45F5BAB68A472EB2E06C","019dac5c-02df-7bba-846d-50bff1bb4288","019dac5b-243f-7307-af64-a10f53f1ef70","","null","
                <div class=""stimulus-container"">
                    <img src=""images/causal_sequence/the_performance_causal/the_performance_causal_2.png"" class=""exp-image"">
                    <div class=""question-area""></div> 
                </div>","null","","","","","","","","","","","",""
"","","","","","html-button-response","104","945522","0.0-104.0","BB4D2ACD4DAB45F5BAB68A472EB2E06C","019dac5c-02df-7bba-846d-50bff1bb4288","019dac5b-243f-7307-af64-a10f53f1ef70","","1374","
                <div class=""stimulus-container"">
                    <img src=""images/causal_sequence/the_performance_causal/the_performance_causal_2.png"" class=""exp-image"">
                    <div class=""question-area"">
                        <p style=""font-size: 20px; font-weight: bold; margin: 0;"">Is there a person in this image?</p>
                    </div>
                </div>","0","main_experiment_trial","2","the_performance_causal","causal_sequence","chronological","","","","","","",""
"","","","","","html-keyboard-response","105","950527","0.0-105.0","BB4D2ACD4DAB45F5BAB68A472EB2E06C","019dac5c-02df-7bba-846d-50bff1bb4288","019dac5b-243f-7307-af64-a10f53f1ef70","","null","
                <div class=""stimulus-container"">
                    <img src=""images/causal_sequence/the_performance_causal/the_performance_causal_3.png"" class=""exp-image"">
                    <div class=""question-area""></div> 
                </div>","null","","","","","","","","","","","",""
"","","","","","html-button-response","106","951302","0.0-106.0","BB4D2ACD4DAB45F5BAB68A472EB2E06C","019dac5c-02df-7bba-846d-50bff1bb4288","019dac5b-243f-7307-af64-a10f53f1ef70","","774","
                <div class=""stimulus-container"">
                    <img src=""images/causal_sequence/the_performance_causal/the_performance_causal_3.png"" class=""exp-image"">
                    <div class=""question-area"">
                        <p style=""font-size: 20px; font-weight: bold; margin: 0;"">Is there a person in this image?</p>
                    </div>
                </div>","0","main_experiment_trial","3","the_performance_causal","causal_sequence","chronological","","","","","","",""
"","","","","","html-keyboard-response","107","956303","0.0-107.0","BB4D2ACD4DAB45F5BAB68A472EB2E06C","019dac5c-02df-7bba-846d-50bff1bb4288","019dac5b-243f-7307-af64-a10f53f1ef70","","null","
                <div class=""stimulus-container"">
                    <img src=""images/causal_sequence/the_performance_causal/the_performance_causal_4.png"" class=""exp-image"">
                    <div class=""question-area""></div> 
                </div>","null","","","","","","","","","","","",""
"","","","","","html-button-response","108","957006","0.0-108.0","BB4D2ACD4DAB45F5BAB68A472EB2E06C","019dac5c-02df-7bba-846d-50bff1bb4288","019dac5b-243f-7307-af64-a10f53f1ef70","","702","
                <div class=""stimulus-container"">
                    <img src=""images/causal_sequence/the_performance_causal/the_performance_causal_4.png"" class=""exp-image"">
                    <div class=""question-area"">
                        <p style=""font-size: 20px; font-weight: bold; margin: 0;"">Is there a person in this image?</p>
                    </div>
                </div>","0","main_experiment_trial","4","the_performance_causal","causal_sequence","chronological","","","","","","",""
"","","","","","html-keyboard-response","109","962007","0.0-109.0","BB4D2ACD4DAB45F5BAB68A472EB2E06C","019dac5c-02df-7bba-846d-50bff1bb4288","019dac5b-243f-7307-af64-a10f53f1ef70","","null","
                <div class=""stimulus-container"">
                    <img src=""images/causal_sequence/the_performance_causal/the_performance_causal_5.png"" class=""exp-image"">
                    <div class=""question-area""></div> 
                </div>","null","","","","","","","","","","","",""
"","","","","","html-button-response","110","962802","0.0-110.0","BB4D2ACD4DAB45F5BAB68A472EB2E06C","019dac5c-02df-7bba-846d-50bff1bb4288","019dac5b-243f-7307-af64-a10f53f1ef70","","794","
                <div class=""stimulus-container"">
                    <img src=""images/causal_sequence/the_performance_causal/the_performance_causal_5.png"" class=""exp-image"">
                    <div class=""question-area"">
                        <p style=""font-size: 20px; font-weight: bold; margin: 0;"">Is there a person in this image?</p>
                    </div>
                </div>","0","main_experiment_trial","5","the_performance_causal","causal_sequence","chronological","","","","","","",""
"","","","","","html-keyboard-response","111","967804","0.0-111.0","BB4D2ACD4DAB45F5BAB68A472EB2E06C","019dac5c-02df-7bba-846d-50bff1bb4288","019dac5b-243f-7307-af64-a10f53f1ef70","","null","
                <div class=""stimulus-container"">
                    <img src=""images/causal_sequence/the_performance_causal/the_performance_causal_6.png"" class=""exp-image"">
                    <div class=""question-area""></div> 
                </div>","null","","","","","","","","","","","",""
"","","","","","html-button-response","112","969174","0.0-112.0","BB4D2ACD4DAB45F5BAB68A472EB2E06C","019dac5c-02df-7bba-846d-50bff1bb4288","019dac5b-243f-7307-af64-a10f53f1ef70","","1369","
                <div class=""stimulus-container"">
                    <img src=""images/causal_sequence/the_performance_causal/the_performance_causal_6.png"" class=""exp-image"">
                    <div class=""question-area"">
                        <p style=""font-size: 20px; font-weight: bold; margin: 0;"">Is there a person in this image?</p>
                    </div>
                </div>","0","main_experiment_trial","6","the_performance_causal","causal_sequence","chronological","","","","","","",""
"","","","","","html-keyboard-response","113","974185","0.0-113.0","BB4D2ACD4DAB45F5BAB68A472EB2E06C","019dac5c-02df-7bba-846d-50bff1bb4288","019dac5b-243f-7307-af64-a10f53f1ef70","","null","
                <div class=""stimulus-container"">
                    <img src=""images/causal_sequence/the_performance_causal/the_performance_causal_7.png"" class=""exp-image"">
                    <div class=""question-area""></div> 
                </div>","null","","","","","","","","","","","",""
"","","","","","html-button-response","114","975726","0.0-114.0","BB4D2ACD4DAB45F5BAB68A472EB2E06C","019dac5c-02df-7bba-846d-50bff1bb4288","019dac5b-243f-7307-af64-a10f53f1ef70","","1540","
                <div class=""stimulus-container"">
                    <img src=""images/causal_sequence/the_performance_causal/the_performance_causal_7.png"" class=""exp-image"">
                    <div class=""question-area"">
                        <p style=""font-size: 20px; font-weight: bold; margin: 0;"">Is there a person in this image?</p>
                    </div>
                </div>","0","main_experiment_trial","7","the_performance_causal","causal_sequence","chronological","","","","","","",""
"","","","","","html-keyboard-response","115","980731","0.0-115.0","BB4D2ACD4DAB45F5BAB68A472EB2E06C","019dac5c-02df-7bba-846d-50bff1bb4288","019dac5b-243f-7307-af64-a10f53f1ef70","","null","
                <div class=""stimulus-container"">
                    <img src=""images/causal_sequence/the_performance_causal/the_performance_causal_8.png"" class=""exp-image"">
                    <div class=""question-area""></div> 
                </div>","null","","","","","","","","","","","",""
"","","","","","html-button-response","116","981846","0.0-116.0","BB4D2ACD4DAB45F5BAB68A472EB2E06C","019dac5c-02df-7bba-846d-50bff1bb4288","019dac5b-243f-7307-af64-a10f53f1ef70","","1114","
                <div class=""stimulus-container"">
                    <img src=""images/causal_sequence/the_performance_causal/the_performance_causal_8.png"" class=""exp-image"">
                    <div class=""question-area"">
                        <p style=""font-size: 20px; font-weight: bold; margin: 0;"">Is there a person in this image?</p>
                    </div>
                </div>","0","main_experiment_trial","8","the_performance_causal","causal_sequence","chronological","","","","","","",""
"","","","","","html-keyboard-response","117","986856","0.0-117.0","BB4D2ACD4DAB45F5BAB68A472EB2E06C","019dac5c-02df-7bba-846d-50bff1bb4288","019dac5b-243f-7307-af64-a10f53f1ef70","","null","
                <div class=""stimulus-container"">
                    <img src=""images/causal_sequence/the_performance_causal/the_performance_causal_9.png"" class=""exp-image"">
                    <div class=""question-area""></div> 
                </div>","null","","","","","","","","","","","",""
"","","","","","html-button-response","118","988558","0.0-118.0","BB4D2ACD4DAB45F5BAB68A472EB2E06C","019dac5c-02df-7bba-846d-50bff1bb4288","019dac5b-243f-7307-af64-a10f53f1ef70","","1701","
                <div class=""stimulus-container"">
                    <img src=""images/causal_sequence/the_performance_causal/the_performance_causal_9.png"" class=""exp-image"">
                    <div class=""question-area"">
                        <p style=""font-size: 20px; font-weight: bold; margin: 0;"">Is there a person in this image?</p>
                    </div>
                </div>","0","main_experiment_trial","9","the_performance_causal","causal_sequence","chronological","","","","","","",""
"","","","","","html-keyboard-response","119","993563","0.0-119.0","BB4D2ACD4DAB45F5BAB68A472EB2E06C","019dac5c-02df-7bba-846d-50bff1bb4288","019dac5b-243f-7307-af64-a10f53f1ef70","","null","
                <div class=""stimulus-container"">
                    <img src=""images/causal_sequence/the_performance_causal/the_performance_causal_ten.png"" class=""exp-image"">
                    <div class=""question-area""></div> 
                </div>","null","","","","","","","","","","","",""
"","","","","","html-button-response","120","994806","0.0-120.0","BB4D2ACD4DAB45F5BAB68A472EB2E06C","019dac5c-02df-7bba-846d-50bff1bb4288","019dac5b-243f-7307-af64-a10f53f1ef70","","1243","
                <div class=""stimulus-container"">
                    <img src=""images/causal_sequence/the_performance_causal/the_performance_causal_ten.png"" class=""exp-image"">
                    <div class=""question-area"">
                        <p style=""font-size: 20px; font-weight: bold; margin: 0;"">Is there a person in this image?</p>
                    </div>
                </div>","0","main_experiment_trial","ten","the_performance_causal","causal_sequence","chronological","","","","","","",""
"","","","","","html-keyboard-response","121","999822","0.0-121.0","BB4D2ACD4DAB45F5BAB68A472EB2E06C","019dac5c-02df-7bba-846d-50bff1bb4288","019dac5b-243f-7307-af64-a10f53f1ef70","","null","<div style=""background-color: white; width: 100vw; height: 100vh;""></div>","null","","","","","","","","","","","",""
"","","","","","html-keyboard-response","122","1004835","0.0-122.0","BB4D2ACD4DAB45F5BAB68A472EB2E06C","019dac5c-02df-7bba-846d-50bff1bb4288","019dac5b-243f-7307-af64-a10f53f1ef70","","null","
                <div class=""stimulus-container"">
                    <img src=""images/semantic_sequence/kitchen_operations_semantic/kitchen_operations_semantic_1.png"" class=""exp-image"">
                    <div class=""question-area""></div> 
                </div>","null","","","","","","","","","","","",""
"","","","","","html-button-response","123","1006374","0.0-123.0","BB4D2ACD4DAB45F5BAB68A472EB2E06C","019dac5c-02df-7bba-846d-50bff1bb4288","019dac5b-243f-7307-af64-a10f53f1ef70","","1539","
                <div class=""stimulus-container"">
                    <img src=""images/semantic_sequence/kitchen_operations_semantic/kitchen_operations_semantic_1.png"" class=""exp-image"">
                    <div class=""question-area"">
                        <p style=""font-size: 20px; font-weight: bold; margin: 0;"">Is there a person in this image?</p>
                    </div>
                </div>","0","main_experiment_trial","1","kitchen_operations_semantic","semantic_sequence","chronological","","","","","","",""
"","","","","","html-keyboard-response","124","1011374","0.0-124.0","BB4D2ACD4DAB45F5BAB68A472EB2E06C","019dac5c-02df-7bba-846d-50bff1bb4288","019dac5b-243f-7307-af64-a10f53f1ef70","","null","
                <div class=""stimulus-container"">
                    <img src=""images/semantic_sequence/kitchen_operations_semantic/kitchen_operations_semantic_2.png"" class=""exp-image"">
                    <div class=""question-area""></div> 
                </div>","null","","","","","","","","","","","",""
"","","","","","html-button-response","125","1012146","0.0-125.0","BB4D2ACD4DAB45F5BAB68A472EB2E06C","019dac5c-02df-7bba-846d-50bff1bb4288","019dac5b-243f-7307-af64-a10f53f1ef70","","771","
                <div class=""stimulus-container"">
                    <img src=""images/semantic_sequence/kitchen_operations_semantic/kitchen_operations_semantic_2.png"" class=""exp-image"">
                    <div class=""question-area"">
                        <p style=""font-size: 20px; font-weight: bold; margin: 0;"">Is there a person in this image?</p>
                    </div>
                </div>","0","main_experiment_trial","2","kitchen_operations_semantic","semantic_sequence","chronological","","","","","","",""
"","","","","","html-keyboard-response","126","1017154","0.0-126.0","BB4D2ACD4DAB45F5BAB68A472EB2E06C","019dac5c-02df-7bba-846d-50bff1bb4288","019dac5b-243f-7307-af64-a10f53f1ef70","","null","
                <div class=""stimulus-container"">
                    <img src=""images/semantic_sequence/kitchen_operations_semantic/kitchen_operations_semantic_3.png"" class=""exp-image"">
                    <div class=""question-area""></div> 
                </div>","null","","","","","","","","","","","",""
"","","","","","html-button-response","127","1018850","0.0-127.0","BB4D2ACD4DAB45F5BAB68A472EB2E06C","019dac5c-02df-7bba-846d-50bff1bb4288","019dac5b-243f-7307-af64-a10f53f1ef70","","1695","
                <div class=""stimulus-container"">
                    <img src=""images/semantic_sequence/kitchen_operations_semantic/kitchen_operations_semantic_3.png"" class=""exp-image"">
                    <div class=""question-area"">
                        <p style=""font-size: 20px; font-weight: bold; margin: 0;"">Is there a person in this image?</p>
                    </div>
                </div>","0","main_experiment_trial","3","kitchen_operations_semantic","semantic_sequence","chronological","","","","","","",""
"","","","","","html-keyboard-response","128","1023858","0.0-128.0","BB4D2ACD4DAB45F5BAB68A472EB2E06C","019dac5c-02df-7bba-846d-50bff1bb4288","019dac5b-243f-7307-af64-a10f53f1ef70","","null","
                <div class=""stimulus-container"">
                    <img src=""images/semantic_sequence/kitchen_operations_semantic/kitchen_operations_semantic_4.png"" class=""exp-image"">
                    <div class=""question-area""></div> 
                </div>","null","","","","","","","","","","","",""
"","","","","","html-button-response","129","1024638","0.0-129.0","BB4D2ACD4DAB45F5BAB68A472EB2E06C","019dac5c-02df-7bba-846d-50bff1bb4288","019dac5b-243f-7307-af64-a10f53f1ef70","","779","
                <div class=""stimulus-container"">
                    <img src=""images/semantic_sequence/kitchen_operations_semantic/kitchen_operations_semantic_4.png"" class=""exp-image"">
                    <div class=""question-area"">
                        <p style=""font-size: 20px; font-weight: bold; margin: 0;"">Is there a person in this image?</p>
                    </div>
                </div>","0","main_experiment_trial","4","kitchen_operations_semantic","semantic_sequence","chronological","","","","","","",""
"","","","","","html-keyboard-response","130","1029643","0.0-130.0","BB4D2ACD4DAB45F5BAB68A472EB2E06C","019dac5c-02df-7bba-846d-50bff1bb4288","019dac5b-243f-7307-af64-a10f53f1ef70","","null","
                <div class=""stimulus-container"">
                    <img src=""images/semantic_sequence/kitchen_operations_semantic/kitchen_operations_semantic_5.png"" class=""exp-image"">
                    <div class=""question-area""></div> 
                </div>","null","","","","","","","","","","","",""
"","","","","","html-button-response","131","1032622","0.0-131.0","BB4D2ACD4DAB45F5BAB68A472EB2E06C","019dac5c-02df-7bba-846d-50bff1bb4288","019dac5b-243f-7307-af64-a10f53f1ef70","","2978","
                <div class=""stimulus-container"">
                    <img src=""images/semantic_sequence/kitchen_operations_semantic/kitchen_operations_semantic_5.png"" class=""exp-image"">
                    <div class=""question-area"">
                        <p style=""font-size: 20px; font-weight: bold; margin: 0;"">Is there a person in this image?</p>
                    </div>
                </div>","0","main_experiment_trial","5","kitchen_operations_semantic","semantic_sequence","chronological","","","","","","",""
"","","","","","html-keyboard-response","132","1037630","0.0-132.0","BB4D2ACD4DAB45F5BAB68A472EB2E06C","019dac5c-02df-7bba-846d-50bff1bb4288","019dac5b-243f-7307-af64-a10f53f1ef70","","null","
                <div class=""stimulus-container"">
                    <img src=""images/semantic_sequence/kitchen_operations_semantic/kitchen_operations_semantic_6.png"" class=""exp-image"">
                    <div class=""question-area""></div> 
                </div>","null","","","","","","","","","","","",""
"","","","","","html-button-response","133","1039122","0.0-133.0","BB4D2ACD4DAB45F5BAB68A472EB2E06C","019dac5c-02df-7bba-846d-50bff1bb4288","019dac5b-243f-7307-af64-a10f53f1ef70","","1490","
                <div class=""stimulus-container"">
                    <img src=""images/semantic_sequence/kitchen_operations_semantic/kitchen_operations_semantic_6.png"" class=""exp-image"">
                    <div class=""question-area"">
                        <p style=""font-size: 20px; font-weight: bold; margin: 0;"">Is there a person in this image?</p>
                    </div>
                </div>","0","main_experiment_trial","6","kitchen_operations_semantic","semantic_sequence","chronological","","","","","","",""
"","","","","","html-keyboard-response","134","1044138","0.0-134.0","BB4D2ACD4DAB45F5BAB68A472EB2E06C","019dac5c-02df-7bba-846d-50bff1bb4288","019dac5b-243f-7307-af64-a10f53f1ef70","","null","
                <div class=""stimulus-container"">
                    <img src=""images/semantic_sequence/kitchen_operations_semantic/kitchen_operations_semantic_7.png"" class=""exp-image"">
                    <div class=""question-area""></div> 
                </div>","null","","","","","","","","","","","",""
"","","","","","html-button-response","135","1045206","0.0-135.0","BB4D2ACD4DAB45F5BAB68A472EB2E06C","019dac5c-02df-7bba-846d-50bff1bb4288","019dac5b-243f-7307-af64-a10f53f1ef70","","1067","
                <div class=""stimulus-container"">
                    <img src=""images/semantic_sequence/kitchen_operations_semantic/kitchen_operations_semantic_7.png"" class=""exp-image"">
                    <div class=""question-area"">
                        <p style=""font-size: 20px; font-weight: bold; margin: 0;"">Is there a person in this image?</p>
                    </div>
                </div>","0","main_experiment_trial","7","kitchen_operations_semantic","semantic_sequence","chronological","","","","","","",""
"","","","","","html-keyboard-response","136","1050213","0.0-136.0","BB4D2ACD4DAB45F5BAB68A472EB2E06C","019dac5c-02df-7bba-846d-50bff1bb4288","019dac5b-243f-7307-af64-a10f53f1ef70","","null","
                <div class=""stimulus-container"">
                    <img src=""images/semantic_sequence/kitchen_operations_semantic/kitchen_operations_semantic_8.png"" class=""exp-image"">
                    <div class=""question-area""></div> 
                </div>","null","","","","","","","","","","","",""
"","","","","","html-button-response","137","1051010","0.0-137.0","BB4D2ACD4DAB45F5BAB68A472EB2E06C","019dac5c-02df-7bba-846d-50bff1bb4288","019dac5b-243f-7307-af64-a10f53f1ef70","","796","
                <div class=""stimulus-container"">
                    <img src=""images/semantic_sequence/kitchen_operations_semantic/kitchen_operations_semantic_8.png"" class=""exp-image"">
                    <div class=""question-area"">
                        <p style=""font-size: 20px; font-weight: bold; margin: 0;"">Is there a person in this image?</p>
                    </div>
                </div>","0","main_experiment_trial","8","kitchen_operations_semantic","semantic_sequence","chronological","","","","","","",""
"","","","","","html-keyboard-response","138","1056013","0.0-138.0","BB4D2ACD4DAB45F5BAB68A472EB2E06C","019dac5c-02df-7bba-846d-50bff1bb4288","019dac5b-243f-7307-af64-a10f53f1ef70","","null","
                <div class=""stimulus-container"">
                    <img src=""images/semantic_sequence/kitchen_operations_semantic/kitchen_operations_semantic_9.png"" class=""exp-image"">
                    <div class=""question-area""></div> 
                </div>","null","","","","","","","","","","","",""
"","","","","","html-button-response","139","1056878","0.0-139.0","BB4D2ACD4DAB45F5BAB68A472EB2E06C","019dac5c-02df-7bba-846d-50bff1bb4288","019dac5b-243f-7307-af64-a10f53f1ef70","","864","
                <div class=""stimulus-container"">
                    <img src=""images/semantic_sequence/kitchen_operations_semantic/kitchen_operations_semantic_9.png"" class=""exp-image"">
                    <div class=""question-area"">
                        <p style=""font-size: 20px; font-weight: bold; margin: 0;"">Is there a person in this image?</p>
                    </div>
                </div>","0","main_experiment_trial","9","kitchen_operations_semantic","semantic_sequence","chronological","","","","","","",""
"","","","","","html-keyboard-response","140","1061880","0.0-140.0","BB4D2ACD4DAB45F5BAB68A472EB2E06C","019dac5c-02df-7bba-846d-50bff1bb4288","019dac5b-243f-7307-af64-a10f53f1ef70","","null","
                <div class=""stimulus-container"">
                    <img src=""images/semantic_sequence/kitchen_operations_semantic/kitchen_operations_semantic_ten.png"" class=""exp-image"">
                    <div class=""question-area""></div> 
                </div>","null","","","","","","","","","","","",""
"","","","","","html-button-response","141","1063846","0.0-141.0","BB4D2ACD4DAB45F5BAB68A472EB2E06C","019dac5c-02df-7bba-846d-50bff1bb4288","019dac5b-243f-7307-af64-a10f53f1ef70","","1965","
                <div class=""stimulus-container"">
                    <img src=""images/semantic_sequence/kitchen_operations_semantic/kitchen_operations_semantic_ten.png"" class=""exp-image"">
                    <div class=""question-area"">
                        <p style=""font-size: 20px; font-weight: bold; margin: 0;"">Is there a person in this image?</p>
                    </div>
                </div>","0","main_experiment_trial","ten","kitchen_operations_semantic","semantic_sequence","chronological","","","","","","",""
"","","","","","html-keyboard-response","142","1068854","0.0-142.0","BB4D2ACD4DAB45F5BAB68A472EB2E06C","019dac5c-02df-7bba-846d-50bff1bb4288","019dac5b-243f-7307-af64-a10f53f1ef70","","null","<div style=""background-color: white; width: 100vw; height: 100vh;""></div>","null","","","","","","","","","","","",""
"","","","","","html-keyboard-response","143","1073858","0.0-143.0","BB4D2ACD4DAB45F5BAB68A472EB2E06C","019dac5c-02df-7bba-846d-50bff1bb4288","019dac5b-243f-7307-af64-a10f53f1ef70","","null","
                <div class=""stimulus-container"">
                    <img src=""images/semantic_sequence/self_care_activities_semantic/self_care_activities_semantic_1.png"" class=""exp-image"">
                    <div class=""question-area""></div> 
                </div>","null","","","","","","","","","","","",""
"","","","","","html-button-response","144","1076254","0.0-144.0","BB4D2ACD4DAB45F5BAB68A472EB2E06C","019dac5c-02df-7bba-846d-50bff1bb4288","019dac5b-243f-7307-af64-a10f53f1ef70","","2395","
                <div class=""stimulus-container"">
                    <img src=""images/semantic_sequence/self_care_activities_semantic/self_care_activities_semantic_1.png"" class=""exp-image"">
                    <div class=""question-area"">
                        <p style=""font-size: 20px; font-weight: bold; margin: 0;"">Is there a person in this image?</p>
                    </div>
                </div>","0","main_experiment_trial","1","self_care_activities_semantic","semantic_sequence","chronological","","","","","","",""
"","","","","","html-keyboard-response","145","1081268","0.0-145.0","BB4D2ACD4DAB45F5BAB68A472EB2E06C","019dac5c-02df-7bba-846d-50bff1bb4288","019dac5b-243f-7307-af64-a10f53f1ef70","","null","
                <div class=""stimulus-container"">
                    <img src=""images/semantic_sequence/self_care_activities_semantic/self_care_activities_semantic_2.png"" class=""exp-image"">
                    <div class=""question-area""></div> 
                </div>","null","","","","","","","","","","","",""
"","","","","","html-button-response","146","1084078","0.0-146.0","BB4D2ACD4DAB45F5BAB68A472EB2E06C","019dac5c-02df-7bba-846d-50bff1bb4288","019dac5b-243f-7307-af64-a10f53f1ef70","","2809","
                <div class=""stimulus-container"">
                    <img src=""images/semantic_sequence/self_care_activities_semantic/self_care_activities_semantic_2.png"" class=""exp-image"">
                    <div class=""question-area"">
                        <p style=""font-size: 20px; font-weight: bold; margin: 0;"">Is there a person in this image?</p>
                    </div>
                </div>","0","main_experiment_trial","2","self_care_activities_semantic","semantic_sequence","chronological","","","","","","",""
"","","","","","html-keyboard-response","147","1089080","0.0-147.0","BB4D2ACD4DAB45F5BAB68A472EB2E06C","019dac5c-02df-7bba-846d-50bff1bb4288","019dac5b-243f-7307-af64-a10f53f1ef70","","null","
                <div class=""stimulus-container"">
                    <img src=""images/semantic_sequence/self_care_activities_semantic/self_care_activities_semantic_3.png"" class=""exp-image"">
                    <div class=""question-area""></div> 
                </div>","null","","","","","","","","","","","",""
"","","","","","html-button-response","148","1090390","0.0-148.0","BB4D2ACD4DAB45F5BAB68A472EB2E06C","019dac5c-02df-7bba-846d-50bff1bb4288","019dac5b-243f-7307-af64-a10f53f1ef70","","1309","
                <div class=""stimulus-container"">
                    <img src=""images/semantic_sequence/self_care_activities_semantic/self_care_activities_semantic_3.png"" class=""exp-image"">
                    <div class=""question-area"">
                        <p style=""font-size: 20px; font-weight: bold; margin: 0;"">Is there a person in this image?</p>
                    </div>
                </div>","0","main_experiment_trial","3","self_care_activities_semantic","semantic_sequence","chronological","","","","","","",""
"","","","","","html-keyboard-response","149","1095402","0.0-149.0","BB4D2ACD4DAB45F5BAB68A472EB2E06C","019dac5c-02df-7bba-846d-50bff1bb4288","019dac5b-243f-7307-af64-a10f53f1ef70","","null","
                <div class=""stimulus-container"">
                    <img src=""images/semantic_sequence/self_care_activities_semantic/self_care_activities_semantic_4.png"" class=""exp-image"">
                    <div class=""question-area""></div> 
                </div>","null","","","","","","","","","","","",""
"","","","","","html-button-response","150","1097226","0.0-150.0","BB4D2ACD4DAB45F5BAB68A472EB2E06C","019dac5c-02df-7bba-846d-50bff1bb4288","019dac5b-243f-7307-af64-a10f53f1ef70","","1823","
                <div class=""stimulus-container"">
                    <img src=""images/semantic_sequence/self_care_activities_semantic/self_care_activities_semantic_4.png"" class=""exp-image"">
                    <div class=""question-area"">
                        <p style=""font-size: 20px; font-weight: bold; margin: 0;"">Is there a person in this image?</p>
                    </div>
                </div>","0","main_experiment_trial","4","self_care_activities_semantic","semantic_sequence","chronological","","","","","","",""
"","","","","","html-keyboard-response","151","1102227","0.0-151.0","BB4D2ACD4DAB45F5BAB68A472EB2E06C","019dac5c-02df-7bba-846d-50bff1bb4288","019dac5b-243f-7307-af64-a10f53f1ef70","","null","
                <div class=""stimulus-container"">
                    <img src=""images/semantic_sequence/self_care_activities_semantic/self_care_activities_semantic_5.png"" class=""exp-image"">
                    <div class=""question-area""></div> 
                </div>","null","","","","","","","","","","","",""
"","","","","","html-button-response","152","1103170","0.0-152.0","BB4D2ACD4DAB45F5BAB68A472EB2E06C","019dac5c-02df-7bba-846d-50bff1bb4288","019dac5b-243f-7307-af64-a10f53f1ef70","","942","
                <div class=""stimulus-container"">
                    <img src=""images/semantic_sequence/self_care_activities_semantic/self_care_activities_semantic_5.png"" class=""exp-image"">
                    <div class=""question-area"">
                        <p style=""font-size: 20px; font-weight: bold; margin: 0;"">Is there a person in this image?</p>
                    </div>
                </div>","0","main_experiment_trial","5","self_care_activities_semantic","semantic_sequence","chronological","","","","","","",""
"","","","","","html-keyboard-response","153","1108174","0.0-153.0","BB4D2ACD4DAB45F5BAB68A472EB2E06C","019dac5c-02df-7bba-846d-50bff1bb4288","019dac5b-243f-7307-af64-a10f53f1ef70","","null","
                <div class=""stimulus-container"">
                    <img src=""images/semantic_sequence/self_care_activities_semantic/self_care_activities_semantic_6.png"" class=""exp-image"">
                    <div class=""question-area""></div> 
                </div>","null","","","","","","","","","","","",""
"","","","","","html-button-response","154","1109482","0.0-154.0","BB4D2ACD4DAB45F5BAB68A472EB2E06C","019dac5c-02df-7bba-846d-50bff1bb4288","019dac5b-243f-7307-af64-a10f53f1ef70","","1307","
                <div class=""stimulus-container"">
                    <img src=""images/semantic_sequence/self_care_activities_semantic/self_care_activities_semantic_6.png"" class=""exp-image"">
                    <div class=""question-area"">
                        <p style=""font-size: 20px; font-weight: bold; margin: 0;"">Is there a person in this image?</p>
                    </div>
                </div>","0","main_experiment_trial","6","self_care_activities_semantic","semantic_sequence","chronological","","","","","","",""
"","","","","","html-keyboard-response","155","1114494","0.0-155.0","BB4D2ACD4DAB45F5BAB68A472EB2E06C","019dac5c-02df-7bba-846d-50bff1bb4288","019dac5b-243f-7307-af64-a10f53f1ef70","","null","
                <div class=""stimulus-container"">
                    <img src=""images/semantic_sequence/self_care_activities_semantic/self_care_activities_semantic_7.png"" class=""exp-image"">
                    <div class=""question-area""></div> 
                </div>","null","","","","","","","","","","","",""
"","","","","","html-button-response","156","1115030","0.0-156.0","BB4D2ACD4DAB45F5BAB68A472EB2E06C","019dac5c-02df-7bba-846d-50bff1bb4288","019dac5b-243f-7307-af64-a10f53f1ef70","","535","
                <div class=""stimulus-container"">
                    <img src=""images/semantic_sequence/self_care_activities_semantic/self_care_activities_semantic_7.png"" class=""exp-image"">
                    <div class=""question-area"">
                        <p style=""font-size: 20px; font-weight: bold; margin: 0;"">Is there a person in this image?</p>
                    </div>
                </div>","0","main_experiment_trial","7","self_care_activities_semantic","semantic_sequence","chronological","","","","","","",""
"","","","","","html-keyboard-response","157","1120031","0.0-157.0","BB4D2ACD4DAB45F5BAB68A472EB2E06C","019dac5c-02df-7bba-846d-50bff1bb4288","019dac5b-243f-7307-af64-a10f53f1ef70","","null","
                <div class=""stimulus-container"">
                    <img src=""images/semantic_sequence/self_care_activities_semantic/self_care_activities_semantic_8.png"" class=""exp-image"">
                    <div class=""question-area""></div> 
                </div>","null","","","","","","","","","","","",""
"","","","","","html-button-response","158","1120486","0.0-158.0","BB4D2ACD4DAB45F5BAB68A472EB2E06C","019dac5c-02df-7bba-846d-50bff1bb4288","019dac5b-243f-7307-af64-a10f53f1ef70","","454","
                <div class=""stimulus-container"">
                    <img src=""images/semantic_sequence/self_care_activities_semantic/self_care_activities_semantic_8.png"" class=""exp-image"">
                    <div class=""question-area"">
                        <p style=""font-size: 20px; font-weight: bold; margin: 0;"">Is there a person in this image?</p>
                    </div>
                </div>","0","main_experiment_trial","8","self_care_activities_semantic","semantic_sequence","chronological","","","","","","",""
"","","","","","html-keyboard-response","159","1125489","0.0-159.0","BB4D2ACD4DAB45F5BAB68A472EB2E06C","019dac5c-02df-7bba-846d-50bff1bb4288","019dac5b-243f-7307-af64-a10f53f1ef70","","null","
                <div class=""stimulus-container"">
                    <img src=""images/semantic_sequence/self_care_activities_semantic/self_care_activities_semantic_9.png"" class=""exp-image"">
                    <div class=""question-area""></div> 
                </div>","null","","","","","","","","","","","",""
"","","","","","html-button-response","160","1125998","0.0-160.0","BB4D2ACD4DAB45F5BAB68A472EB2E06C","019dac5c-02df-7bba-846d-50bff1bb4288","019dac5b-243f-7307-af64-a10f53f1ef70","","508","
                <div class=""stimulus-container"">
                    <img src=""images/semantic_sequence/self_care_activities_semantic/self_care_activities_semantic_9.png"" class=""exp-image"">
                    <div class=""question-area"">
                        <p style=""font-size: 20px; font-weight: bold; margin: 0;"">Is there a person in this image?</p>
                    </div>
                </div>","0","main_experiment_trial","9","self_care_activities_semantic","semantic_sequence","chronological","","","","","","",""
"","","","","","html-keyboard-response","161","1131009","0.0-161.0","BB4D2ACD4DAB45F5BAB68A472EB2E06C","019dac5c-02df-7bba-846d-50bff1bb4288","019dac5b-243f-7307-af64-a10f53f1ef70","","null","
                <div class=""stimulus-container"">
                    <img src=""images/semantic_sequence/self_care_activities_semantic/self_care_activities_semantic_ten.png"" class=""exp-image"">
                    <div class=""question-area""></div> 
                </div>","null","","","","","","","","","","","",""
"","","","","","html-button-response","162","1131598","0.0-162.0","BB4D2ACD4DAB45F5BAB68A472EB2E06C","019dac5c-02df-7bba-846d-50bff1bb4288","019dac5b-243f-7307-af64-a10f53f1ef70","","588","
                <div class=""stimulus-container"">
                    <img src=""images/semantic_sequence/self_care_activities_semantic/self_care_activities_semantic_ten.png"" class=""exp-image"">
                    <div class=""question-area"">
                        <p style=""font-size: 20px; font-weight: bold; margin: 0;"">Is there a person in this image?</p>
                    </div>
                </div>","0","main_experiment_trial","ten","self_care_activities_semantic","semantic_sequence","chronological","","","","","","",""
"","","","","","html-keyboard-response","163","1136599","0.0-163.0","BB4D2ACD4DAB45F5BAB68A472EB2E06C","019dac5c-02df-7bba-846d-50bff1bb4288","019dac5b-243f-7307-af64-a10f53f1ef70","","null","<div style=""background-color: white; width: 100vw; height: 100vh;""></div>","null","","","","","","","","","","","",""
"","","","","","html-keyboard-response","164","1141602","0.0-164.0","BB4D2ACD4DAB45F5BAB68A472EB2E06C","019dac5c-02df-7bba-846d-50bff1bb4288","019dac5b-243f-7307-af64-a10f53f1ef70","","null","
                <div class=""stimulus-container"">
                    <img src=""images/causal_sequence/coin_causal/coin_causal_1.png"" class=""exp-image"">
                    <div class=""question-area""></div> 
                </div>","null","","","","","","","","","","","",""
"","","","","","html-button-response","165","1144210","0.0-165.0","BB4D2ACD4DAB45F5BAB68A472EB2E06C","019dac5c-02df-7bba-846d-50bff1bb4288","019dac5b-243f-7307-af64-a10f53f1ef70","","2607","
                <div class=""stimulus-container"">
                    <img src=""images/causal_sequence/coin_causal/coin_causal_1.png"" class=""exp-image"">
                    <div class=""question-area"">
                        <p style=""font-size: 20px; font-weight: bold; margin: 0;"">Is there a person in this image?</p>
                    </div>
                </div>","0","main_experiment_trial","1","coin_causal","causal_sequence","chronological","","","","","","",""
"","","","","","html-keyboard-response","166","1149223","0.0-166.0","BB4D2ACD4DAB45F5BAB68A472EB2E06C","019dac5c-02df-7bba-846d-50bff1bb4288","019dac5b-243f-7307-af64-a10f53f1ef70","","null","
                <div class=""stimulus-container"">
                    <img src=""images/causal_sequence/coin_causal/coin_causal_2.png"" class=""exp-image"">
                    <div class=""question-area""></div> 
                </div>","null","","","","","","","","","","","",""
"","","","","","html-button-response","167","1150942","0.0-167.0","BB4D2ACD4DAB45F5BAB68A472EB2E06C","019dac5c-02df-7bba-846d-50bff1bb4288","019dac5b-243f-7307-af64-a10f53f1ef70","","1718","
                <div class=""stimulus-container"">
                    <img src=""images/causal_sequence/coin_causal/coin_causal_2.png"" class=""exp-image"">
                    <div class=""question-area"">
                        <p style=""font-size: 20px; font-weight: bold; margin: 0;"">Is there a person in this image?</p>
                    </div>
                </div>","0","main_experiment_trial","2","coin_causal","causal_sequence","chronological","","","","","","",""
"","","","","","html-keyboard-response","168","1155958","0.0-168.0","BB4D2ACD4DAB45F5BAB68A472EB2E06C","019dac5c-02df-7bba-846d-50bff1bb4288","019dac5b-243f-7307-af64-a10f53f1ef70","","null","
                <div class=""stimulus-container"">
                    <img src=""images/causal_sequence/coin_causal/coin_causal_3.png"" class=""exp-image"">
                    <div class=""question-area""></div> 
                </div>","null","","","","","","","","","","","",""
"","","","","","html-button-response","169","1157490","0.0-169.0","BB4D2ACD4DAB45F5BAB68A472EB2E06C","019dac5c-02df-7bba-846d-50bff1bb4288","019dac5b-243f-7307-af64-a10f53f1ef70","","1531","
                <div class=""stimulus-container"">
                    <img src=""images/causal_sequence/coin_causal/coin_causal_3.png"" class=""exp-image"">
                    <div class=""question-area"">
                        <p style=""font-size: 20px; font-weight: bold; margin: 0;"">Is there a person in this image?</p>
                    </div>
                </div>","0","main_experiment_trial","3","coin_causal","causal_sequence","chronological","","","","","","",""
"","","","","","html-keyboard-response","170","1162491","0.0-170.0","BB4D2ACD4DAB45F5BAB68A472EB2E06C","019dac5c-02df-7bba-846d-50bff1bb4288","019dac5b-243f-7307-af64-a10f53f1ef70","","null","
                <div class=""stimulus-container"">
                    <img src=""images/causal_sequence/coin_causal/coin_causal_4.png"" class=""exp-image"">
                    <div class=""question-area""></div> 
                </div>","null","","","","","","","","","","","",""
"","","","","","html-button-response","171","1164398","0.0-171.0","BB4D2ACD4DAB45F5BAB68A472EB2E06C","019dac5c-02df-7bba-846d-50bff1bb4288","019dac5b-243f-7307-af64-a10f53f1ef70","","1906","
                <div class=""stimulus-container"">
                    <img src=""images/causal_sequence/coin_causal/coin_causal_4.png"" class=""exp-image"">
                    <div class=""question-area"">
                        <p style=""font-size: 20px; font-weight: bold; margin: 0;"">Is there a person in this image?</p>
                    </div>
                </div>","0","main_experiment_trial","4","coin_causal","causal_sequence","chronological","","","","","","",""
"","","","","","html-keyboard-response","172","1169399","0.0-172.0","BB4D2ACD4DAB45F5BAB68A472EB2E06C","019dac5c-02df-7bba-846d-50bff1bb4288","019dac5b-243f-7307-af64-a10f53f1ef70","","null","
                <div class=""stimulus-container"">
                    <img src=""images/causal_sequence/coin_causal/coin_causal_5.png"" class=""exp-image"">
                    <div class=""question-area""></div> 
                </div>","null","","","","","","","","","","","",""
"","","","","","html-button-response","173","1170142","0.0-173.0","BB4D2ACD4DAB45F5BAB68A472EB2E06C","019dac5c-02df-7bba-846d-50bff1bb4288","019dac5b-243f-7307-af64-a10f53f1ef70","","743","
                <div class=""stimulus-container"">
                    <img src=""images/causal_sequence/coin_causal/coin_causal_5.png"" class=""exp-image"">
                    <div class=""question-area"">
                        <p style=""font-size: 20px; font-weight: bold; margin: 0;"">Is there a person in this image?</p>
                    </div>
                </div>","0","main_experiment_trial","5","coin_causal","causal_sequence","chronological","","","","","","",""
"","","","","","html-keyboard-response","174","1175144","0.0-174.0","BB4D2ACD4DAB45F5BAB68A472EB2E06C","019dac5c-02df-7bba-846d-50bff1bb4288","019dac5b-243f-7307-af64-a10f53f1ef70","","null","
                <div class=""stimulus-container"">
