"success","timeout","failed_images","failed_audio","failed_video","trial_type","trial_index","time_elapsed","internal_node_id","subject_id","study_id","session_id","view_history","rt","stimulus","response","task","image_index","folder","sequence_type","presentation_order","valuable_image_index","reward_type","target_X","l_dist","r_dist","chosen_image_index","selected_after_X","correct_choice"
"true","false","[]","[]","[]","preload","0","15426","0.0-0.0","25932BD4FF4B44E9A0CDA99DEDBB233D","019d664f-845c-7a2a-8669-79bdff1de7fd","019d6630-2071-75cb-8026-6699844a2719","","","","","","","","","","","","","","","","",""
"","","","","","instructions","1","29655","0.0-1.0","25932BD4FF4B44E9A0CDA99DEDBB233D","019d664f-845c-7a2a-8669-79bdff1de7fd","019d6630-2071-75cb-8026-6699844a2719","[{""page_index"":0,""viewing_time"":14228}]","14228","","","","","","","","","","","","","","",""
"","","","","","instructions","2","33871","0.0-2.0","25932BD4FF4B44E9A0CDA99DEDBB233D","019d664f-845c-7a2a-8669-79bdff1de7fd","019d6630-2071-75cb-8026-6699844a2719","[{""page_index"":0,""viewing_time"":4216}]","4216","","","","","","","","","","","","","","",""
"true","","","","","fullscreen","3","39085","0.0-3.0","25932BD4FF4B44E9A0CDA99DEDBB233D","019d664f-845c-7a2a-8669-79bdff1de7fd","019d6630-2071-75cb-8026-6699844a2719","","4211","","","","","","","","","","","","","","",""
"","","","","","instructions","4","44630","0.0-4.0","25932BD4FF4B44E9A0CDA99DEDBB233D","019d664f-845c-7a2a-8669-79bdff1de7fd","019d6630-2071-75cb-8026-6699844a2719","[{""page_index"":0,""viewing_time"":5545}]","5545","","","","","","","","","","","","","","",""
"","","","","","instructions","5","55063","0.0-5.0","25932BD4FF4B44E9A0CDA99DEDBB233D","019d664f-845c-7a2a-8669-79bdff1de7fd","019d6630-2071-75cb-8026-6699844a2719","[{""page_index"":0,""viewing_time"":10433}]","10433","","","","","","","","","","","","","","",""
"","","","","","html-keyboard-response","6","59074","0.0-6.0","25932BD4FF4B44E9A0CDA99DEDBB233D","019d664f-845c-7a2a-8669-79bdff1de7fd","019d6630-2071-75cb-8026-6699844a2719","","null","
                <div class=""stimulus-container"">
                    <img src=""images/instructions/movie_1.png"" class=""exp-image"">
                    <div class=""question-area""></div> 
                </div>","null","","","","","","","","","","","","",""
"","","","","","html-button-response","7","61253","0.0-7.0","25932BD4FF4B44E9A0CDA99DEDBB233D","019d664f-845c-7a2a-8669-79bdff1de7fd","019d6630-2071-75cb-8026-6699844a2719","","2177","
                <div class=""stimulus-container"">
                    <img src=""images/instructions/movie_1.png"" class=""exp-image"">
                    <div class=""question-area"">
                        <p style=""font-size: 20px; font-weight: bold; margin: 0;"">Was there a person in this image?</p>
                    </div>
                </div>","0","example_question","1","","","","","","","","","","",""
"","","","","","html-keyboard-response","8","65260","0.0-8.0","25932BD4FF4B44E9A0CDA99DEDBB233D","019d664f-845c-7a2a-8669-79bdff1de7fd","019d6630-2071-75cb-8026-6699844a2719","","null","
                <div class=""stimulus-container"">
                    <img src=""images/instructions/movie_2.png"" class=""exp-image"">
                    <div class=""question-area""></div> 
                </div>","null","","","","","","","","","","","","",""
"","","","","","html-button-response","9","66046","0.0-9.0","25932BD4FF4B44E9A0CDA99DEDBB233D","019d664f-845c-7a2a-8669-79bdff1de7fd","019d6630-2071-75cb-8026-6699844a2719","","785","
                <div class=""stimulus-container"">
                    <img src=""images/instructions/movie_2.png"" class=""exp-image"">
                    <div class=""question-area"">
                        <p style=""font-size: 20px; font-weight: bold; margin: 0;"">Was there a person in this image?</p>
                    </div>
                </div>","0","example_question","2","","","","","","","","","","",""
"","","","","","html-keyboard-response","10","70063","0.0-10.0","25932BD4FF4B44E9A0CDA99DEDBB233D","019d664f-845c-7a2a-8669-79bdff1de7fd","019d6630-2071-75cb-8026-6699844a2719","","null","
                <div class=""stimulus-container"">
                    <img src=""images/instructions/movie_3.png"" class=""exp-image"">
                    <div class=""question-area""></div> 
                </div>","null","","","","","","","","","","","","",""
"","","","","","html-button-response","11","71662","0.0-11.0","25932BD4FF4B44E9A0CDA99DEDBB233D","019d664f-845c-7a2a-8669-79bdff1de7fd","019d6630-2071-75cb-8026-6699844a2719","","1598","
                <div class=""stimulus-container"">
                    <img src=""images/instructions/movie_3.png"" class=""exp-image"">
                    <div class=""question-area"">
                        <p style=""font-size: 20px; font-weight: bold; margin: 0;"">Was there a person in this image?</p>
                    </div>
                </div>","0","example_question","3","","","","","","","","","","",""
"","","","","","html-keyboard-response","12","75673","0.0-12.0","25932BD4FF4B44E9A0CDA99DEDBB233D","019d664f-845c-7a2a-8669-79bdff1de7fd","019d6630-2071-75cb-8026-6699844a2719","","null","
                <div class=""stimulus-container"">
                    <img src=""images/instructions/movie_4.png"" class=""exp-image"">
                    <div class=""question-area""></div> 
                </div>","null","","","","","","","","","","","","",""
"","","","","","html-button-response","13","76128","0.0-13.0","25932BD4FF4B44E9A0CDA99DEDBB233D","019d664f-845c-7a2a-8669-79bdff1de7fd","019d6630-2071-75cb-8026-6699844a2719","","454","
                <div class=""stimulus-container"">
                    <img src=""images/instructions/movie_4.png"" class=""exp-image"">
                    <div class=""question-area"">
                        <p style=""font-size: 20px; font-weight: bold; margin: 0;"">Was there a person in this image?</p>
                    </div>
                </div>","0","example_question","4","","","","","","","","","","",""
"","","","","","instructions","14","79842","0.0-14.0","25932BD4FF4B44E9A0CDA99DEDBB233D","019d664f-845c-7a2a-8669-79bdff1de7fd","019d6630-2071-75cb-8026-6699844a2719","[{""page_index"":0,""viewing_time"":3714}]","3714","","","","","","","","","","","","","","",""
"","","","","","instructions","15","85914","0.0-15.0","25932BD4FF4B44E9A0CDA99DEDBB233D","019d664f-845c-7a2a-8669-79bdff1de7fd","019d6630-2071-75cb-8026-6699844a2719","[{""page_index"":0,""viewing_time"":6072}]","6072","","","","","","","","","","","","","","",""
"","","","","","html-keyboard-response","16","90928","0.0-16.0","25932BD4FF4B44E9A0CDA99DEDBB233D","019d664f-845c-7a2a-8669-79bdff1de7fd","019d6630-2071-75cb-8026-6699844a2719","","null","<div style=""background-color: white; width: 100vw; height: 100vh;""></div>","null","","","","","","","","","","","","",""
"","","","","","html-keyboard-response","17","95940","0.0-17.0","25932BD4FF4B44E9A0CDA99DEDBB233D","019d664f-845c-7a2a-8669-79bdff1de7fd","019d6630-2071-75cb-8026-6699844a2719","","null","
                <div class=""stimulus-container"">
                    <img src=""images/causal_sequence/saving_a_cat_causal/saving_a_cat_causal_1.png"" class=""exp-image"">
                    <div class=""question-area""></div> 
                </div>","null","","","","","","","","","","","","",""
"","","","","","html-button-response","18","97126","0.0-18.0","25932BD4FF4B44E9A0CDA99DEDBB233D","019d664f-845c-7a2a-8669-79bdff1de7fd","019d6630-2071-75cb-8026-6699844a2719","","1185","
                <div class=""stimulus-container"">
                    <img src=""images/causal_sequence/saving_a_cat_causal/saving_a_cat_causal_1.png"" class=""exp-image"">
                    <div class=""question-area"">
                        <p style=""font-size: 20px; font-weight: bold; margin: 0;"">Is there a person in this image?</p>
                    </div>
                </div>","0","main_experiment_trial","1","saving_a_cat_causal","causal_sequence","chronological","","","","","","","",""
"","","","","","html-keyboard-response","19","102140","0.0-19.0","25932BD4FF4B44E9A0CDA99DEDBB233D","019d664f-845c-7a2a-8669-79bdff1de7fd","019d6630-2071-75cb-8026-6699844a2719","","null","
                <div class=""stimulus-container"">
                    <img src=""images/causal_sequence/saving_a_cat_causal/saving_a_cat_causal_2.png"" class=""exp-image"">
                    <div class=""question-area""></div> 
                </div>","null","","","","","","","","","","","","",""
"","","","","","html-button-response","20","102909","0.0-20.0","25932BD4FF4B44E9A0CDA99DEDBB233D","019d664f-845c-7a2a-8669-79bdff1de7fd","019d6630-2071-75cb-8026-6699844a2719","","768","
                <div class=""stimulus-container"">
                    <img src=""images/causal_sequence/saving_a_cat_causal/saving_a_cat_causal_2.png"" class=""exp-image"">
                    <div class=""question-area"">
                        <p style=""font-size: 20px; font-weight: bold; margin: 0;"">Is there a person in this image?</p>
                    </div>
                </div>","1","main_experiment_trial","2","saving_a_cat_causal","causal_sequence","chronological","","","","","","","",""
"","","","","","html-keyboard-response","21","107924","0.0-21.0","25932BD4FF4B44E9A0CDA99DEDBB233D","019d664f-845c-7a2a-8669-79bdff1de7fd","019d6630-2071-75cb-8026-6699844a2719","","null","
                <div class=""stimulus-container"">
                    <img src=""images/causal_sequence/saving_a_cat_causal/saving_a_cat_causal_3.png"" class=""exp-image"">
                    <div class=""question-area""></div> 
                </div>","null","","","","","","","","","","","","",""
"","","","","","html-button-response","22","108595","0.0-22.0","25932BD4FF4B44E9A0CDA99DEDBB233D","019d664f-845c-7a2a-8669-79bdff1de7fd","019d6630-2071-75cb-8026-6699844a2719","","670","
                <div class=""stimulus-container"">
                    <img src=""images/causal_sequence/saving_a_cat_causal/saving_a_cat_causal_3.png"" class=""exp-image"">
                    <div class=""question-area"">
                        <p style=""font-size: 20px; font-weight: bold; margin: 0;"">Is there a person in this image?</p>
                    </div>
                </div>","1","main_experiment_trial","3","saving_a_cat_causal","causal_sequence","chronological","","","","","","","",""
"","","","","","html-keyboard-response","23","113606","0.0-23.0","25932BD4FF4B44E9A0CDA99DEDBB233D","019d664f-845c-7a2a-8669-79bdff1de7fd","019d6630-2071-75cb-8026-6699844a2719","","null","
                <div class=""stimulus-container"">
                    <img src=""images/causal_sequence/saving_a_cat_causal/saving_a_cat_causal_4.png"" class=""exp-image"">
                    <div class=""question-area""></div> 
                </div>","null","","","","","","","","","","","","",""
"","","","","","html-button-response","24","114331","0.0-24.0","25932BD4FF4B44E9A0CDA99DEDBB233D","019d664f-845c-7a2a-8669-79bdff1de7fd","019d6630-2071-75cb-8026-6699844a2719","","725","
                <div class=""stimulus-container"">
                    <img src=""images/causal_sequence/saving_a_cat_causal/saving_a_cat_causal_4.png"" class=""exp-image"">
                    <div class=""question-area"">
                        <p style=""font-size: 20px; font-weight: bold; margin: 0;"">Is there a person in this image?</p>
                    </div>
                </div>","0","main_experiment_trial","4","saving_a_cat_causal","causal_sequence","chronological","","","","","","","",""
"","","","","","html-keyboard-response","25","119338","0.0-25.0","25932BD4FF4B44E9A0CDA99DEDBB233D","019d664f-845c-7a2a-8669-79bdff1de7fd","019d6630-2071-75cb-8026-6699844a2719","","null","
                <div class=""stimulus-container"">
                    <img src=""images/causal_sequence/saving_a_cat_causal/saving_a_cat_causal_5.png"" class=""exp-image"">
                    <div class=""question-area""></div> 
                </div>","null","","","","","","","","","","","","",""
"","","","","","html-button-response","26","119741","0.0-26.0","25932BD4FF4B44E9A0CDA99DEDBB233D","019d664f-845c-7a2a-8669-79bdff1de7fd","019d6630-2071-75cb-8026-6699844a2719","","402","
                <div class=""stimulus-container"">
                    <img src=""images/causal_sequence/saving_a_cat_causal/saving_a_cat_causal_5.png"" class=""exp-image"">
                    <div class=""question-area"">
                        <p style=""font-size: 20px; font-weight: bold; margin: 0;"">Is there a person in this image?</p>
                    </div>
                </div>","0","main_experiment_trial","5","saving_a_cat_causal","causal_sequence","chronological","","","","","","","",""
"","","","","","html-keyboard-response","27","124744","0.0-27.0","25932BD4FF4B44E9A0CDA99DEDBB233D","019d664f-845c-7a2a-8669-79bdff1de7fd","019d6630-2071-75cb-8026-6699844a2719","","null","
                <div class=""stimulus-container"">
                    <img src=""images/causal_sequence/saving_a_cat_causal/saving_a_cat_causal_6.png"" class=""exp-image"">
                    <div class=""question-area""></div> 
                </div>","null","","","","","","","","","","","","",""
"","","","","","html-button-response","28","125186","0.0-28.0","25932BD4FF4B44E9A0CDA99DEDBB233D","019d664f-845c-7a2a-8669-79bdff1de7fd","019d6630-2071-75cb-8026-6699844a2719","","441","
                <div class=""stimulus-container"">
                    <img src=""images/causal_sequence/saving_a_cat_causal/saving_a_cat_causal_6.png"" class=""exp-image"">
                    <div class=""question-area"">
                        <p style=""font-size: 20px; font-weight: bold; margin: 0;"">Is there a person in this image?</p>
                    </div>
                </div>","0","main_experiment_trial","6","saving_a_cat_causal","causal_sequence","chronological","","","","","","","",""
"","","","","","html-keyboard-response","29","130198","0.0-29.0","25932BD4FF4B44E9A0CDA99DEDBB233D","019d664f-845c-7a2a-8669-79bdff1de7fd","019d6630-2071-75cb-8026-6699844a2719","","null","
                <div class=""stimulus-container"">
                    <img src=""images/causal_sequence/saving_a_cat_causal/saving_a_cat_causal_7.png"" class=""exp-image"">
                    <div class=""question-area""></div> 
                </div>","null","","","","","","","","","","","","",""
"","","","","","html-button-response","30","130614","0.0-30.0","25932BD4FF4B44E9A0CDA99DEDBB233D","019d664f-845c-7a2a-8669-79bdff1de7fd","019d6630-2071-75cb-8026-6699844a2719","","415","
                <div class=""stimulus-container"">
                    <img src=""images/causal_sequence/saving_a_cat_causal/saving_a_cat_causal_7.png"" class=""exp-image"">
                    <div class=""question-area"">
                        <p style=""font-size: 20px; font-weight: bold; margin: 0;"">Is there a person in this image?</p>
                    </div>
                </div>","0","main_experiment_trial","7","saving_a_cat_causal","causal_sequence","chronological","","","","","","","",""
"","","","","","html-keyboard-response","31","135618","0.0-31.0","25932BD4FF4B44E9A0CDA99DEDBB233D","019d664f-845c-7a2a-8669-79bdff1de7fd","019d6630-2071-75cb-8026-6699844a2719","","null","
                <div class=""stimulus-container"">
                    <img src=""images/causal_sequence/saving_a_cat_causal/saving_a_cat_causal_8.png"" class=""exp-image"">
                    <div class=""question-area""></div> 
                </div>","null","","","","","","","","","","","","",""
"","","","","","html-button-response","32","136058","0.0-32.0","25932BD4FF4B44E9A0CDA99DEDBB233D","019d664f-845c-7a2a-8669-79bdff1de7fd","019d6630-2071-75cb-8026-6699844a2719","","439","
                <div class=""stimulus-container"">
                    <img src=""images/causal_sequence/saving_a_cat_causal/saving_a_cat_causal_8.png"" class=""exp-image"">
                    <div class=""question-area"">
                        <p style=""font-size: 20px; font-weight: bold; margin: 0;"">Is there a person in this image?</p>
                    </div>
                </div>","0","main_experiment_trial","8","saving_a_cat_causal","causal_sequence","chronological","","","","","","","",""
"","","","","","html-keyboard-response","33","141071","0.0-33.0","25932BD4FF4B44E9A0CDA99DEDBB233D","019d664f-845c-7a2a-8669-79bdff1de7fd","019d6630-2071-75cb-8026-6699844a2719","","null","
                <div class=""stimulus-container"">
                    <img src=""images/causal_sequence/saving_a_cat_causal/saving_a_cat_causal_9.png"" class=""exp-image"">
                    <div class=""question-area""></div> 
                </div>","null","","","","","","","","","","","","",""
"","","","","","html-button-response","34","141561","0.0-34.0","25932BD4FF4B44E9A0CDA99DEDBB233D","019d664f-845c-7a2a-8669-79bdff1de7fd","019d6630-2071-75cb-8026-6699844a2719","","489","
                <div class=""stimulus-container"">
                    <img src=""images/causal_sequence/saving_a_cat_causal/saving_a_cat_causal_9.png"" class=""exp-image"">
                    <div class=""question-area"">
                        <p style=""font-size: 20px; font-weight: bold; margin: 0;"">Is there a person in this image?</p>
                    </div>
                </div>","0","main_experiment_trial","9","saving_a_cat_causal","causal_sequence","chronological","","","","","","","",""
"","","","","","html-keyboard-response","35","146573","0.0-35.0","25932BD4FF4B44E9A0CDA99DEDBB233D","019d664f-845c-7a2a-8669-79bdff1de7fd","019d6630-2071-75cb-8026-6699844a2719","","null","
                <div class=""stimulus-container"">
                    <img src=""images/causal_sequence/saving_a_cat_causal/saving_a_cat_causal_ten.png"" class=""exp-image"">
                    <div class=""question-area""></div> 
                </div>","null","","","","","","","","","","","","",""
"","","","","","html-button-response","36","147090","0.0-36.0","25932BD4FF4B44E9A0CDA99DEDBB233D","019d664f-845c-7a2a-8669-79bdff1de7fd","019d6630-2071-75cb-8026-6699844a2719","","516","
                <div class=""stimulus-container"">
                    <img src=""images/causal_sequence/saving_a_cat_causal/saving_a_cat_causal_ten.png"" class=""exp-image"">
                    <div class=""question-area"">
                        <p style=""font-size: 20px; font-weight: bold; margin: 0;"">Is there a person in this image?</p>
                    </div>
                </div>","0","main_experiment_trial","ten","saving_a_cat_causal","causal_sequence","chronological","","","","","","","",""
"","","","","","html-keyboard-response","37","152092","0.0-37.0","25932BD4FF4B44E9A0CDA99DEDBB233D","019d664f-845c-7a2a-8669-79bdff1de7fd","019d6630-2071-75cb-8026-6699844a2719","","null","<div style=""background-color: white; width: 100vw; height: 100vh;""></div>","null","","","","","","","","","","","","",""
"","","","","","html-keyboard-response","38","157104","0.0-38.0","25932BD4FF4B44E9A0CDA99DEDBB233D","019d664f-845c-7a2a-8669-79bdff1de7fd","019d6630-2071-75cb-8026-6699844a2719","","null","
                <div class=""stimulus-container"">
                    <img src=""images/schematic_sequence/supermarket_scheme/supermarket_scheme_1.png"" class=""exp-image"">
                    <div class=""question-area""></div> 
                </div>","null","","","","","","","","","","","","",""
"","","","","","html-button-response","39","157993","0.0-39.0","25932BD4FF4B44E9A0CDA99DEDBB233D","019d664f-845c-7a2a-8669-79bdff1de7fd","019d6630-2071-75cb-8026-6699844a2719","","887","
                <div class=""stimulus-container"">
                    <img src=""images/schematic_sequence/supermarket_scheme/supermarket_scheme_1.png"" class=""exp-image"">
                    <div class=""question-area"">
                        <p style=""font-size: 20px; font-weight: bold; margin: 0;"">Is there a person in this image?</p>
                    </div>
                </div>","1","main_experiment_trial","1","supermarket_scheme","schematic_sequence","chronological","","","","","","","",""
"","","","","","html-keyboard-response","40","163000","0.0-40.0","25932BD4FF4B44E9A0CDA99DEDBB233D","019d664f-845c-7a2a-8669-79bdff1de7fd","019d6630-2071-75cb-8026-6699844a2719","","null","
                <div class=""stimulus-container"">
                    <img src=""images/schematic_sequence/supermarket_scheme/supermarket_scheme_2.png"" class=""exp-image"">
                    <div class=""question-area""></div> 
                </div>","null","","","","","","","","","","","","",""
"","","","","","html-button-response","41","165234","0.0-41.0","25932BD4FF4B44E9A0CDA99DEDBB233D","019d664f-845c-7a2a-8669-79bdff1de7fd","019d6630-2071-75cb-8026-6699844a2719","","2232","
                <div class=""stimulus-container"">
                    <img src=""images/schematic_sequence/supermarket_scheme/supermarket_scheme_2.png"" class=""exp-image"">
                    <div class=""question-area"">
                        <p style=""font-size: 20px; font-weight: bold; margin: 0;"">Is there a person in this image?</p>
                    </div>
                </div>","1","main_experiment_trial","2","supermarket_scheme","schematic_sequence","chronological","","","","","","","",""
"","","","","","html-keyboard-response","42","170240","0.0-42.0","25932BD4FF4B44E9A0CDA99DEDBB233D","019d664f-845c-7a2a-8669-79bdff1de7fd","019d6630-2071-75cb-8026-6699844a2719","","null","
                <div class=""stimulus-container"">
                    <img src=""images/schematic_sequence/supermarket_scheme/supermarket_scheme_3.png"" class=""exp-image"">
                    <div class=""question-area""></div> 
                </div>","null","","","","","","","","","","","","",""
"","","","","","html-button-response","43","172031","0.0-43.0","25932BD4FF4B44E9A0CDA99DEDBB233D","019d664f-845c-7a2a-8669-79bdff1de7fd","019d6630-2071-75cb-8026-6699844a2719","","1789","
                <div class=""stimulus-container"">
                    <img src=""images/schematic_sequence/supermarket_scheme/supermarket_scheme_3.png"" class=""exp-image"">
                    <div class=""question-area"">
                        <p style=""font-size: 20px; font-weight: bold; margin: 0;"">Is there a person in this image?</p>
                    </div>
                </div>","1","main_experiment_trial","3","supermarket_scheme","schematic_sequence","chronological","","","","","","","",""
"","","","","","html-keyboard-response","44","177040","0.0-44.0","25932BD4FF4B44E9A0CDA99DEDBB233D","019d664f-845c-7a2a-8669-79bdff1de7fd","019d6630-2071-75cb-8026-6699844a2719","","null","
                <div class=""stimulus-container"">
                    <img src=""images/schematic_sequence/supermarket_scheme/supermarket_scheme_4.png"" class=""exp-image"">
                    <div class=""question-area""></div> 
                </div>","null","","","","","","","","","","","","",""
"","","","","","html-button-response","45","177537","0.0-45.0","25932BD4FF4B44E9A0CDA99DEDBB233D","019d664f-845c-7a2a-8669-79bdff1de7fd","019d6630-2071-75cb-8026-6699844a2719","","496","
                <div class=""stimulus-container"">
                    <img src=""images/schematic_sequence/supermarket_scheme/supermarket_scheme_4.png"" class=""exp-image"">
                    <div class=""question-area"">
                        <p style=""font-size: 20px; font-weight: bold; margin: 0;"">Is there a person in this image?</p>
                    </div>
                </div>","0","main_experiment_trial","4","supermarket_scheme","schematic_sequence","chronological","","","","","","","",""
"","","","","","html-keyboard-response","46","182545","0.0-46.0","25932BD4FF4B44E9A0CDA99DEDBB233D","019d664f-845c-7a2a-8669-79bdff1de7fd","019d6630-2071-75cb-8026-6699844a2719","","null","
                <div class=""stimulus-container"">
                    <img src=""images/schematic_sequence/supermarket_scheme/supermarket_scheme_5.png"" class=""exp-image"">
                    <div class=""question-area""></div> 
                </div>","null","","","","","","","","","","","","",""
"","","","","","html-button-response","47","183252","0.0-47.0","25932BD4FF4B44E9A0CDA99DEDBB233D","019d664f-845c-7a2a-8669-79bdff1de7fd","019d6630-2071-75cb-8026-6699844a2719","","706","
                <div class=""stimulus-container"">
                    <img src=""images/schematic_sequence/supermarket_scheme/supermarket_scheme_5.png"" class=""exp-image"">
                    <div class=""question-area"">
                        <p style=""font-size: 20px; font-weight: bold; margin: 0;"">Is there a person in this image?</p>
                    </div>
                </div>","1","main_experiment_trial","5","supermarket_scheme","schematic_sequence","chronological","","","","","","","",""
"","","","","","html-keyboard-response","48","188264","0.0-48.0","25932BD4FF4B44E9A0CDA99DEDBB233D","019d664f-845c-7a2a-8669-79bdff1de7fd","019d6630-2071-75cb-8026-6699844a2719","","null","
                <div class=""stimulus-container"">
                    <img src=""images/schematic_sequence/supermarket_scheme/supermarket_scheme_6.png"" class=""exp-image"">
                    <div class=""question-area""></div> 
                </div>","null","","","","","","","","","","","","",""
"","","","","","html-button-response","49","189726","0.0-49.0","25932BD4FF4B44E9A0CDA99DEDBB233D","019d664f-845c-7a2a-8669-79bdff1de7fd","019d6630-2071-75cb-8026-6699844a2719","","1461","
                <div class=""stimulus-container"">
                    <img src=""images/schematic_sequence/supermarket_scheme/supermarket_scheme_6.png"" class=""exp-image"">
                    <div class=""question-area"">
                        <p style=""font-size: 20px; font-weight: bold; margin: 0;"">Is there a person in this image?</p>
                    </div>
                </div>","0","main_experiment_trial","6","supermarket_scheme","schematic_sequence","chronological","","","","","","","",""
"","","","","","html-keyboard-response","50","194732","0.0-50.0","25932BD4FF4B44E9A0CDA99DEDBB233D","019d664f-845c-7a2a-8669-79bdff1de7fd","019d6630-2071-75cb-8026-6699844a2719","","null","
                <div class=""stimulus-container"">
                    <img src=""images/schematic_sequence/supermarket_scheme/supermarket_scheme_7.png"" class=""exp-image"">
                    <div class=""question-area""></div> 
                </div>","null","","","","","","","","","","","","",""
"","","","","","html-button-response","51","196078","0.0-51.0","25932BD4FF4B44E9A0CDA99DEDBB233D","019d664f-845c-7a2a-8669-79bdff1de7fd","019d6630-2071-75cb-8026-6699844a2719","","1345","
                <div class=""stimulus-container"">
                    <img src=""images/schematic_sequence/supermarket_scheme/supermarket_scheme_7.png"" class=""exp-image"">
                    <div class=""question-area"">
                        <p style=""font-size: 20px; font-weight: bold; margin: 0;"">Is there a person in this image?</p>
                    </div>
                </div>","0","main_experiment_trial","7","supermarket_scheme","schematic_sequence","chronological","","","","","","","",""
"","","","","","html-keyboard-response","52","201092","0.0-52.0","25932BD4FF4B44E9A0CDA99DEDBB233D","019d664f-845c-7a2a-8669-79bdff1de7fd","019d6630-2071-75cb-8026-6699844a2719","","null","
                <div class=""stimulus-container"">
                    <img src=""images/schematic_sequence/supermarket_scheme/supermarket_scheme_8.png"" class=""exp-image"">
                    <div class=""question-area""></div> 
                </div>","null","","","","","","","","","","","","",""
"","","","","","html-button-response","53","201468","0.0-53.0","25932BD4FF4B44E9A0CDA99DEDBB233D","019d664f-845c-7a2a-8669-79bdff1de7fd","019d6630-2071-75cb-8026-6699844a2719","","375","
                <div class=""stimulus-container"">
                    <img src=""images/schematic_sequence/supermarket_scheme/supermarket_scheme_8.png"" class=""exp-image"">
                    <div class=""question-area"">
                        <p style=""font-size: 20px; font-weight: bold; margin: 0;"">Is there a person in this image?</p>
                    </div>
                </div>","0","main_experiment_trial","8","supermarket_scheme","schematic_sequence","chronological","","","","","","","",""
"","","","","","html-keyboard-response","54","206478","0.0-54.0","25932BD4FF4B44E9A0CDA99DEDBB233D","019d664f-845c-7a2a-8669-79bdff1de7fd","019d6630-2071-75cb-8026-6699844a2719","","null","
                <div class=""stimulus-container"">
                    <img src=""images/schematic_sequence/supermarket_scheme/supermarket_scheme_9.png"" class=""exp-image"">
                    <div class=""question-area""></div> 
                </div>","null","","","","","","","","","","","","",""
"","","","","","html-button-response","55","207583","0.0-55.0","25932BD4FF4B44E9A0CDA99DEDBB233D","019d664f-845c-7a2a-8669-79bdff1de7fd","019d6630-2071-75cb-8026-6699844a2719","","1103","
                <div class=""stimulus-container"">
                    <img src=""images/schematic_sequence/supermarket_scheme/supermarket_scheme_9.png"" class=""exp-image"">
                    <div class=""question-area"">
                        <p style=""font-size: 20px; font-weight: bold; margin: 0;"">Is there a person in this image?</p>
                    </div>
                </div>","0","main_experiment_trial","9","supermarket_scheme","schematic_sequence","chronological","","","","","","","",""
"","","","","","html-keyboard-response","56","212587","0.0-56.0","25932BD4FF4B44E9A0CDA99DEDBB233D","019d664f-845c-7a2a-8669-79bdff1de7fd","019d6630-2071-75cb-8026-6699844a2719","","null","
                <div class=""stimulus-container"">
                    <img src=""images/schematic_sequence/supermarket_scheme/supermarket_scheme_ten.png"" class=""exp-image"">
                    <div class=""question-area""></div> 
                </div>","null","","","","","","","","","","","","",""
"","","","","","html-button-response","57","213214","0.0-57.0","25932BD4FF4B44E9A0CDA99DEDBB233D","019d664f-845c-7a2a-8669-79bdff1de7fd","019d6630-2071-75cb-8026-6699844a2719","","626","
                <div class=""stimulus-container"">
                    <img src=""images/schematic_sequence/supermarket_scheme/supermarket_scheme_ten.png"" class=""exp-image"">
                    <div class=""question-area"">
                        <p style=""font-size: 20px; font-weight: bold; margin: 0;"">Is there a person in this image?</p>
                    </div>
                </div>","1","main_experiment_trial","ten","supermarket_scheme","schematic_sequence","chronological","","","","","","","",""
"","","","","","html-keyboard-response","58","218216","0.0-58.0","25932BD4FF4B44E9A0CDA99DEDBB233D","019d664f-845c-7a2a-8669-79bdff1de7fd","019d6630-2071-75cb-8026-6699844a2719","","null","<div style=""background-color: white; width: 100vw; height: 100vh;""></div>","null","","","","","","","","","","","","",""
"","","","","","html-keyboard-response","59","223228","0.0-59.0","25932BD4FF4B44E9A0CDA99DEDBB233D","019d664f-845c-7a2a-8669-79bdff1de7fd","019d6630-2071-75cb-8026-6699844a2719","","null","
                <div class=""stimulus-container"">
                    <img src=""images/causal_sequence/dog_causal/dog_causal_1.png"" class=""exp-image"">
                    <div class=""question-area""></div> 
                </div>","null","","","","","","","","","","","","",""
"","","","","","html-button-response","60","225326","0.0-60.0","25932BD4FF4B44E9A0CDA99DEDBB233D","019d664f-845c-7a2a-8669-79bdff1de7fd","019d6630-2071-75cb-8026-6699844a2719","","2096","
                <div class=""stimulus-container"">
                    <img src=""images/causal_sequence/dog_causal/dog_causal_1.png"" class=""exp-image"">
                    <div class=""question-area"">
                        <p style=""font-size: 20px; font-weight: bold; margin: 0;"">Is there a person in this image?</p>
                    </div>
                </div>","0","main_experiment_trial","1","dog_causal","causal_sequence","chronological","","","","","","","",""
"","","","","","html-keyboard-response","61","230339","0.0-61.0","25932BD4FF4B44E9A0CDA99DEDBB233D","019d664f-845c-7a2a-8669-79bdff1de7fd","019d6630-2071-75cb-8026-6699844a2719","","null","
                <div class=""stimulus-container"">
                    <img src=""images/causal_sequence/dog_causal/dog_causal_2.png"" class=""exp-image"">
                    <div class=""question-area""></div> 
                </div>","null","","","","","","","","","","","","",""
"","","","","","html-button-response","62","232005","0.0-62.0","25932BD4FF4B44E9A0CDA99DEDBB233D","019d664f-845c-7a2a-8669-79bdff1de7fd","019d6630-2071-75cb-8026-6699844a2719","","1665","
                <div class=""stimulus-container"">
                    <img src=""images/causal_sequence/dog_causal/dog_causal_2.png"" class=""exp-image"">
                    <div class=""question-area"">
                        <p style=""font-size: 20px; font-weight: bold; margin: 0;"">Is there a person in this image?</p>
                    </div>
                </div>","0","main_experiment_trial","2","dog_causal","causal_sequence","chronological","","","","","","","",""
"","","","","","html-keyboard-response","63","237010","0.0-63.0","25932BD4FF4B44E9A0CDA99DEDBB233D","019d664f-845c-7a2a-8669-79bdff1de7fd","019d6630-2071-75cb-8026-6699844a2719","","null","
                <div class=""stimulus-container"">
                    <img src=""images/causal_sequence/dog_causal/dog_causal_3.png"" class=""exp-image"">
                    <div class=""question-area""></div> 
                </div>","null","","","","","","","","","","","","",""
"","","","","","html-button-response","64","237847","0.0-64.0","25932BD4FF4B44E9A0CDA99DEDBB233D","019d664f-845c-7a2a-8669-79bdff1de7fd","019d6630-2071-75cb-8026-6699844a2719","","835","
                <div class=""stimulus-container"">
                    <img src=""images/causal_sequence/dog_causal/dog_causal_3.png"" class=""exp-image"">
                    <div class=""question-area"">
                        <p style=""font-size: 20px; font-weight: bold; margin: 0;"">Is there a person in this image?</p>
                    </div>
                </div>","0","main_experiment_trial","3","dog_causal","causal_sequence","chronological","","","","","","","",""
"","","","","","html-keyboard-response","65","242861","0.0-65.0","25932BD4FF4B44E9A0CDA99DEDBB233D","019d664f-845c-7a2a-8669-79bdff1de7fd","019d6630-2071-75cb-8026-6699844a2719","","null","
                <div class=""stimulus-container"">
                    <img src=""images/causal_sequence/dog_causal/dog_causal_4.png"" class=""exp-image"">
                    <div class=""question-area""></div> 
                </div>","null","","","","","","","","","","","","",""
"","","","","","html-button-response","66","243277","0.0-66.0","25932BD4FF4B44E9A0CDA99DEDBB233D","019d664f-845c-7a2a-8669-79bdff1de7fd","019d6630-2071-75cb-8026-6699844a2719","","415","
                <div class=""stimulus-container"">
                    <img src=""images/causal_sequence/dog_causal/dog_causal_4.png"" class=""exp-image"">
                    <div class=""question-area"">
                        <p style=""font-size: 20px; font-weight: bold; margin: 0;"">Is there a person in this image?</p>
                    </div>
                </div>","0","main_experiment_trial","4","dog_causal","causal_sequence","chronological","","","","","","","",""
"","","","","","html-keyboard-response","67","248283","0.0-67.0","25932BD4FF4B44E9A0CDA99DEDBB233D","019d664f-845c-7a2a-8669-79bdff1de7fd","019d6630-2071-75cb-8026-6699844a2719","","null","
                <div class=""stimulus-container"">
                    <img src=""images/causal_sequence/dog_causal/dog_causal_5.png"" class=""exp-image"">
                    <div class=""question-area""></div> 
                </div>","null","","","","","","","","","","","","",""
"","","","","","html-button-response","68","248716","0.0-68.0","25932BD4FF4B44E9A0CDA99DEDBB233D","019d664f-845c-7a2a-8669-79bdff1de7fd","019d6630-2071-75cb-8026-6699844a2719","","432","
                <div class=""stimulus-container"">
                    <img src=""images/causal_sequence/dog_causal/dog_causal_5.png"" class=""exp-image"">
                    <div class=""question-area"">
                        <p style=""font-size: 20px; font-weight: bold; margin: 0;"">Is there a person in this image?</p>
                    </div>
                </div>","0","main_experiment_trial","5","dog_causal","causal_sequence","chronological","","","","","","","",""
"","","","","","html-keyboard-response","69","253719","0.0-69.0","25932BD4FF4B44E9A0CDA99DEDBB233D","019d664f-845c-7a2a-8669-79bdff1de7fd","019d6630-2071-75cb-8026-6699844a2719","","null","
                <div class=""stimulus-container"">
                    <img src=""images/causal_sequence/dog_causal/dog_causal_6.png"" class=""exp-image"">
                    <div class=""question-area""></div> 
                </div>","null","","","","","","","","","","","","",""
"","","","","","html-button-response","70","254117","0.0-70.0","25932BD4FF4B44E9A0CDA99DEDBB233D","019d664f-845c-7a2a-8669-79bdff1de7fd","019d6630-2071-75cb-8026-6699844a2719","","397","
                <div class=""stimulus-container"">
                    <img src=""images/causal_sequence/dog_causal/dog_causal_6.png"" class=""exp-image"">
                    <div class=""question-area"">
                        <p style=""font-size: 20px; font-weight: bold; margin: 0;"">Is there a person in this image?</p>
                    </div>
                </div>","0","main_experiment_trial","6","dog_causal","causal_sequence","chronological","","","","","","","",""
"","","","","","html-keyboard-response","71","259132","0.0-71.0","25932BD4FF4B44E9A0CDA99DEDBB233D","019d664f-845c-7a2a-8669-79bdff1de7fd","019d6630-2071-75cb-8026-6699844a2719","","null","
                <div class=""stimulus-container"">
                    <img src=""images/causal_sequence/dog_causal/dog_causal_7.png"" class=""exp-image"">
                    <div class=""question-area""></div> 
                </div>","null","","","","","","","","","","","","",""
"","","","","","html-button-response","72","260044","0.0-72.0","25932BD4FF4B44E9A0CDA99DEDBB233D","019d664f-845c-7a2a-8669-79bdff1de7fd","019d6630-2071-75cb-8026-6699844a2719","","911","
                <div class=""stimulus-container"">
                    <img src=""images/causal_sequence/dog_causal/dog_causal_7.png"" class=""exp-image"">
                    <div class=""question-area"">
                        <p style=""font-size: 20px; font-weight: bold; margin: 0;"">Is there a person in this image?</p>
                    </div>
                </div>","0","main_experiment_trial","7","dog_causal","causal_sequence","chronological","","","","","","","",""
"","","","","","html-keyboard-response","73","265053","0.0-73.0","25932BD4FF4B44E9A0CDA99DEDBB233D","019d664f-845c-7a2a-8669-79bdff1de7fd","019d6630-2071-75cb-8026-6699844a2719","","null","
                <div class=""stimulus-container"">
                    <img src=""images/causal_sequence/dog_causal/dog_causal_8.png"" class=""exp-image"">
                    <div class=""question-area""></div> 
                </div>","null","","","","","","","","","","","","",""
"","","","","","html-button-response","74","266181","0.0-74.0","25932BD4FF4B44E9A0CDA99DEDBB233D","019d664f-845c-7a2a-8669-79bdff1de7fd","019d6630-2071-75cb-8026-6699844a2719","","1127","
                <div class=""stimulus-container"">
                    <img src=""images/causal_sequence/dog_causal/dog_causal_8.png"" class=""exp-image"">
                    <div class=""question-area"">
                        <p style=""font-size: 20px; font-weight: bold; margin: 0;"">Is there a person in this image?</p>
                    </div>
                </div>","0","main_experiment_trial","8","dog_causal","causal_sequence","chronological","","","","","","","",""
"","","","","","html-keyboard-response","75","271194","0.0-75.0","25932BD4FF4B44E9A0CDA99DEDBB233D","019d664f-845c-7a2a-8669-79bdff1de7fd","019d6630-2071-75cb-8026-6699844a2719","","null","
                <div class=""stimulus-container"">
                    <img src=""images/causal_sequence/dog_causal/dog_causal_9.png"" class=""exp-image"">
                    <div class=""question-area""></div> 
                </div>","null","","","","","","","","","","","","",""
"","","","","","html-button-response","76","271551","0.0-76.0","25932BD4FF4B44E9A0CDA99DEDBB233D","019d664f-845c-7a2a-8669-79bdff1de7fd","019d6630-2071-75cb-8026-6699844a2719","","356","
                <div class=""stimulus-container"">
                    <img src=""images/causal_sequence/dog_causal/dog_causal_9.png"" class=""exp-image"">
                    <div class=""question-area"">
                        <p style=""font-size: 20px; font-weight: bold; margin: 0;"">Is there a person in this image?</p>
                    </div>
                </div>","0","main_experiment_trial","9","dog_causal","causal_sequence","chronological","","","","","","","",""
"","","","","","html-keyboard-response","77","276561","0.0-77.0","25932BD4FF4B44E9A0CDA99DEDBB233D","019d664f-845c-7a2a-8669-79bdff1de7fd","019d6630-2071-75cb-8026-6699844a2719","","null","
                <div class=""stimulus-container"">
                    <img src=""images/causal_sequence/dog_causal/dog_causal_ten.png"" class=""exp-image"">
                    <div class=""question-area""></div> 
                </div>","null","","","","","","","","","","","","",""
"","","","","","html-button-response","78","277868","0.0-78.0","25932BD4FF4B44E9A0CDA99DEDBB233D","019d664f-845c-7a2a-8669-79bdff1de7fd","019d6630-2071-75cb-8026-6699844a2719","","1306","
                <div class=""stimulus-container"">
                    <img src=""images/causal_sequence/dog_causal/dog_causal_ten.png"" class=""exp-image"">
                    <div class=""question-area"">
                        <p style=""font-size: 20px; font-weight: bold; margin: 0;"">Is there a person in this image?</p>
                    </div>
                </div>","0","main_experiment_trial","ten","dog_causal","causal_sequence","chronological","","","","","","","",""
"","","","","","html-keyboard-response","79","282881","0.0-79.0","25932BD4FF4B44E9A0CDA99DEDBB233D","019d664f-845c-7a2a-8669-79bdff1de7fd","019d6630-2071-75cb-8026-6699844a2719","","null","<div style=""background-color: white; width: 100vw; height: 100vh;""></div>","null","","","","","","","","","","","","",""
"","","","","","html-keyboard-response","80","287886","0.0-80.0","25932BD4FF4B44E9A0CDA99DEDBB233D","019d664f-845c-7a2a-8669-79bdff1de7fd","019d6630-2071-75cb-8026-6699844a2719","","null","
                <div class=""stimulus-container"">
                    <img src=""images/causal_sequence/the_performance_causal/the_performance_causal_1.png"" class=""exp-image"">
                    <div class=""question-area""></div> 
                </div>","null","","","","","","","","","","","","",""
"","","","","","html-button-response","81","288397","0.0-81.0","25932BD4FF4B44E9A0CDA99DEDBB233D","019d664f-845c-7a2a-8669-79bdff1de7fd","019d6630-2071-75cb-8026-6699844a2719","","509","
                <div class=""stimulus-container"">
                    <img src=""images/causal_sequence/the_performance_causal/the_performance_causal_1.png"" class=""exp-image"">
                    <div class=""question-area"">
                        <p style=""font-size: 20px; font-weight: bold; margin: 0;"">Is there a person in this image?</p>
                    </div>
                </div>","0","main_experiment_trial","1","the_performance_causal","causal_sequence","chronological","","","","","","","",""
"","","","","","html-keyboard-response","82","293398","0.0-82.0","25932BD4FF4B44E9A0CDA99DEDBB233D","019d664f-845c-7a2a-8669-79bdff1de7fd","019d6630-2071-75cb-8026-6699844a2719","","null","
                <div class=""stimulus-container"">
                    <img src=""images/causal_sequence/the_performance_causal/the_performance_causal_2.png"" class=""exp-image"">
                    <div class=""question-area""></div> 
                </div>","null","","","","","","","","","","","","",""
"","","","","","html-button-response","83","293957","0.0-83.0","25932BD4FF4B44E9A0CDA99DEDBB233D","019d664f-845c-7a2a-8669-79bdff1de7fd","019d6630-2071-75cb-8026-6699844a2719","","559","
                <div class=""stimulus-container"">
                    <img src=""images/causal_sequence/the_performance_causal/the_performance_causal_2.png"" class=""exp-image"">
                    <div class=""question-area"">
                        <p style=""font-size: 20px; font-weight: bold; margin: 0;"">Is there a person in this image?</p>
                    </div>
                </div>","0","main_experiment_trial","2","the_performance_causal","causal_sequence","chronological","","","","","","","",""
"","","","","","html-keyboard-response","84","298966","0.0-84.0","25932BD4FF4B44E9A0CDA99DEDBB233D","019d664f-845c-7a2a-8669-79bdff1de7fd","019d6630-2071-75cb-8026-6699844a2719","","null","
                <div class=""stimulus-container"">
                    <img src=""images/causal_sequence/the_performance_causal/the_performance_causal_3.png"" class=""exp-image"">
                    <div class=""question-area""></div> 
                </div>","null","","","","","","","","","","","","",""
"","","","","","html-button-response","85","300411","0.0-85.0","25932BD4FF4B44E9A0CDA99DEDBB233D","019d664f-845c-7a2a-8669-79bdff1de7fd","019d6630-2071-75cb-8026-6699844a2719","","1444","
                <div class=""stimulus-container"">
                    <img src=""images/causal_sequence/the_performance_causal/the_performance_causal_3.png"" class=""exp-image"">
                    <div class=""question-area"">
                        <p style=""font-size: 20px; font-weight: bold; margin: 0;"">Is there a person in this image?</p>
                    </div>
                </div>","0","main_experiment_trial","3","the_performance_causal","causal_sequence","chronological","","","","","","","",""
"","","","","","html-keyboard-response","86","305423","0.0-86.0","25932BD4FF4B44E9A0CDA99DEDBB233D","019d664f-845c-7a2a-8669-79bdff1de7fd","019d6630-2071-75cb-8026-6699844a2719","","null","
                <div class=""stimulus-container"">
                    <img src=""images/causal_sequence/the_performance_causal/the_performance_causal_4.png"" class=""exp-image"">
                    <div class=""question-area""></div> 
                </div>","null","","","","","","","","","","","","",""
"","","","","","html-button-response","87","306328","0.0-87.0","25932BD4FF4B44E9A0CDA99DEDBB233D","019d664f-845c-7a2a-8669-79bdff1de7fd","019d6630-2071-75cb-8026-6699844a2719","","904","
                <div class=""stimulus-container"">
                    <img src=""images/causal_sequence/the_performance_causal/the_performance_causal_4.png"" class=""exp-image"">
                    <div class=""question-area"">
                        <p style=""font-size: 20px; font-weight: bold; margin: 0;"">Is there a person in this image?</p>
                    </div>
                </div>","0","main_experiment_trial","4","the_performance_causal","causal_sequence","chronological","","","","","","","",""
"","","","","","html-keyboard-response","88","311334","0.0-88.0","25932BD4FF4B44E9A0CDA99DEDBB233D","019d664f-845c-7a2a-8669-79bdff1de7fd","019d6630-2071-75cb-8026-6699844a2719","","null","
                <div class=""stimulus-container"">
                    <img src=""images/causal_sequence/the_performance_causal/the_performance_causal_5.png"" class=""exp-image"">
                    <div class=""question-area""></div> 
                </div>","null","","","","","","","","","","","","",""
"","","","","","html-button-response","89","311711","0.0-89.0","25932BD4FF4B44E9A0CDA99DEDBB233D","019d664f-845c-7a2a-8669-79bdff1de7fd","019d6630-2071-75cb-8026-6699844a2719","","375","
                <div class=""stimulus-container"">
                    <img src=""images/causal_sequence/the_performance_causal/the_performance_causal_5.png"" class=""exp-image"">
                    <div class=""question-area"">
                        <p style=""font-size: 20px; font-weight: bold; margin: 0;"">Is there a person in this image?</p>
                    </div>
                </div>","0","main_experiment_trial","5","the_performance_causal","causal_sequence","chronological","","","","","","","",""
"","","","","","html-keyboard-response","90","316714","0.0-90.0","25932BD4FF4B44E9A0CDA99DEDBB233D","019d664f-845c-7a2a-8669-79bdff1de7fd","019d6630-2071-75cb-8026-6699844a2719","","null","
                <div class=""stimulus-container"">
                    <img src=""images/causal_sequence/the_performance_causal/the_performance_causal_6.png"" class=""exp-image"">
                    <div class=""question-area""></div> 
                </div>","null","","","","","","","","","","","","",""
"","","","","","html-button-response","91","317377","0.0-91.0","25932BD4FF4B44E9A0CDA99DEDBB233D","019d664f-845c-7a2a-8669-79bdff1de7fd","019d6630-2071-75cb-8026-6699844a2719","","663","
                <div class=""stimulus-container"">
                    <img src=""images/causal_sequence/the_performance_causal/the_performance_causal_6.png"" class=""exp-image"">
                    <div class=""question-area"">
                        <p style=""font-size: 20px; font-weight: bold; margin: 0;"">Is there a person in this image?</p>
                    </div>
                </div>","0","main_experiment_trial","6","the_performance_causal","causal_sequence","chronological","","","","","","","",""
"","","","","","html-keyboard-response","92","322387","0.0-92.0","25932BD4FF4B44E9A0CDA99DEDBB233D","019d664f-845c-7a2a-8669-79bdff1de7fd","019d6630-2071-75cb-8026-6699844a2719","","null","
                <div class=""stimulus-container"">
                    <img src=""images/causal_sequence/the_performance_causal/the_performance_causal_7.png"" class=""exp-image"">
                    <div class=""question-area""></div> 
                </div>","null","","","","","","","","","","","","",""
"","","","","","html-button-response","93","323152","0.0-93.0","25932BD4FF4B44E9A0CDA99DEDBB233D","019d664f-845c-7a2a-8669-79bdff1de7fd","019d6630-2071-75cb-8026-6699844a2719","","764","
                <div class=""stimulus-container"">
                    <img src=""images/causal_sequence/the_performance_causal/the_performance_causal_7.png"" class=""exp-image"">
                    <div class=""question-area"">
                        <p style=""font-size: 20px; font-weight: bold; margin: 0;"">Is there a person in this image?</p>
                    </div>
                </div>","0","main_experiment_trial","7","the_performance_causal","causal_sequence","chronological","","","","","","","",""
"","","","","","html-keyboard-response","94","328160","0.0-94.0","25932BD4FF4B44E9A0CDA99DEDBB233D","019d664f-845c-7a2a-8669-79bdff1de7fd","019d6630-2071-75cb-8026-6699844a2719","","null","
                <div class=""stimulus-container"">
                    <img src=""images/causal_sequence/the_performance_causal/the_performance_causal_8.png"" class=""exp-image"">
                    <div class=""question-area""></div> 
                </div>","null","","","","","","","","","","","","",""
"","","","","","html-button-response","95","328611","0.0-95.0","25932BD4FF4B44E9A0CDA99DEDBB233D","019d664f-845c-7a2a-8669-79bdff1de7fd","019d6630-2071-75cb-8026-6699844a2719","","451","
                <div class=""stimulus-container"">
                    <img src=""images/causal_sequence/the_performance_causal/the_performance_causal_8.png"" class=""exp-image"">
                    <div class=""question-area"">
                        <p style=""font-size: 20px; font-weight: bold; margin: 0;"">Is there a person in this image?</p>
                    </div>
                </div>","0","main_experiment_trial","8","the_performance_causal","causal_sequence","chronological","","","","","","","",""
"","","","","","html-keyboard-response","96","333625","0.0-96.0","25932BD4FF4B44E9A0CDA99DEDBB233D","019d664f-845c-7a2a-8669-79bdff1de7fd","019d6630-2071-75cb-8026-6699844a2719","","null","
                <div class=""stimulus-container"">
                    <img src=""images/causal_sequence/the_performance_causal/the_performance_causal_9.png"" class=""exp-image"">
                    <div class=""question-area""></div> 
                </div>","null","","","","","","","","","","","","",""
"","","","","","html-button-response","97","334299","0.0-97.0","25932BD4FF4B44E9A0CDA99DEDBB233D","019d664f-845c-7a2a-8669-79bdff1de7fd","019d6630-2071-75cb-8026-6699844a2719","","673","
                <div class=""stimulus-container"">
                    <img src=""images/causal_sequence/the_performance_causal/the_performance_causal_9.png"" class=""exp-image"">
                    <div class=""question-area"">
                        <p style=""font-size: 20px; font-weight: bold; margin: 0;"">Is there a person in this image?</p>
                    </div>
                </div>","0","main_experiment_trial","9","the_performance_causal","causal_sequence","chronological","","","","","","","",""
"","","","","","html-keyboard-response","98","339311","0.0-98.0","25932BD4FF4B44E9A0CDA99DEDBB233D","019d664f-845c-7a2a-8669-79bdff1de7fd","019d6630-2071-75cb-8026-6699844a2719","","null","
                <div class=""stimulus-container"">
                    <img src=""images/causal_sequence/the_performance_causal/the_performance_causal_ten.png"" class=""exp-image"">
                    <div class=""question-area""></div> 
                </div>","null","","","","","","","","","","","","",""
"","","","","","html-button-response","99","339781","0.0-99.0","25932BD4FF4B44E9A0CDA99DEDBB233D","019d664f-845c-7a2a-8669-79bdff1de7fd","019d6630-2071-75cb-8026-6699844a2719","","469","
                <div class=""stimulus-container"">
                    <img src=""images/causal_sequence/the_performance_causal/the_performance_causal_ten.png"" class=""exp-image"">
                    <div class=""question-area"">
                        <p style=""font-size: 20px; font-weight: bold; margin: 0;"">Is there a person in this image?</p>
                    </div>
                </div>","0","main_experiment_trial","ten","the_performance_causal","causal_sequence","chronological","","","","","","","",""
"","","","","","html-keyboard-response","100","344795","0.0-100.0","25932BD4FF4B44E9A0CDA99DEDBB233D","019d664f-845c-7a2a-8669-79bdff1de7fd","019d6630-2071-75cb-8026-6699844a2719","","null","<div style=""background-color: white; width: 100vw; height: 100vh;""></div>","null","","","","","","","","","","","","",""
"","","","","","html-keyboard-response","101","349807","0.0-101.0","25932BD4FF4B44E9A0CDA99DEDBB233D","019d664f-845c-7a2a-8669-79bdff1de7fd","019d6630-2071-75cb-8026-6699844a2719","","null","
                <div class=""stimulus-container"">
                    <img src=""images/schematic_sequence/interview_scheme/interview_scheme_1.png"" class=""exp-image"">
                    <div class=""question-area""></div> 
                </div>","null","","","","","","","","","","","","",""
"","","","","","html-button-response","102","350598","0.0-102.0","25932BD4FF4B44E9A0CDA99DEDBB233D","019d664f-845c-7a2a-8669-79bdff1de7fd","019d6630-2071-75cb-8026-6699844a2719","","790","
                <div class=""stimulus-container"">
                    <img src=""images/schematic_sequence/interview_scheme/interview_scheme_1.png"" class=""exp-image"">
                    <div class=""question-area"">
                        <p style=""font-size: 20px; font-weight: bold; margin: 0;"">Is there a person in this image?</p>
                    </div>
                </div>","1","main_experiment_trial","1","interview_scheme","schematic_sequence","chronological","","","","","","","",""
"","","","","","html-keyboard-response","103","355607","0.0-103.0","25932BD4FF4B44E9A0CDA99DEDBB233D","019d664f-845c-7a2a-8669-79bdff1de7fd","019d6630-2071-75cb-8026-6699844a2719","","null","
                <div class=""stimulus-container"">
                    <img src=""images/schematic_sequence/interview_scheme/interview_scheme_2.png"" class=""exp-image"">
                    <div class=""question-area""></div> 
                </div>","null","","","","","","","","","","","","",""
"","","","","","html-button-response","104","356203","0.0-104.0","25932BD4FF4B44E9A0CDA99DEDBB233D","019d664f-845c-7a2a-8669-79bdff1de7fd","019d6630-2071-75cb-8026-6699844a2719","","595","
                <div class=""stimulus-container"">
                    <img src=""images/schematic_sequence/interview_scheme/interview_scheme_2.png"" class=""exp-image"">
                    <div class=""question-area"">
                        <p style=""font-size: 20px; font-weight: bold; margin: 0;"">Is there a person in this image?</p>
                    </div>
                </div>","1","main_experiment_trial","2","interview_scheme","schematic_sequence","chronological","","","","","","","",""
"","","","","","html-keyboard-response","105","361215","0.0-105.0","25932BD4FF4B44E9A0CDA99DEDBB233D","019d664f-845c-7a2a-8669-79bdff1de7fd","019d6630-2071-75cb-8026-6699844a2719","","null","
                <div class=""stimulus-container"">
                    <img src=""images/schematic_sequence/interview_scheme/interview_scheme_3.png"" class=""exp-image"">
                    <div class=""question-area""></div> 
                </div>","null","","","","","","","","","","","","",""
"","","","","","html-button-response","106","362126","0.0-106.0","25932BD4FF4B44E9A0CDA99DEDBB233D","019d664f-845c-7a2a-8669-79bdff1de7fd","019d6630-2071-75cb-8026-6699844a2719","","911","
                <div class=""stimulus-container"">
                    <img src=""images/schematic_sequence/interview_scheme/interview_scheme_3.png"" class=""exp-image"">
                    <div class=""question-area"">
                        <p style=""font-size: 20px; font-weight: bold; margin: 0;"">Is there a person in this image?</p>
                    </div>
                </div>","1","main_experiment_trial","3","interview_scheme","schematic_sequence","chronological","","","","","","","",""
"","","","","","html-keyboard-response","107","367134","0.0-107.0","25932BD4FF4B44E9A0CDA99DEDBB233D","019d664f-845c-7a2a-8669-79bdff1de7fd","019d6630-2071-75cb-8026-6699844a2719","","null","
                <div class=""stimulus-container"">
                    <img src=""images/schematic_sequence/interview_scheme/interview_scheme_4.png"" class=""exp-image"">
                    <div class=""question-area""></div> 
                </div>","null","","","","","","","","","","","","",""
"","","","","","html-button-response","108","367775","0.0-108.0","25932BD4FF4B44E9A0CDA99DEDBB233D","019d664f-845c-7a2a-8669-79bdff1de7fd","019d6630-2071-75cb-8026-6699844a2719","","640","
                <div class=""stimulus-container"">
                    <img src=""images/schematic_sequence/interview_scheme/interview_scheme_4.png"" class=""exp-image"">
                    <div class=""question-area"">
                        <p style=""font-size: 20px; font-weight: bold; margin: 0;"">Is there a person in this image?</p>
                    </div>
                </div>","1","main_experiment_trial","4","interview_scheme","schematic_sequence","chronological","","","","","","","",""
"","","","","","html-keyboard-response","109","372777","0.0-109.0","25932BD4FF4B44E9A0CDA99DEDBB233D","019d664f-845c-7a2a-8669-79bdff1de7fd","019d6630-2071-75cb-8026-6699844a2719","","null","
                <div class=""stimulus-container"">
                    <img src=""images/schematic_sequence/interview_scheme/interview_scheme_5.png"" class=""exp-image"">
                    <div class=""question-area""></div> 
                </div>","null","","","","","","","","","","","","",""
"","","","","","html-button-response","110","373718","0.0-110.0","25932BD4FF4B44E9A0CDA99DEDBB233D","019d664f-845c-7a2a-8669-79bdff1de7fd","019d6630-2071-75cb-8026-6699844a2719","","940","
                <div class=""stimulus-container"">
                    <img src=""images/schematic_sequence/interview_scheme/interview_scheme_5.png"" class=""exp-image"">
                    <div class=""question-area"">
                        <p style=""font-size: 20px; font-weight: bold; margin: 0;"">Is there a person in this image?</p>
                    </div>
                </div>","0","main_experiment_trial","5","interview_scheme","schematic_sequence","chronological","","","","","","","",""
"","","","","","html-keyboard-response","111","378728","0.0-111.0","25932BD4FF4B44E9A0CDA99DEDBB233D","019d664f-845c-7a2a-8669-79bdff1de7fd","019d6630-2071-75cb-8026-6699844a2719","","null","
                <div class=""stimulus-container"">
                    <img src=""images/schematic_sequence/interview_scheme/interview_scheme_6.png"" class=""exp-image"">
                    <div class=""question-area""></div> 
                </div>","null","","","","","","","","","","","","",""
"","","","","","html-button-response","112","379416","0.0-112.0","25932BD4FF4B44E9A0CDA99DEDBB233D","019d664f-845c-7a2a-8669-79bdff1de7fd","019d6630-2071-75cb-8026-6699844a2719","","688","
                <div class=""stimulus-container"">
                    <img src=""images/schematic_sequence/interview_scheme/interview_scheme_6.png"" class=""exp-image"">
                    <div class=""question-area"">
                        <p style=""font-size: 20px; font-weight: bold; margin: 0;"">Is there a person in this image?</p>
                    </div>
                </div>","0","main_experiment_trial","6","interview_scheme","schematic_sequence","chronological","","","","","","","",""
"","","","","","html-keyboard-response","113","384430","0.0-113.0","25932BD4FF4B44E9A0CDA99DEDBB233D","019d664f-845c-7a2a-8669-79bdff1de7fd","019d6630-2071-75cb-8026-6699844a2719","","null","
                <div class=""stimulus-container"">
                    <img src=""images/schematic_sequence/interview_scheme/interview_scheme_7.png"" class=""exp-image"">
                    <div class=""question-area""></div> 
                </div>","null","","","","","","","","","","","","",""
"","","","","","html-button-response","114","385115","0.0-114.0","25932BD4FF4B44E9A0CDA99DEDBB233D","019d664f-845c-7a2a-8669-79bdff1de7fd","019d6630-2071-75cb-8026-6699844a2719","","684","
                <div class=""stimulus-container"">
                    <img src=""images/schematic_sequence/interview_scheme/interview_scheme_7.png"" class=""exp-image"">
                    <div class=""question-area"">
                        <p style=""font-size: 20px; font-weight: bold; margin: 0;"">Is there a person in this image?</p>
                    </div>
                </div>","0","main_experiment_trial","7","interview_scheme","schematic_sequence","chronological","","","","","","","",""
"","","","","","html-keyboard-response","115","390130","0.0-115.0","25932BD4FF4B44E9A0CDA99DEDBB233D","019d664f-845c-7a2a-8669-79bdff1de7fd","019d6630-2071-75cb-8026-6699844a2719","","null","
                <div class=""stimulus-container"">
                    <img src=""images/schematic_sequence/interview_scheme/interview_scheme_8.png"" class=""exp-image"">
                    <div class=""question-area""></div> 
                </div>","null","","","","","","","","","","","","",""
"","","","","","html-button-response","116","390898","0.0-116.0","25932BD4FF4B44E9A0CDA99DEDBB233D","019d664f-845c-7a2a-8669-79bdff1de7fd","019d6630-2071-75cb-8026-6699844a2719","","767","
                <div class=""stimulus-container"">
                    <img src=""images/schematic_sequence/interview_scheme/interview_scheme_8.png"" class=""exp-image"">
                    <div class=""question-area"">
                        <p style=""font-size: 20px; font-weight: bold; margin: 0;"">Is there a person in this image?</p>
                    </div>
                </div>","0","main_experiment_trial","8","interview_scheme","schematic_sequence","chronological","","","","","","","",""
"","","","","","html-keyboard-response","117","395905","0.0-117.0","25932BD4FF4B44E9A0CDA99DEDBB233D","019d664f-845c-7a2a-8669-79bdff1de7fd","019d6630-2071-75cb-8026-6699844a2719","","null","
                <div class=""stimulus-container"">
                    <img src=""images/schematic_sequence/interview_scheme/interview_scheme_9.png"" class=""exp-image"">
                    <div class=""question-area""></div> 
                </div>","null","","","","","","","","","","","","",""
"","","","","","html-button-response","118","396308","0.0-118.0","25932BD4FF4B44E9A0CDA99DEDBB233D","019d664f-845c-7a2a-8669-79bdff1de7fd","019d6630-2071-75cb-8026-6699844a2719","","403","
                <div class=""stimulus-container"">
                    <img src=""images/schematic_sequence/interview_scheme/interview_scheme_9.png"" class=""exp-image"">
                    <div class=""question-area"">
                        <p style=""font-size: 20px; font-weight: bold; margin: 0;"">Is there a person in this image?</p>
                    </div>
                </div>","0","main_experiment_trial","9","interview_scheme","schematic_sequence","chronological","","","","","","","",""
"","","","","","html-keyboard-response","119","401315","0.0-119.0","25932BD4FF4B44E9A0CDA99DEDBB233D","019d664f-845c-7a2a-8669-79bdff1de7fd","019d6630-2071-75cb-8026-6699844a2719","","null","
                <div class=""stimulus-container"">
                    <img src=""images/schematic_sequence/interview_scheme/interview_scheme_ten.png"" class=""exp-image"">
                    <div class=""question-area""></div> 
                </div>","null","","","","","","","","","","","","",""
"","","","","","html-button-response","120","401847","0.0-120.0","25932BD4FF4B44E9A0CDA99DEDBB233D","019d664f-845c-7a2a-8669-79bdff1de7fd","019d6630-2071-75cb-8026-6699844a2719","","531","
                <div class=""stimulus-container"">
                    <img src=""images/schematic_sequence/interview_scheme/interview_scheme_ten.png"" class=""exp-image"">
                    <div class=""question-area"">
                        <p style=""font-size: 20px; font-weight: bold; margin: 0;"">Is there a person in this image?</p>
                    </div>
                </div>","0","main_experiment_trial","ten","interview_scheme","schematic_sequence","chronological","","","","","","","",""
"","","","","","html-keyboard-response","121","406860","0.0-121.0","25932BD4FF4B44E9A0CDA99DEDBB233D","019d664f-845c-7a2a-8669-79bdff1de7fd","019d6630-2071-75cb-8026-6699844a2719","","null","<div style=""background-color: white; width: 100vw; height: 100vh;""></div>","null","","","","","","","","","","","","",""
"","","","","","html-keyboard-response","122","411863","0.0-122.0","25932BD4FF4B44E9A0CDA99DEDBB233D","019d664f-845c-7a2a-8669-79bdff1de7fd","019d6630-2071-75cb-8026-6699844a2719","","null","
                <div class=""stimulus-container"">
                    <img src=""images/causal_sequence/museum_causal/museum_causal_1.png"" class=""exp-image"">
                    <div class=""question-area""></div> 
                </div>","null","","","","","","","","","","","","",""
"","","","","","html-button-response","123","412517","0.0-123.0","25932BD4FF4B44E9A0CDA99DEDBB233D","019d664f-845c-7a2a-8669-79bdff1de7fd","019d6630-2071-75cb-8026-6699844a2719","","654","
                <div class=""stimulus-container"">
                    <img src=""images/causal_sequence/museum_causal/museum_causal_1.png"" class=""exp-image"">
                    <div class=""question-area"">
                        <p style=""font-size: 20px; font-weight: bold; margin: 0;"">Is there a person in this image?</p>
                    </div>
                </div>","0","main_experiment_trial","1","museum_causal","causal_sequence","chronological","","","","","","","",""
"","","","","","html-keyboard-response","124","417524","0.0-124.0","25932BD4FF4B44E9A0CDA99DEDBB233D","019d664f-845c-7a2a-8669-79bdff1de7fd","019d6630-2071-75cb-8026-6699844a2719","","null","
                <div class=""stimulus-container"">
                    <img src=""images/causal_sequence/museum_causal/museum_causal_2.png"" class=""exp-image"">
                    <div class=""question-area""></div> 
                </div>","null","","","","","","","","","","","","",""
"","","","","","html-button-response","125","418103","0.0-125.0","25932BD4FF4B44E9A0CDA99DEDBB233D","019d664f-845c-7a2a-8669-79bdff1de7fd","019d6630-2071-75cb-8026-6699844a2719","","577","
                <div class=""stimulus-container"">
                    <img src=""images/causal_sequence/museum_causal/museum_causal_2.png"" class=""exp-image"">
                    <div class=""question-area"">
                        <p style=""font-size: 20px; font-weight: bold; margin: 0;"">Is there a person in this image?</p>
                    </div>
                </div>","0","main_experiment_trial","2","museum_causal","causal_sequence","chronological","","","","","","","",""
"","","","","","html-keyboard-response","126","423116","0.0-126.0","25932BD4FF4B44E9A0CDA99DEDBB233D","019d664f-845c-7a2a-8669-79bdff1de7fd","019d6630-2071-75cb-8026-6699844a2719","","null","
                <div class=""stimulus-container"">
                    <img src=""images/causal_sequence/museum_causal/museum_causal_3.png"" class=""exp-image"">
                    <div class=""question-area""></div> 
                </div>","null","","","","","","","","","","","","",""
"","","","","","html-button-response","127","423640","0.0-127.0","25932BD4FF4B44E9A0CDA99DEDBB233D","019d664f-845c-7a2a-8669-79bdff1de7fd","019d6630-2071-75cb-8026-6699844a2719","","523","
                <div class=""stimulus-container"">
                    <img src=""images/causal_sequence/museum_causal/museum_causal_3.png"" class=""exp-image"">
                    <div class=""question-area"">
                        <p style=""font-size: 20px; font-weight: bold; margin: 0;"">Is there a person in this image?</p>
                    </div>
                </div>","0","main_experiment_trial","3","museum_causal","causal_sequence","chronological","","","","","","","",""
"","","","","","html-keyboard-response","128","428650","0.0-128.0","25932BD4FF4B44E9A0CDA99DEDBB233D","019d664f-845c-7a2a-8669-79bdff1de7fd","019d6630-2071-75cb-8026-6699844a2719","","null","
                <div class=""stimulus-container"">
                    <img src=""images/causal_sequence/museum_causal/museum_causal_4.png"" class=""exp-image"">
                    <div class=""question-area""></div> 
                </div>","null","","","","","","","","","","","","",""
"","","","","","html-button-response","129","429467","0.0-129.0","25932BD4FF4B44E9A0CDA99DEDBB233D","019d664f-845c-7a2a-8669-79bdff1de7fd","019d6630-2071-75cb-8026-6699844a2719","","816","
                <div class=""stimulus-container"">
                    <img src=""images/causal_sequence/museum_causal/museum_causal_4.png"" class=""exp-image"">
                    <div class=""question-area"">
                        <p style=""font-size: 20px; font-weight: bold; margin: 0;"">Is there a person in this image?</p>
                    </div>
                </div>","1","main_experiment_trial","4","museum_causal","causal_sequence","chronological","","","","","","","",""
"","","","","","html-keyboard-response","130","434476","0.0-130.0","25932BD4FF4B44E9A0CDA99DEDBB233D","019d664f-845c-7a2a-8669-79bdff1de7fd","019d6630-2071-75cb-8026-6699844a2719","","null","
                <div class=""stimulus-container"">
                    <img src=""images/causal_sequence/museum_causal/museum_causal_5.png"" class=""exp-image"">
                    <div class=""question-area""></div> 
                </div>","null","","","","","","","","","","","","",""
"","","","","","html-button-response","131","435083","0.0-131.0","25932BD4FF4B44E9A0CDA99DEDBB233D","019d664f-845c-7a2a-8669-79bdff1de7fd","019d6630-2071-75cb-8026-6699844a2719","","605","
                <div class=""stimulus-container"">
                    <img src=""images/causal_sequence/museum_causal/museum_causal_5.png"" class=""exp-image"">
                    <div class=""question-area"">
                        <p style=""font-size: 20px; font-weight: bold; margin: 0;"">Is there a person in this image?</p>
                    </div>
                </div>","0","main_experiment_trial","5","museum_causal","causal_sequence","chronological","","","","","","","",""
"","","","","","html-keyboard-response","132","440099","0.0-132.0","25932BD4FF4B44E9A0CDA99DEDBB233D","019d664f-845c-7a2a-8669-79bdff1de7fd","019d6630-2071-75cb-8026-6699844a2719","","null","
                <div class=""stimulus-container"">
                    <img src=""images/causal_sequence/museum_causal/museum_causal_6.png"" class=""exp-image"">
                    <div class=""question-area""></div> 
                </div>","null","","","","","","","","","","","","",""
"","","","","","html-button-response","133","440943","0.0-133.0","25932BD4FF4B44E9A0CDA99DEDBB233D","019d664f-845c-7a2a-8669-79bdff1de7fd","019d6630-2071-75cb-8026-6699844a2719","","843","
                <div class=""stimulus-container"">
                    <img src=""images/causal_sequence/museum_causal/museum_causal_6.png"" class=""exp-image"">
                    <div class=""question-area"">
                        <p style=""font-size: 20px; font-weight: bold; margin: 0;"">Is there a person in this image?</p>
                    </div>
                </div>","0","main_experiment_trial","6","museum_causal","causal_sequence","chronological","","","","","","","",""
"","","","","","html-keyboard-response","134","445951","0.0-134.0","25932BD4FF4B44E9A0CDA99DEDBB233D","019d664f-845c-7a2a-8669-79bdff1de7fd","019d6630-2071-75cb-8026-6699844a2719","","null","
                <div class=""stimulus-container"">
                    <img src=""images/causal_sequence/museum_causal/museum_causal_7.png"" class=""exp-image"">
                    <div class=""question-area""></div> 
                </div>","null","","","","","","","","","","","","",""
"","","","","","html-button-response","135","446472","0.0-135.0","25932BD4FF4B44E9A0CDA99DEDBB233D","019d664f-845c-7a2a-8669-79bdff1de7fd","019d6630-2071-75cb-8026-6699844a2719","","521","
                <div class=""stimulus-container"">
                    <img src=""images/causal_sequence/museum_causal/museum_causal_7.png"" class=""exp-image"">
                    <div class=""question-area"">
                        <p style=""font-size: 20px; font-weight: bold; margin: 0;"">Is there a person in this image?</p>
                    </div>
                </div>","1","main_experiment_trial","7","museum_causal","causal_sequence","chronological","","","","","","","",""
"","","","","","html-keyboard-response","136","451480","0.0-136.0","25932BD4FF4B44E9A0CDA99DEDBB233D","019d664f-845c-7a2a-8669-79bdff1de7fd","019d6630-2071-75cb-8026-6699844a2719","","null","
                <div class=""stimulus-container"">
                    <img src=""images/causal_sequence/museum_causal/museum_causal_8.png"" class=""exp-image"">
                    <div class=""question-area""></div> 
                </div>","null","","","","","","","","","","","","",""
"","","","","","html-button-response","137","452094","0.0-137.0","25932BD4FF4B44E9A0CDA99DEDBB233D","019d664f-845c-7a2a-8669-79bdff1de7fd","019d6630-2071-75cb-8026-6699844a2719","","613","
                <div class=""stimulus-container"">
                    <img src=""images/causal_sequence/museum_causal/museum_causal_8.png"" class=""exp-image"">
                    <div class=""question-area"">
                        <p style=""font-size: 20px; font-weight: bold; margin: 0;"">Is there a person in this image?</p>
                    </div>
                </div>","0","main_experiment_trial","8","museum_causal","causal_sequence","chronological","","","","","","","",""
"","","","","","html-keyboard-response","138","457105","0.0-138.0","25932BD4FF4B44E9A0CDA99DEDBB233D","019d664f-845c-7a2a-8669-79bdff1de7fd","019d6630-2071-75cb-8026-6699844a2719","","null","
                <div class=""stimulus-container"">
                    <img src=""images/causal_sequence/museum_causal/museum_causal_9.png"" class=""exp-image"">
                    <div class=""question-area""></div> 
                </div>","null","","","","","","","","","","","","",""
"","","","","","html-button-response","139","457811","0.0-139.0","25932BD4FF4B44E9A0CDA99DEDBB233D","019d664f-845c-7a2a-8669-79bdff1de7fd","019d6630-2071-75cb-8026-6699844a2719","","706","
                <div class=""stimulus-container"">
                    <img src=""images/causal_sequence/museum_causal/museum_causal_9.png"" class=""exp-image"">
                    <div class=""question-area"">
                        <p style=""font-size: 20px; font-weight: bold; margin: 0;"">Is there a person in this image?</p>
                    </div>
                </div>","1","main_experiment_trial","9","museum_causal","causal_sequence","chronological","","","","","","","",""
"","","","","","html-keyboard-response","140","462813","0.0-140.0","25932BD4FF4B44E9A0CDA99DEDBB233D","019d664f-845c-7a2a-8669-79bdff1de7fd","019d6630-2071-75cb-8026-6699844a2719","","null","
                <div class=""stimulus-container"">
                    <img src=""images/causal_sequence/museum_causal/museum_causal_ten.png"" class=""exp-image"">
                    <div class=""question-area""></div> 
                </div>","null","","","","","","","","","","","","",""
"","","","","","html-button-response","141","465425","0.0-141.0","25932BD4FF4B44E9A0CDA99DEDBB233D","019d664f-845c-7a2a-8669-79bdff1de7fd","019d6630-2071-75cb-8026-6699844a2719","","2611","
                <div class=""stimulus-container"">
                    <img src=""images/causal_sequence/museum_causal/museum_causal_ten.png"" class=""exp-image"">
                    <div class=""question-area"">
                        <p style=""font-size: 20px; font-weight: bold; margin: 0;"">Is there a person in this image?</p>
                    </div>
                </div>","0","main_experiment_trial","ten","museum_causal","causal_sequence","chronological","","","","","","","",""
"","","","","","html-keyboard-response","142","470437","0.0-142.0","25932BD4FF4B44E9A0CDA99DEDBB233D","019d664f-845c-7a2a-8669-79bdff1de7fd","019d6630-2071-75cb-8026-6699844a2719","","null","<div style=""background-color: white; width: 100vw; height: 100vh;""></div>","null","","","","","","","","","","","","",""
"","","","","","html-keyboard-response","143","475440","0.0-143.0","25932BD4FF4B44E9A0CDA99DEDBB233D","019d664f-845c-7a2a-8669-79bdff1de7fd","019d6630-2071-75cb-8026-6699844a2719","","null","
                <div class=""stimulus-container"">
                    <img src=""images/semantic_sequence/physical_activity_semantic/physical_activity_semantic_1.png"" class=""exp-image"">
                    <div class=""question-area""></div> 
                </div>","null","","","","","","","","","","","","",""
"","","","","","html-button-response","144","475869","0.0-144.0","25932BD4FF4B44E9A0CDA99DEDBB233D","019d664f-845c-7a2a-8669-79bdff1de7fd","019d6630-2071-75cb-8026-6699844a2719","","428","
                <div class=""stimulus-container"">
                    <img src=""images/semantic_sequence/physical_activity_semantic/physical_activity_semantic_1.png"" class=""exp-image"">
                    <div class=""question-area"">
                        <p style=""font-size: 20px; font-weight: bold; margin: 0;"">Is there a person in this image?</p>
                    </div>
                </div>","0","main_experiment_trial","1","physical_activity_semantic","semantic_sequence","chronological","","","","","","","",""
"","","","","","html-keyboard-response","145","480879","0.0-145.0","25932BD4FF4B44E9A0CDA99DEDBB233D","019d664f-845c-7a2a-8669-79bdff1de7fd","019d6630-2071-75cb-8026-6699844a2719","","null","
                <div class=""stimulus-container"">
                    <img src=""images/semantic_sequence/physical_activity_semantic/physical_activity_semantic_2.png"" class=""exp-image"">
                    <div class=""question-area""></div> 
                </div>","null","","","","","","","","","","","","",""
"","","","","","html-button-response","146","481574","0.0-146.0","25932BD4FF4B44E9A0CDA99DEDBB233D","019d664f-845c-7a2a-8669-79bdff1de7fd","019d6630-2071-75cb-8026-6699844a2719","","694","
                <div class=""stimulus-container"">
                    <img src=""images/semantic_sequence/physical_activity_semantic/physical_activity_semantic_2.png"" class=""exp-image"">
                    <div class=""question-area"">
                        <p style=""font-size: 20px; font-weight: bold; margin: 0;"">Is there a person in this image?</p>
                    </div>
                </div>","0","main_experiment_trial","2","physical_activity_semantic","semantic_sequence","chronological","","","","","","","",""
"","","","","","html-keyboard-response","147","486583","0.0-147.0","25932BD4FF4B44E9A0CDA99DEDBB233D","019d664f-845c-7a2a-8669-79bdff1de7fd","019d6630-2071-75cb-8026-6699844a2719","","null","
                <div class=""stimulus-container"">
                    <img src=""images/semantic_sequence/physical_activity_semantic/physical_activity_semantic_3.png"" class=""exp-image"">
                    <div class=""question-area""></div> 
                </div>","null","","","","","","","","","","","","",""
"","","","","","html-button-response","148","487223","0.0-148.0","25932BD4FF4B44E9A0CDA99DEDBB233D","019d664f-845c-7a2a-8669-79bdff1de7fd","019d6630-2071-75cb-8026-6699844a2719","","640","
                <div class=""stimulus-container"">
                    <img src=""images/semantic_sequence/physical_activity_semantic/physical_activity_semantic_3.png"" class=""exp-image"">
                    <div class=""question-area"">
                        <p style=""font-size: 20px; font-weight: bold; margin: 0;"">Is there a person in this image?</p>
                    </div>
                </div>","0","main_experiment_trial","3","physical_activity_semantic","semantic_sequence","chronological","","","","","","","",""
"","","","","","html-keyboard-response","149","492228","0.0-149.0","25932BD4FF4B44E9A0CDA99DEDBB233D","019d664f-845c-7a2a-8669-79bdff1de7fd","019d6630-2071-75cb-8026-6699844a2719","","null","
                <div class=""stimulus-container"">
                    <img src=""images/semantic_sequence/physical_activity_semantic/physical_activity_semantic_4.png"" class=""exp-image"">
                    <div class=""question-area""></div> 
                </div>","null","","","","","","","","","","","","",""
"","","","","","html-button-response","150","493168","0.0-150.0","25932BD4FF4B44E9A0CDA99DEDBB233D","019d664f-845c-7a2a-8669-79bdff1de7fd","019d6630-2071-75cb-8026-6699844a2719","","939","
                <div class=""stimulus-container"">
                    <img src=""images/semantic_sequence/physical_activity_semantic/physical_activity_semantic_4.png"" class=""exp-image"">
                    <div class=""question-area"">
                        <p style=""font-size: 20px; font-weight: bold; margin: 0;"">Is there a person in this image?</p>
                    </div>
                </div>","0","main_experiment_trial","4","physical_activity_semantic","semantic_sequence","chronological","","","","","","","",""
"","","","","","html-keyboard-response","151","498174","0.0-151.0","25932BD4FF4B44E9A0CDA99DEDBB233D","019d664f-845c-7a2a-8669-79bdff1de7fd","019d6630-2071-75cb-8026-6699844a2719","","null","
                <div class=""stimulus-container"">
                    <img src=""images/semantic_sequence/physical_activity_semantic/physical_activity_semantic_5.png"" class=""exp-image"">
                    <div class=""question-area""></div> 
                </div>","null","","","","","","","","","","","","",""
"","","","","","html-button-response","152","498684","0.0-152.0","25932BD4FF4B44E9A0CDA99DEDBB233D","019d664f-845c-7a2a-8669-79bdff1de7fd","019d6630-2071-75cb-8026-6699844a2719","","509","
                <div class=""stimulus-container"">
                    <img src=""images/semantic_sequence/physical_activity_semantic/physical_activity_semantic_5.png"" class=""exp-image"">
                    <div class=""question-area"">
                        <p style=""font-size: 20px; font-weight: bold; margin: 0;"">Is there a person in this image?</p>
                    </div>
                </div>","0","main_experiment_trial","5","physical_activity_semantic","semantic_sequence","chronological","","","","","","","",""
"","","","","","html-keyboard-response","153","503691","0.0-153.0","25932BD4FF4B44E9A0CDA99DEDBB233D","019d664f-845c-7a2a-8669-79bdff1de7fd","019d6630-2071-75cb-8026-6699844a2719","","null","
                <div class=""stimulus-container"">
                    <img src=""images/semantic_sequence/physical_activity_semantic/physical_activity_semantic_6.png"" class=""exp-image"">
                    <div class=""question-area""></div> 
                </div>","null","","","","","","","","","","","","",""
"","","","","","html-button-response","154","504190","0.0-154.0","25932BD4FF4B44E9A0CDA99DEDBB233D","019d664f-845c-7a2a-8669-79bdff1de7fd","019d6630-2071-75cb-8026-6699844a2719","","499","
                <div class=""stimulus-container"">
                    <img src=""images/semantic_sequence/physical_activity_semantic/physical_activity_semantic_6.png"" class=""exp-image"">
                    <div class=""question-area"">
                        <p style=""font-size: 20px; font-weight: bold; margin: 0;"">Is there a person in this image?</p>
                    </div>
                </div>","0","main_experiment_trial","6","physical_activity_semantic","semantic_sequence","chronological","","","","","","","",""
"","","","","","html-keyboard-response","155","509204","0.0-155.0","25932BD4FF4B44E9A0CDA99DEDBB233D","019d664f-845c-7a2a-8669-79bdff1de7fd","019d6630-2071-75cb-8026-6699844a2719","","null","
                <div class=""stimulus-container"">
                    <img src=""images/semantic_sequence/physical_activity_semantic/physical_activity_semantic_7.png"" class=""exp-image"">
                    <div class=""question-area""></div> 
                </div>","null","","","","","","","","","","","","",""
"","","","","","html-button-response","156","509780","0.0-156.0","25932BD4FF4B44E9A0CDA99DEDBB233D","019d664f-845c-7a2a-8669-79bdff1de7fd","019d6630-2071-75cb-8026-6699844a2719","","575","
                <div class=""stimulus-container"">
                    <img src=""images/semantic_sequence/physical_activity_semantic/physical_activity_semantic_7.png"" class=""exp-image"">
                    <div class=""question-area"">
                        <p style=""font-size: 20px; font-weight: bold; margin: 0;"">Is there a person in this image?</p>
                    </div>
                </div>","0","main_experiment_trial","7","physical_activity_semantic","semantic_sequence","chronological","","","","","","","",""
"","","","","","html-keyboard-response","157","514784","0.0-157.0","25932BD4FF4B44E9A0CDA99DEDBB233D","019d664f-845c-7a2a-8669-79bdff1de7fd","019d6630-2071-75cb-8026-6699844a2719","","null","
                <div class=""stimulus-container"">
                    <img src=""images/semantic_sequence/physical_activity_semantic/physical_activity_semantic_8.png"" class=""exp-image"">
                    <div class=""question-area""></div> 
                </div>","null","","","","","","","","","","","","",""
"","","","","","html-button-response","158","515530","0.0-158.0","25932BD4FF4B44E9A0CDA99DEDBB233D","019d664f-845c-7a2a-8669-79bdff1de7fd","019d6630-2071-75cb-8026-6699844a2719","","745","
                <div class=""stimulus-container"">
                    <img src=""images/semantic_sequence/physical_activity_semantic/physical_activity_semantic_8.png"" class=""exp-image"">
                    <div class=""question-area"">
                        <p style=""font-size: 20px; font-weight: bold; margin: 0;"">Is there a person in this image?</p>
                    </div>
                </div>","0","main_experiment_trial","8","physical_activity_semantic","semantic_sequence","chronological","","","","","","","",""
"","","","","","html-keyboard-response","159","520537","0.0-159.0","25932BD4FF4B44E9A0CDA99DEDBB233D","019d664f-845c-7a2a-8669-79bdff1de7fd","019d6630-2071-75cb-8026-6699844a2719","","null","
                <div class=""stimulus-container"">
                    <img src=""images/semantic_sequence/physical_activity_semantic/physical_activity_semantic_9.png"" class=""exp-image"">
                    <div class=""question-area""></div> 
                </div>","null","","","","","","","","","","","","",""
"","","","","","html-button-response","160","520901","0.0-160.0","25932BD4FF4B44E9A0CDA99DEDBB233D","019d664f-845c-7a2a-8669-79bdff1de7fd","019d6630-2071-75cb-8026-6699844a2719","","362","
                <div class=""stimulus-container"">
                    <img src=""images/semantic_sequence/physical_activity_semantic/physical_activity_semantic_9.png"" class=""exp-image"">
                    <div class=""question-area"">
                        <p style=""font-size: 20px; font-weight: bold; margin: 0;"">Is there a person in this image?</p>
                    </div>
                </div>","0","main_experiment_trial","9","physical_activity_semantic","semantic_sequence","chronological","","","","","","","",""
"","","","","","html-keyboard-response","161","525918","0.0-161.0","25932BD4FF4B44E9A0CDA99DEDBB233D","019d664f-845c-7a2a-8669-79bdff1de7fd","019d6630-2071-75cb-8026-6699844a2719","","null","
                <div class=""stimulus-container"">
                    <img src=""images/semantic_sequence/physical_activity_semantic/physical_activity_semantic_ten.png"" class=""exp-image"">
                    <div class=""question-area""></div> 
                </div>","null","","","","","","","","","","","","",""
"","","","","","html-button-response","162","526331","0.0-162.0","25932BD4FF4B44E9A0CDA99DEDBB233D","019d664f-845c-7a2a-8669-79bdff1de7fd","019d6630-2071-75cb-8026-6699844a2719","","412","
                <div class=""stimulus-container"">
                    <img src=""images/semantic_sequence/physical_activity_semantic/physical_activity_semantic_ten.png"" class=""exp-image"">
                    <div class=""question-area"">
                        <p style=""font-size: 20px; font-weight: bold; margin: 0;"">Is there a person in this image?</p>
                    </div>
                </div>","0","main_experiment_trial","ten","physical_activity_semantic","semantic_sequence","chronological","","","","","","","",""
"","","","","","html-keyboard-response","163","531333","0.0-163.0","25932BD4FF4B44E9A0CDA99DEDBB233D","019d664f-845c-7a2a-8669-79bdff1de7fd","019d6630-2071-75cb-8026-6699844a2719","","null","<div style=""background-color: white; width: 100vw; height: 100vh;""></div>","null","","","","","","","","","","","","",""
"","","","","","html-keyboard-response","164","536336","0.0-164.0","25932BD4FF4B44E9A0CDA99DEDBB233D","019d664f-845c-7a2a-8669-79bdff1de7fd","019d6630-2071-75cb-8026-6699844a2719","","null","
                <div class=""stimulus-container"">
                    <img src=""images/causal_sequence/coin_causal/coin_causal_1.png"" class=""exp-image"">
                    <div class=""question-area""></div> 
                </div>","null","","","","","","","","","","","","",""
"","","","","","html-button-response","165","536900","0.0-165.0","25932BD4FF4B44E9A0CDA99DEDBB233D","019d664f-845c-7a2a-8669-79bdff1de7fd","019d6630-2071-75cb-8026-6699844a2719","","563","
                <div class=""stimulus-container"">
                    <img src=""images/causal_sequence/coin_causal/coin_causal_1.png"" class=""exp-image"">
                    <div class=""question-area"">
                        <p style=""font-size: 20px; font-weight: bold; margin: 0;"">Is there a person in this image?</p>
                    </div>
                </div>","0","main_experiment_trial","1","coin_causal","causal_sequence","chronological","","","","","","","",""
"","","","","","html-keyboard-response","166","541903","0.0-166.0","25932BD4FF4B44E9A0CDA99DEDBB233D","019d664f-845c-7a2a-8669-79bdff1de7fd","019d6630-2071-75cb-8026-6699844a2719","","null","
                <div class=""stimulus-container"">
                    <img src=""images/causal_sequence/coin_causal/coin_causal_2.png"" class=""exp-image"">
                    <div class=""question-area""></div> 
                </div>","null","","","","","","","","","","","","",""
"","","","","","html-button-response","167","542975","0.0-167.0","25932BD4FF4B44E9A0CDA99DEDBB233D","019d664f-845c-7a2a-8669-79bdff1de7fd","019d6630-2071-75cb-8026-6699844a2719","","1071","
                <div class=""stimulus-container"">
                    <img src=""images/causal_sequence/coin_causal/coin_causal_2.png"" class=""exp-image"">
                    <div class=""question-area"">
                        <p style=""font-size: 20px; font-weight: bold; margin: 0;"">Is there a person in this image?</p>
                    </div>
                </div>","0","main_experiment_trial","2","coin_causal","causal_sequence","chronological","","","","","","","",""
"","","","","","html-keyboard-response","168","547989","0.0-168.0","25932BD4FF4B44E9A0CDA99DEDBB233D","019d664f-845c-7a2a-8669-79bdff1de7fd","019d6630-2071-75cb-8026-6699844a2719","","null","
                <div class=""stimulus-container"">
                    <img src=""images/causal_sequence/coin_causal/coin_causal_3.png"" class=""exp-image"">
                    <div class=""question-area""></div> 
                </div>","null","","","","","","","","","","","","",""
"","","","","","html-button-response","169","548428","0.0-169.0","25932BD4FF4B44E9A0CDA99DEDBB233D","019d664f-845c-7a2a-8669-79bdff1de7fd","019d6630-2071-75cb-8026-6699844a2719","","438","
                <div class=""stimulus-container"">
                    <img src=""images/causal_sequence/coin_causal/coin_causal_3.png"" class=""exp-image"">
                    <div class=""question-area"">
                        <p style=""font-size: 20px; font-weight: bold; margin: 0;"">Is there a person in this image?</p>
                    </div>
                </div>","0","main_experiment_trial","3","coin_causal","causal_sequence","chronological","","","","","","","",""
"","","","","","html-keyboard-response","170","553444","0.0-170.0","25932BD4FF4B44E9A0CDA99DEDBB233D","019d664f-845c-7a2a-8669-79bdff1de7fd","019d6630-2071-75cb-8026-6699844a2719","","null","
                <div class=""stimulus-container"">
                    <img src=""images/causal_sequence/coin_causal/coin_causal_4.png"" class=""exp-image"">
                    <div class=""question-area""></div> 
                </div>","null","","","","","","","","","","","","",""
"","","","","","html-button-response","171","553862","0.0-171.0","25932BD4FF4B44E9A0CDA99DEDBB233D","019d664f-845c-7a2a-8669-79bdff1de7fd","019d6630-2071-75cb-8026-6699844a2719","","417","
                <div class=""stimulus-container"">
                    <img src=""images/causal_sequence/coin_causal/coin_causal_4.png"" class=""exp-image"">
                    <div class=""question-area"">
                        <p style=""font-size: 20px; font-weight: bold; margin: 0;"">Is there a person in this image?</p>
                    </div>
                </div>","0","main_experiment_trial","4","coin_causal","causal_sequence","chronological","","","","","","","",""
"","","","","","html-keyboard-response","172","558874","0.0-172.0","25932BD4FF4B44E9A0CDA99DEDBB233D","019d664f-845c-7a2a-8669-79bdff1de7fd","019d6630-2071-75cb-8026-6699844a2719","","null","
                <div class=""stimulus-container"">
                    <img src=""images/causal_sequence/coin_causal/coin_causal_5.png"" class=""exp-image"">
                    <div class=""question-area""></div> 
                </div>","null","","","","","","","","","","","","",""
"","","","","","html-button-response","173","559225","0.0-173.0","25932BD4FF4B44E9A0CDA99DEDBB233D","019d664f-845c-7a2a-8669-79bdff1de7fd","019d6630-2071-75cb-8026-6699844a2719","","350","
                <div class=""stimulus-container"">
                    <img src=""images/causal_sequence/coin_causal/coin_causal_5.png"" class=""exp-image"">
                    <div class=""question-area"">
                        <p style=""font-size: 20px; font-weight: bold; margin: 0;"">Is there a person in this image?</p>
                    </div>
                </div>","0","main_experiment_trial","5","coin_causal","causal_sequence","chronological","","","","","","","",""
"","","","","","html-keyboard-response","174","564239","0.0-174.0","25932BD4FF4B44E9A0CDA99DEDBB233D","019d664f-845c-7a2a-8669-79bdff1de7fd","019d6630-2071-75cb-8026-6699844a2719","","null","
                <div class=""stimulus-container"">
                    <img src=""images/causal_sequence/coin_causal/coin_causal_6.png"" class=""exp-image"">
                    <div class=""question-area""></div> 
                </div>","null","","","","","","","","","","","","",""
"","","","","","html-button-response","175","564697","0.0-175.0","25932BD4FF4B44E9A0CDA99DEDBB233D","019d664f-845c-7a2a-8669-79bdff1de7fd","019d6630-2071-75cb-8026-6699844a2719","","456","
                <div class=""stimulus-container"">
                    <img src=""images/causal_sequence/coin_causal/coin_causal_6.png"" class=""exp-image"">
                    <div class=""question-area"">
                        <p style=""font-size: 20px; font-weight: bold; margin: 0;"">Is there a person in this image?</p>
                    </div>
                </div>","0","main_experiment_trial","6","coin_causal","causal_sequence","chronological","","","","","","","",""
"","","","","","html-keyboard-response","176","569705","0.0-176.0","25932BD4FF4B44E9A0CDA99DEDBB233D","019d664f-845c-7a2a-8669-79bdff1de7fd","019d6630-2071-75cb-8026-6699844a2719","","null","
                <div class=""stimulus-container"">
                    <img src=""images/causal_sequence/coin_causal/coin_causal_7.png"" class=""exp-image"">
                    <div class=""question-area""></div> 
                </div>","null","","","","","","","","","","","","",""
"","","","","","html-button-response","177","570395","0.0-177.0","25932BD4FF4B44E9A0CDA99DEDBB233D","019d664f-845c-7a2a-8669-79bdff1de7fd","019d6630-2071-75cb-8026-6699844a2719","","689","
                <div class=""stimulus-container"">
