"success","timeout","failed_images","failed_audio","failed_video","trial_type","trial_index","time_elapsed","internal_node_id","subject_id","study_id","session_id","view_history","rt","stimulus","response","task","image_index","folder","sequence_type","valuable_image_index","reward_type","correct_choice","chosen_image_index","target_X"
"true","false","[]","[]","[]","preload","0","1684","0.0-0.0","F4AB91D4F73A4678955FC8F01825C0BA","019cf0e6-d136-76fa-af9e-c0c3a3bbd06a","019cf037-5203-781a-b900-108ccb1cab86","","","","","","","","","","","","",""
"","","","","","instructions","1","5166","0.0-1.0","F4AB91D4F73A4678955FC8F01825C0BA","019cf0e6-d136-76fa-af9e-c0c3a3bbd06a","019cf037-5203-781a-b900-108ccb1cab86","[{""page_index"":0,""viewing_time"":3481}]","3481","","","","","","","","","","",""
"","","","","","instructions","2","8096","0.0-2.0","F4AB91D4F73A4678955FC8F01825C0BA","019cf0e6-d136-76fa-af9e-c0c3a3bbd06a","019cf037-5203-781a-b900-108ccb1cab86","[{""page_index"":0,""viewing_time"":2930}]","2930","","","","","","","","","","",""
"true","","","","","fullscreen","3","10228","0.0-3.0","F4AB91D4F73A4678955FC8F01825C0BA","019cf0e6-d136-76fa-af9e-c0c3a3bbd06a","019cf037-5203-781a-b900-108ccb1cab86","","1123","","","","","","","","","","",""
"","","","","","instructions","4","13034","0.0-4.0","F4AB91D4F73A4678955FC8F01825C0BA","019cf0e6-d136-76fa-af9e-c0c3a3bbd06a","019cf037-5203-781a-b900-108ccb1cab86","[{""page_index"":0,""viewing_time"":2805}]","2805","","","","","","","","","","",""
"","","","","","instructions","5","19863","0.0-5.0","F4AB91D4F73A4678955FC8F01825C0BA","019cf0e6-d136-76fa-af9e-c0c3a3bbd06a","019cf037-5203-781a-b900-108ccb1cab86","[{""page_index"":0,""viewing_time"":6829}]","6829","","","","","","","","","","",""
"","","","","","html-keyboard-response","6","23869","0.0-6.0","F4AB91D4F73A4678955FC8F01825C0BA","019cf0e6-d136-76fa-af9e-c0c3a3bbd06a","019cf037-5203-781a-b900-108ccb1cab86","","null","
                <div class=""stimulus-container"">
                    <img src=""images/instructions/movie_1.png"" class=""exp-image"">
                    <div class=""question-area""></div> 
                </div>","null","","","","","","","","",""
"","","","","","html-button-response","7","25059","0.0-7.0","F4AB91D4F73A4678955FC8F01825C0BA","019cf0e6-d136-76fa-af9e-c0c3a3bbd06a","019cf037-5203-781a-b900-108ccb1cab86","","1189","
                <div class=""stimulus-container"">
                    <img src=""images/instructions/movie_1.png"" class=""exp-image"">
                    <div class=""question-area"">
                        <p style=""font-size: 20px; font-weight: bold; margin: 0;"">Was there a person in this image?</p>
                    </div>
                </div>","0","example_question","1","","","","","","",""
"","","","","","html-keyboard-response","8","29062","0.0-8.0","F4AB91D4F73A4678955FC8F01825C0BA","019cf0e6-d136-76fa-af9e-c0c3a3bbd06a","019cf037-5203-781a-b900-108ccb1cab86","","null","
                <div class=""stimulus-container"">
                    <img src=""images/instructions/movie_2.png"" class=""exp-image"">
                    <div class=""question-area""></div> 
                </div>","null","","","","","","","","",""
"","","","","","html-button-response","9","30047","0.0-9.0","F4AB91D4F73A4678955FC8F01825C0BA","019cf0e6-d136-76fa-af9e-c0c3a3bbd06a","019cf037-5203-781a-b900-108ccb1cab86","","984","
                <div class=""stimulus-container"">
                    <img src=""images/instructions/movie_2.png"" class=""exp-image"">
                    <div class=""question-area"">
                        <p style=""font-size: 20px; font-weight: bold; margin: 0;"">Was there a person in this image?</p>
                    </div>
                </div>","0","example_question","2","","","","","","",""
"","","","","","html-keyboard-response","10","34059","0.0-10.0","F4AB91D4F73A4678955FC8F01825C0BA","019cf0e6-d136-76fa-af9e-c0c3a3bbd06a","019cf037-5203-781a-b900-108ccb1cab86","","null","
                <div class=""stimulus-container"">
                    <img src=""images/instructions/movie_3.png"" class=""exp-image"">
                    <div class=""question-area""></div> 
                </div>","null","","","","","","","","",""
"","","","","","html-button-response","11","35017","0.0-11.0","F4AB91D4F73A4678955FC8F01825C0BA","019cf0e6-d136-76fa-af9e-c0c3a3bbd06a","019cf037-5203-781a-b900-108ccb1cab86","","957","
                <div class=""stimulus-container"">
                    <img src=""images/instructions/movie_3.png"" class=""exp-image"">
                    <div class=""question-area"">
                        <p style=""font-size: 20px; font-weight: bold; margin: 0;"">Was there a person in this image?</p>
                    </div>
                </div>","0","example_question","3","","","","","","",""
"","","","","","html-keyboard-response","12","39021","0.0-12.0","F4AB91D4F73A4678955FC8F01825C0BA","019cf0e6-d136-76fa-af9e-c0c3a3bbd06a","019cf037-5203-781a-b900-108ccb1cab86","","null","
                <div class=""stimulus-container"">
                    <img src=""images/instructions/movie_4.png"" class=""exp-image"">
                    <div class=""question-area""></div> 
                </div>","null","","","","","","","","",""
"","","","","","html-button-response","13","41493","0.0-13.0","F4AB91D4F73A4678955FC8F01825C0BA","019cf0e6-d136-76fa-af9e-c0c3a3bbd06a","019cf037-5203-781a-b900-108ccb1cab86","","2472","
                <div class=""stimulus-container"">
                    <img src=""images/instructions/movie_4.png"" class=""exp-image"">
                    <div class=""question-area"">
                        <p style=""font-size: 20px; font-weight: bold; margin: 0;"">Was there a person in this image?</p>
                    </div>
                </div>","0","example_question","4","","","","","","",""
"","","","","","instructions","14","43877","0.0-14.0","F4AB91D4F73A4678955FC8F01825C0BA","019cf0e6-d136-76fa-af9e-c0c3a3bbd06a","019cf037-5203-781a-b900-108ccb1cab86","[{""page_index"":0,""viewing_time"":2384}]","2384","","","","","","","","","","",""
"","","","","","instructions","15","47309","0.0-15.0","F4AB91D4F73A4678955FC8F01825C0BA","019cf0e6-d136-76fa-af9e-c0c3a3bbd06a","019cf037-5203-781a-b900-108ccb1cab86","[{""page_index"":0,""viewing_time"":3431}]","3431","","","","","","","","","","",""
"","","","","","html-keyboard-response","16","48309","0.0-16.0","F4AB91D4F73A4678955FC8F01825C0BA","019cf0e6-d136-76fa-af9e-c0c3a3bbd06a","019cf037-5203-781a-b900-108ccb1cab86","","null","<div style=""background-color: white; width: 100vw; height: 100vh;""></div>","null","","","","","","","","",""
"","","","","","html-keyboard-response","17","53311","0.0-17.0","F4AB91D4F73A4678955FC8F01825C0BA","019cf0e6-d136-76fa-af9e-c0c3a3bbd06a","019cf037-5203-781a-b900-108ccb1cab86","","null","
                <div class=""stimulus-container"">
                    <img src=""images/schematic_sequence/hotel_scheme/hotel_scheme_1.png"" class=""exp-image"">
                    <div class=""question-area""></div> 
                </div>","null","","","","","","","","",""
"","","","","","html-button-response","18","53960","0.0-18.0","F4AB91D4F73A4678955FC8F01825C0BA","019cf0e6-d136-76fa-af9e-c0c3a3bbd06a","019cf037-5203-781a-b900-108ccb1cab86","","647","
                <div class=""stimulus-container"">
                    <img src=""images/schematic_sequence/hotel_scheme/hotel_scheme_1.png"" class=""exp-image"">
                    <div class=""question-area"">
                        <p style=""font-size: 20px; font-weight: bold; margin: 0;"">Is there a person in this image?</p>
                    </div>
                </div>","1","main_experiment_trial","1","hotel_scheme","schematic_sequence","","","","",""
"","","","","","html-keyboard-response","19","58965","0.0-19.0","F4AB91D4F73A4678955FC8F01825C0BA","019cf0e6-d136-76fa-af9e-c0c3a3bbd06a","019cf037-5203-781a-b900-108ccb1cab86","","null","
                <div class=""stimulus-container"">
                    <img src=""images/schematic_sequence/hotel_scheme/hotel_scheme_2.png"" class=""exp-image"">
                    <div class=""question-area""></div> 
                </div>","null","","","","","","","","",""
"","","","","","html-button-response","20","60820","0.0-20.0","F4AB91D4F73A4678955FC8F01825C0BA","019cf0e6-d136-76fa-af9e-c0c3a3bbd06a","019cf037-5203-781a-b900-108ccb1cab86","","1854","
                <div class=""stimulus-container"">
                    <img src=""images/schematic_sequence/hotel_scheme/hotel_scheme_2.png"" class=""exp-image"">
                    <div class=""question-area"">
                        <p style=""font-size: 20px; font-weight: bold; margin: 0;"">Is there a person in this image?</p>
                    </div>
                </div>","0","main_experiment_trial","2","hotel_scheme","schematic_sequence","","","","",""
"","","","","","html-keyboard-response","21","65826","0.0-21.0","F4AB91D4F73A4678955FC8F01825C0BA","019cf0e6-d136-76fa-af9e-c0c3a3bbd06a","019cf037-5203-781a-b900-108ccb1cab86","","null","
                <div class=""stimulus-container"">
                    <img src=""images/schematic_sequence/hotel_scheme/hotel_scheme_3.png"" class=""exp-image"">
                    <div class=""question-area""></div> 
                </div>","null","","","","","","","","",""
"","","","","","html-button-response","22","68839","0.0-22.0","F4AB91D4F73A4678955FC8F01825C0BA","019cf0e6-d136-76fa-af9e-c0c3a3bbd06a","019cf037-5203-781a-b900-108ccb1cab86","","null","
                <div class=""stimulus-container"">
                    <img src=""images/schematic_sequence/hotel_scheme/hotel_scheme_3.png"" class=""exp-image"">
                    <div class=""question-area"">
                        <p style=""font-size: 20px; font-weight: bold; margin: 0;"">Is there a person in this image?</p>
                    </div>
                </div>","null","main_experiment_trial","3","hotel_scheme","schematic_sequence","","","","",""
"","","","","","html-keyboard-response","23","73840","0.0-23.0","F4AB91D4F73A4678955FC8F01825C0BA","019cf0e6-d136-76fa-af9e-c0c3a3bbd06a","019cf037-5203-781a-b900-108ccb1cab86","","null","
                <div class=""stimulus-container"">
                    <img src=""images/schematic_sequence/hotel_scheme/hotel_scheme_4.png"" class=""exp-image"">
                    <div class=""question-area""></div> 
                </div>","null","","","","","","","","",""
"","","","","","html-button-response","24","74608","0.0-24.0","F4AB91D4F73A4678955FC8F01825C0BA","019cf0e6-d136-76fa-af9e-c0c3a3bbd06a","019cf037-5203-781a-b900-108ccb1cab86","","767","
                <div class=""stimulus-container"">
                    <img src=""images/schematic_sequence/hotel_scheme/hotel_scheme_4.png"" class=""exp-image"">
                    <div class=""question-area"">
                        <p style=""font-size: 20px; font-weight: bold; margin: 0;"">Is there a person in this image?</p>
                    </div>
                </div>","1","main_experiment_trial","4","hotel_scheme","schematic_sequence","","","","",""
"","","","","","html-keyboard-response","25","79611","0.0-25.0","F4AB91D4F73A4678955FC8F01825C0BA","019cf0e6-d136-76fa-af9e-c0c3a3bbd06a","019cf037-5203-781a-b900-108ccb1cab86","","null","
                <div class=""stimulus-container"">
                    <img src=""images/schematic_sequence/hotel_scheme/hotel_scheme_5.png"" class=""exp-image"">
                    <div class=""question-area""></div> 
                </div>","null","","","","","","","","",""
"","","","","","html-button-response","26","80480","0.0-26.0","F4AB91D4F73A4678955FC8F01825C0BA","019cf0e6-d136-76fa-af9e-c0c3a3bbd06a","019cf037-5203-781a-b900-108ccb1cab86","","868","
                <div class=""stimulus-container"">
                    <img src=""images/schematic_sequence/hotel_scheme/hotel_scheme_5.png"" class=""exp-image"">
                    <div class=""question-area"">
                        <p style=""font-size: 20px; font-weight: bold; margin: 0;"">Is there a person in this image?</p>
                    </div>
                </div>","0","main_experiment_trial","5","hotel_scheme","schematic_sequence","","","","",""
"","","","","","html-keyboard-response","27","85488","0.0-27.0","F4AB91D4F73A4678955FC8F01825C0BA","019cf0e6-d136-76fa-af9e-c0c3a3bbd06a","019cf037-5203-781a-b900-108ccb1cab86","","null","
                <div class=""stimulus-container"">
                    <img src=""images/schematic_sequence/hotel_scheme/hotel_scheme_6.png"" class=""exp-image"">
                    <div class=""question-area""></div> 
                </div>","null","","","","","","","","",""
"","","","","","html-button-response","28","86452","0.0-28.0","F4AB91D4F73A4678955FC8F01825C0BA","019cf0e6-d136-76fa-af9e-c0c3a3bbd06a","019cf037-5203-781a-b900-108ccb1cab86","","963","
                <div class=""stimulus-container"">
                    <img src=""images/schematic_sequence/hotel_scheme/hotel_scheme_6.png"" class=""exp-image"">
                    <div class=""question-area"">
                        <p style=""font-size: 20px; font-weight: bold; margin: 0;"">Is there a person in this image?</p>
                    </div>
                </div>","0","main_experiment_trial","6","hotel_scheme","schematic_sequence","","","","",""
"","","","","","html-keyboard-response","29","91463","0.0-29.0","F4AB91D4F73A4678955FC8F01825C0BA","019cf0e6-d136-76fa-af9e-c0c3a3bbd06a","019cf037-5203-781a-b900-108ccb1cab86","","null","
                <div class=""stimulus-container"">
                    <img src=""images/schematic_sequence/hotel_scheme/hotel_scheme_7.png"" class=""exp-image"">
                    <div class=""question-area""></div> 
                </div>","null","","","","","","","","",""
"","","","","","html-button-response","30","92337","0.0-30.0","F4AB91D4F73A4678955FC8F01825C0BA","019cf0e6-d136-76fa-af9e-c0c3a3bbd06a","019cf037-5203-781a-b900-108ccb1cab86","","873","
                <div class=""stimulus-container"">
                    <img src=""images/schematic_sequence/hotel_scheme/hotel_scheme_7.png"" class=""exp-image"">
                    <div class=""question-area"">
                        <p style=""font-size: 20px; font-weight: bold; margin: 0;"">Is there a person in this image?</p>
                    </div>
                </div>","0","main_experiment_trial","7","hotel_scheme","schematic_sequence","","","","",""
"","","","","","html-keyboard-response","31","97349","0.0-31.0","F4AB91D4F73A4678955FC8F01825C0BA","019cf0e6-d136-76fa-af9e-c0c3a3bbd06a","019cf037-5203-781a-b900-108ccb1cab86","","null","
                <div class=""stimulus-container"">
                    <img src=""images/schematic_sequence/hotel_scheme/hotel_scheme_8.png"" class=""exp-image"">
                    <div class=""question-area""></div> 
                </div>","null","","","","","","","","",""
"","","","","","html-button-response","32","98188","0.0-32.0","F4AB91D4F73A4678955FC8F01825C0BA","019cf0e6-d136-76fa-af9e-c0c3a3bbd06a","019cf037-5203-781a-b900-108ccb1cab86","","839","
                <div class=""stimulus-container"">
                    <img src=""images/schematic_sequence/hotel_scheme/hotel_scheme_8.png"" class=""exp-image"">
                    <div class=""question-area"">
                        <p style=""font-size: 20px; font-weight: bold; margin: 0;"">Is there a person in this image?</p>
                    </div>
                </div>","0","main_experiment_trial","8","hotel_scheme","schematic_sequence","","","","",""
"","","","","","html-keyboard-response","33","103203","0.0-33.0","F4AB91D4F73A4678955FC8F01825C0BA","019cf0e6-d136-76fa-af9e-c0c3a3bbd06a","019cf037-5203-781a-b900-108ccb1cab86","","null","
                <div class=""stimulus-container"">
                    <img src=""images/schematic_sequence/hotel_scheme/hotel_scheme_9.png"" class=""exp-image"">
                    <div class=""question-area""></div> 
                </div>","null","","","","","","","","",""
"","","","","","html-button-response","34","104512","0.0-34.0","F4AB91D4F73A4678955FC8F01825C0BA","019cf0e6-d136-76fa-af9e-c0c3a3bbd06a","019cf037-5203-781a-b900-108ccb1cab86","","1309","
                <div class=""stimulus-container"">
                    <img src=""images/schematic_sequence/hotel_scheme/hotel_scheme_9.png"" class=""exp-image"">
                    <div class=""question-area"">
                        <p style=""font-size: 20px; font-weight: bold; margin: 0;"">Is there a person in this image?</p>
                    </div>
                </div>","0","main_experiment_trial","9","hotel_scheme","schematic_sequence","","","","",""
"","","","","","html-keyboard-response","35","109514","0.0-35.0","F4AB91D4F73A4678955FC8F01825C0BA","019cf0e6-d136-76fa-af9e-c0c3a3bbd06a","019cf037-5203-781a-b900-108ccb1cab86","","null","
                <div class=""stimulus-container"">
                    <img src=""images/schematic_sequence/hotel_scheme/hotel_scheme_ten.png"" class=""exp-image"">
                    <div class=""question-area""></div> 
                </div>","null","","","","","","","","",""
"","","","","","html-button-response","36","110462","0.0-36.0","F4AB91D4F73A4678955FC8F01825C0BA","019cf0e6-d136-76fa-af9e-c0c3a3bbd06a","019cf037-5203-781a-b900-108ccb1cab86","","947","
                <div class=""stimulus-container"">
                    <img src=""images/schematic_sequence/hotel_scheme/hotel_scheme_ten.png"" class=""exp-image"">
                    <div class=""question-area"">
                        <p style=""font-size: 20px; font-weight: bold; margin: 0;"">Is there a person in this image?</p>
                    </div>
                </div>","0","main_experiment_trial","ten","hotel_scheme","schematic_sequence","","","","",""
"","","","","","html-keyboard-response","37","111467","0.0-37.0","F4AB91D4F73A4678955FC8F01825C0BA","019cf0e6-d136-76fa-af9e-c0c3a3bbd06a","019cf037-5203-781a-b900-108ccb1cab86","","null","<div style=""background-color: white; width: 100vw; height: 100vh;""></div>","null","","","","","","","","",""
"","","","","","html-keyboard-response","38","116482","0.0-38.0","F4AB91D4F73A4678955FC8F01825C0BA","019cf0e6-d136-76fa-af9e-c0c3a3bbd06a","019cf037-5203-781a-b900-108ccb1cab86","","null","
                <div class=""stimulus-container"">
                    <img src=""images/schematic_sequence/interview_scheme/interview_scheme_1.png"" class=""exp-image"">
                    <div class=""question-area""></div> 
                </div>","null","","","","","","","","",""
"","","","","","html-button-response","39","117192","0.0-39.0","F4AB91D4F73A4678955FC8F01825C0BA","019cf0e6-d136-76fa-af9e-c0c3a3bbd06a","019cf037-5203-781a-b900-108ccb1cab86","","709","
                <div class=""stimulus-container"">
                    <img src=""images/schematic_sequence/interview_scheme/interview_scheme_1.png"" class=""exp-image"">
                    <div class=""question-area"">
                        <p style=""font-size: 20px; font-weight: bold; margin: 0;"">Is there a person in this image?</p>
                    </div>
                </div>","1","main_experiment_trial","1","interview_scheme","schematic_sequence","","","","",""
"","","","","","html-keyboard-response","40","122193","0.0-40.0","F4AB91D4F73A4678955FC8F01825C0BA","019cf0e6-d136-76fa-af9e-c0c3a3bbd06a","019cf037-5203-781a-b900-108ccb1cab86","","null","
                <div class=""stimulus-container"">
                    <img src=""images/schematic_sequence/interview_scheme/interview_scheme_2.png"" class=""exp-image"">
                    <div class=""question-area""></div> 
                </div>","null","","","","","","","","",""
"","","","","","html-button-response","41","123648","0.0-41.0","F4AB91D4F73A4678955FC8F01825C0BA","019cf0e6-d136-76fa-af9e-c0c3a3bbd06a","019cf037-5203-781a-b900-108ccb1cab86","","1455","
                <div class=""stimulus-container"">
                    <img src=""images/schematic_sequence/interview_scheme/interview_scheme_2.png"" class=""exp-image"">
                    <div class=""question-area"">
                        <p style=""font-size: 20px; font-weight: bold; margin: 0;"">Is there a person in this image?</p>
                    </div>
                </div>","1","main_experiment_trial","2","interview_scheme","schematic_sequence","","","","",""
"","","","","","html-keyboard-response","42","128656","0.0-42.0","F4AB91D4F73A4678955FC8F01825C0BA","019cf0e6-d136-76fa-af9e-c0c3a3bbd06a","019cf037-5203-781a-b900-108ccb1cab86","","null","
                <div class=""stimulus-container"">
                    <img src=""images/schematic_sequence/interview_scheme/interview_scheme_3.png"" class=""exp-image"">
                    <div class=""question-area""></div> 
                </div>","null","","","","","","","","",""
"","","","","","html-button-response","43","129847","0.0-43.0","F4AB91D4F73A4678955FC8F01825C0BA","019cf0e6-d136-76fa-af9e-c0c3a3bbd06a","019cf037-5203-781a-b900-108ccb1cab86","","1191","
                <div class=""stimulus-container"">
                    <img src=""images/schematic_sequence/interview_scheme/interview_scheme_3.png"" class=""exp-image"">
                    <div class=""question-area"">
                        <p style=""font-size: 20px; font-weight: bold; margin: 0;"">Is there a person in this image?</p>
                    </div>
                </div>","1","main_experiment_trial","3","interview_scheme","schematic_sequence","","","","",""
"","","","","","html-keyboard-response","44","134863","0.0-44.0","F4AB91D4F73A4678955FC8F01825C0BA","019cf0e6-d136-76fa-af9e-c0c3a3bbd06a","019cf037-5203-781a-b900-108ccb1cab86","","null","
                <div class=""stimulus-container"">
                    <img src=""images/schematic_sequence/interview_scheme/interview_scheme_4.png"" class=""exp-image"">
                    <div class=""question-area""></div> 
                </div>","null","","","","","","","","",""
"","","","","","html-button-response","45","136188","0.0-45.0","F4AB91D4F73A4678955FC8F01825C0BA","019cf0e6-d136-76fa-af9e-c0c3a3bbd06a","019cf037-5203-781a-b900-108ccb1cab86","","1325","
                <div class=""stimulus-container"">
                    <img src=""images/schematic_sequence/interview_scheme/interview_scheme_4.png"" class=""exp-image"">
                    <div class=""question-area"">
                        <p style=""font-size: 20px; font-weight: bold; margin: 0;"">Is there a person in this image?</p>
                    </div>
                </div>","1","main_experiment_trial","4","interview_scheme","schematic_sequence","","","","",""
"","","","","","html-keyboard-response","46","141202","0.0-46.0","F4AB91D4F73A4678955FC8F01825C0BA","019cf0e6-d136-76fa-af9e-c0c3a3bbd06a","019cf037-5203-781a-b900-108ccb1cab86","","null","
                <div class=""stimulus-container"">
                    <img src=""images/schematic_sequence/interview_scheme/interview_scheme_5.png"" class=""exp-image"">
                    <div class=""question-area""></div> 
                </div>","null","","","","","","","","",""
"","","","","","html-button-response","47","142616","0.0-47.0","F4AB91D4F73A4678955FC8F01825C0BA","019cf0e6-d136-76fa-af9e-c0c3a3bbd06a","019cf037-5203-781a-b900-108ccb1cab86","","1413","
                <div class=""stimulus-container"">
                    <img src=""images/schematic_sequence/interview_scheme/interview_scheme_5.png"" class=""exp-image"">
                    <div class=""question-area"">
                        <p style=""font-size: 20px; font-weight: bold; margin: 0;"">Is there a person in this image?</p>
                    </div>
                </div>","0","main_experiment_trial","5","interview_scheme","schematic_sequence","","","","",""
"","","","","","html-keyboard-response","48","147627","0.0-48.0","F4AB91D4F73A4678955FC8F01825C0BA","019cf0e6-d136-76fa-af9e-c0c3a3bbd06a","019cf037-5203-781a-b900-108ccb1cab86","","null","
                <div class=""stimulus-container"">
                    <img src=""images/schematic_sequence/interview_scheme/interview_scheme_6.png"" class=""exp-image"">
                    <div class=""question-area""></div> 
                </div>","null","","","","","","","","",""
"","","","","","html-button-response","49","148123","0.0-49.0","F4AB91D4F73A4678955FC8F01825C0BA","019cf0e6-d136-76fa-af9e-c0c3a3bbd06a","019cf037-5203-781a-b900-108ccb1cab86","","496","
                <div class=""stimulus-container"">
                    <img src=""images/schematic_sequence/interview_scheme/interview_scheme_6.png"" class=""exp-image"">
                    <div class=""question-area"">
                        <p style=""font-size: 20px; font-weight: bold; margin: 0;"">Is there a person in this image?</p>
                    </div>
                </div>","0","main_experiment_trial","6","interview_scheme","schematic_sequence","","","","",""
"","","","","","html-keyboard-response","50","153138","0.0-50.0","F4AB91D4F73A4678955FC8F01825C0BA","019cf0e6-d136-76fa-af9e-c0c3a3bbd06a","019cf037-5203-781a-b900-108ccb1cab86","","null","
                <div class=""stimulus-container"">
                    <img src=""images/schematic_sequence/interview_scheme/interview_scheme_7.png"" class=""exp-image"">
                    <div class=""question-area""></div> 
                </div>","null","","","","","","","","",""
"","","","","","html-button-response","51","154266","0.0-51.0","F4AB91D4F73A4678955FC8F01825C0BA","019cf0e6-d136-76fa-af9e-c0c3a3bbd06a","019cf037-5203-781a-b900-108ccb1cab86","","1128","
                <div class=""stimulus-container"">
                    <img src=""images/schematic_sequence/interview_scheme/interview_scheme_7.png"" class=""exp-image"">
                    <div class=""question-area"">
                        <p style=""font-size: 20px; font-weight: bold; margin: 0;"">Is there a person in this image?</p>
                    </div>
                </div>","0","main_experiment_trial","7","interview_scheme","schematic_sequence","","","","",""
"","","","","","html-keyboard-response","52","159282","0.0-52.0","F4AB91D4F73A4678955FC8F01825C0BA","019cf0e6-d136-76fa-af9e-c0c3a3bbd06a","019cf037-5203-781a-b900-108ccb1cab86","","null","
                <div class=""stimulus-container"">
                    <img src=""images/schematic_sequence/interview_scheme/interview_scheme_8.png"" class=""exp-image"">
                    <div class=""question-area""></div> 
                </div>","null","","","","","","","","",""
"","","","","","html-button-response","53","160213","0.0-53.0","F4AB91D4F73A4678955FC8F01825C0BA","019cf0e6-d136-76fa-af9e-c0c3a3bbd06a","019cf037-5203-781a-b900-108ccb1cab86","","930","
                <div class=""stimulus-container"">
                    <img src=""images/schematic_sequence/interview_scheme/interview_scheme_8.png"" class=""exp-image"">
                    <div class=""question-area"">
                        <p style=""font-size: 20px; font-weight: bold; margin: 0;"">Is there a person in this image?</p>
                    </div>
                </div>","0","main_experiment_trial","8","interview_scheme","schematic_sequence","","","","",""
"","","","","","html-keyboard-response","54","165219","0.0-54.0","F4AB91D4F73A4678955FC8F01825C0BA","019cf0e6-d136-76fa-af9e-c0c3a3bbd06a","019cf037-5203-781a-b900-108ccb1cab86","","null","
                <div class=""stimulus-container"">
                    <img src=""images/schematic_sequence/interview_scheme/interview_scheme_9.png"" class=""exp-image"">
                    <div class=""question-area""></div> 
                </div>","null","","","","","","","","",""
"","","","","","html-button-response","55","166330","0.0-55.0","F4AB91D4F73A4678955FC8F01825C0BA","019cf0e6-d136-76fa-af9e-c0c3a3bbd06a","019cf037-5203-781a-b900-108ccb1cab86","","1110","
                <div class=""stimulus-container"">
                    <img src=""images/schematic_sequence/interview_scheme/interview_scheme_9.png"" class=""exp-image"">
                    <div class=""question-area"">
                        <p style=""font-size: 20px; font-weight: bold; margin: 0;"">Is there a person in this image?</p>
                    </div>
                </div>","0","main_experiment_trial","9","interview_scheme","schematic_sequence","","","","",""
"","","","","","html-keyboard-response","56","171346","0.0-56.0","F4AB91D4F73A4678955FC8F01825C0BA","019cf0e6-d136-76fa-af9e-c0c3a3bbd06a","019cf037-5203-781a-b900-108ccb1cab86","","null","
                <div class=""stimulus-container"">
                    <img src=""images/schematic_sequence/interview_scheme/interview_scheme_ten.png"" class=""exp-image"">
                    <div class=""question-area""></div> 
                </div>","null","","","","","","","","",""
"","","","","","html-button-response","57","171897","0.0-57.0","F4AB91D4F73A4678955FC8F01825C0BA","019cf0e6-d136-76fa-af9e-c0c3a3bbd06a","019cf037-5203-781a-b900-108ccb1cab86","","551","
                <div class=""stimulus-container"">
                    <img src=""images/schematic_sequence/interview_scheme/interview_scheme_ten.png"" class=""exp-image"">
                    <div class=""question-area"">
                        <p style=""font-size: 20px; font-weight: bold; margin: 0;"">Is there a person in this image?</p>
                    </div>
                </div>","0","main_experiment_trial","ten","interview_scheme","schematic_sequence","","","","",""
"","","","","","html-keyboard-response","58","172909","0.0-58.0","F4AB91D4F73A4678955FC8F01825C0BA","019cf0e6-d136-76fa-af9e-c0c3a3bbd06a","019cf037-5203-781a-b900-108ccb1cab86","","null","<div style=""background-color: white; width: 100vw; height: 100vh;""></div>","null","","","","","","","","",""
"","","","","","html-keyboard-response","59","177918","0.0-59.0","F4AB91D4F73A4678955FC8F01825C0BA","019cf0e6-d136-76fa-af9e-c0c3a3bbd06a","019cf037-5203-781a-b900-108ccb1cab86","","null","
                <div class=""stimulus-container"">
                    <img src=""images/schematic_sequence/flight_scheme/flight_scheme_1.png"" class=""exp-image"">
                    <div class=""question-area""></div> 
                </div>","null","","","","","","","","",""
"","","","","","html-button-response","60","178528","0.0-60.0","F4AB91D4F73A4678955FC8F01825C0BA","019cf0e6-d136-76fa-af9e-c0c3a3bbd06a","019cf037-5203-781a-b900-108ccb1cab86","","609","
                <div class=""stimulus-container"">
                    <img src=""images/schematic_sequence/flight_scheme/flight_scheme_1.png"" class=""exp-image"">
                    <div class=""question-area"">
                        <p style=""font-size: 20px; font-weight: bold; margin: 0;"">Is there a person in this image?</p>
                    </div>
                </div>","1","main_experiment_trial","1","flight_scheme","schematic_sequence","","","","",""
"","","","","","html-keyboard-response","61","183543","0.0-61.0","F4AB91D4F73A4678955FC8F01825C0BA","019cf0e6-d136-76fa-af9e-c0c3a3bbd06a","019cf037-5203-781a-b900-108ccb1cab86","","null","
                <div class=""stimulus-container"">
                    <img src=""images/schematic_sequence/flight_scheme/flight_scheme_2.png"" class=""exp-image"">
                    <div class=""question-area""></div> 
                </div>","null","","","","","","","","",""
"","","","","","html-button-response","62","184803","0.0-62.0","F4AB91D4F73A4678955FC8F01825C0BA","019cf0e6-d136-76fa-af9e-c0c3a3bbd06a","019cf037-5203-781a-b900-108ccb1cab86","","1259","
                <div class=""stimulus-container"">
                    <img src=""images/schematic_sequence/flight_scheme/flight_scheme_2.png"" class=""exp-image"">
                    <div class=""question-area"">
                        <p style=""font-size: 20px; font-weight: bold; margin: 0;"">Is there a person in this image?</p>
                    </div>
                </div>","1","main_experiment_trial","2","flight_scheme","schematic_sequence","","","","",""
"","","","","","html-keyboard-response","63","189807","0.0-63.0","F4AB91D4F73A4678955FC8F01825C0BA","019cf0e6-d136-76fa-af9e-c0c3a3bbd06a","019cf037-5203-781a-b900-108ccb1cab86","","null","
                <div class=""stimulus-container"">
                    <img src=""images/schematic_sequence/flight_scheme/flight_scheme_3.png"" class=""exp-image"">
                    <div class=""question-area""></div> 
                </div>","null","","","","","","","","",""
"","","","","","html-button-response","64","190416","0.0-64.0","F4AB91D4F73A4678955FC8F01825C0BA","019cf0e6-d136-76fa-af9e-c0c3a3bbd06a","019cf037-5203-781a-b900-108ccb1cab86","","609","
                <div class=""stimulus-container"">
                    <img src=""images/schematic_sequence/flight_scheme/flight_scheme_3.png"" class=""exp-image"">
                    <div class=""question-area"">
                        <p style=""font-size: 20px; font-weight: bold; margin: 0;"">Is there a person in this image?</p>
                    </div>
                </div>","0","main_experiment_trial","3","flight_scheme","schematic_sequence","","","","",""
"","","","","","html-keyboard-response","65","195423","0.0-65.0","F4AB91D4F73A4678955FC8F01825C0BA","019cf0e6-d136-76fa-af9e-c0c3a3bbd06a","019cf037-5203-781a-b900-108ccb1cab86","","null","
                <div class=""stimulus-container"">
                    <img src=""images/schematic_sequence/flight_scheme/flight_scheme_4.png"" class=""exp-image"">
                    <div class=""question-area""></div> 
                </div>","null","","","","","","","","",""
"","","","","","html-button-response","66","195894","0.0-66.0","F4AB91D4F73A4678955FC8F01825C0BA","019cf0e6-d136-76fa-af9e-c0c3a3bbd06a","019cf037-5203-781a-b900-108ccb1cab86","","470","
                <div class=""stimulus-container"">
                    <img src=""images/schematic_sequence/flight_scheme/flight_scheme_4.png"" class=""exp-image"">
                    <div class=""question-area"">
                        <p style=""font-size: 20px; font-weight: bold; margin: 0;"">Is there a person in this image?</p>
                    </div>
                </div>","0","main_experiment_trial","4","flight_scheme","schematic_sequence","","","","",""
"","","","","","html-keyboard-response","67","200902","0.0-67.0","F4AB91D4F73A4678955FC8F01825C0BA","019cf0e6-d136-76fa-af9e-c0c3a3bbd06a","019cf037-5203-781a-b900-108ccb1cab86","","null","
                <div class=""stimulus-container"">
                    <img src=""images/schematic_sequence/flight_scheme/flight_scheme_5.png"" class=""exp-image"">
                    <div class=""question-area""></div> 
                </div>","null","","","","","","","","",""
"","","","","","html-button-response","68","201413","0.0-68.0","F4AB91D4F73A4678955FC8F01825C0BA","019cf0e6-d136-76fa-af9e-c0c3a3bbd06a","019cf037-5203-781a-b900-108ccb1cab86","","511","
                <div class=""stimulus-container"">
                    <img src=""images/schematic_sequence/flight_scheme/flight_scheme_5.png"" class=""exp-image"">
                    <div class=""question-area"">
                        <p style=""font-size: 20px; font-weight: bold; margin: 0;"">Is there a person in this image?</p>
                    </div>
                </div>","0","main_experiment_trial","5","flight_scheme","schematic_sequence","","","","",""
"","","","","","html-keyboard-response","69","206421","0.0-69.0","F4AB91D4F73A4678955FC8F01825C0BA","019cf0e6-d136-76fa-af9e-c0c3a3bbd06a","019cf037-5203-781a-b900-108ccb1cab86","","null","
                <div class=""stimulus-container"">
                    <img src=""images/schematic_sequence/flight_scheme/flight_scheme_6.png"" class=""exp-image"">
                    <div class=""question-area""></div> 
                </div>","null","","","","","","","","",""
"","","","","","html-button-response","70","209162","0.0-70.0","F4AB91D4F73A4678955FC8F01825C0BA","019cf0e6-d136-76fa-af9e-c0c3a3bbd06a","019cf037-5203-781a-b900-108ccb1cab86","","2740","
                <div class=""stimulus-container"">
                    <img src=""images/schematic_sequence/flight_scheme/flight_scheme_6.png"" class=""exp-image"">
                    <div class=""question-area"">
                        <p style=""font-size: 20px; font-weight: bold; margin: 0;"">Is there a person in this image?</p>
                    </div>
                </div>","1","main_experiment_trial","6","flight_scheme","schematic_sequence","","","","",""
"","","","","","html-keyboard-response","71","214169","0.0-71.0","F4AB91D4F73A4678955FC8F01825C0BA","019cf0e6-d136-76fa-af9e-c0c3a3bbd06a","019cf037-5203-781a-b900-108ccb1cab86","","null","
                <div class=""stimulus-container"">
                    <img src=""images/schematic_sequence/flight_scheme/flight_scheme_7.png"" class=""exp-image"">
                    <div class=""question-area""></div> 
                </div>","null","","","","","","","","",""
"","","","","","html-button-response","72","214987","0.0-72.0","F4AB91D4F73A4678955FC8F01825C0BA","019cf0e6-d136-76fa-af9e-c0c3a3bbd06a","019cf037-5203-781a-b900-108ccb1cab86","","817","
                <div class=""stimulus-container"">
                    <img src=""images/schematic_sequence/flight_scheme/flight_scheme_7.png"" class=""exp-image"">
                    <div class=""question-area"">
                        <p style=""font-size: 20px; font-weight: bold; margin: 0;"">Is there a person in this image?</p>
                    </div>
                </div>","1","main_experiment_trial","7","flight_scheme","schematic_sequence","","","","",""
"","","","","","html-keyboard-response","73","219989","0.0-73.0","F4AB91D4F73A4678955FC8F01825C0BA","019cf0e6-d136-76fa-af9e-c0c3a3bbd06a","019cf037-5203-781a-b900-108ccb1cab86","","null","
                <div class=""stimulus-container"">
                    <img src=""images/schematic_sequence/flight_scheme/flight_scheme_8.png"" class=""exp-image"">
                    <div class=""question-area""></div> 
                </div>","null","","","","","","","","",""
"","","","","","html-button-response","74","220828","0.0-74.0","F4AB91D4F73A4678955FC8F01825C0BA","019cf0e6-d136-76fa-af9e-c0c3a3bbd06a","019cf037-5203-781a-b900-108ccb1cab86","","838","
                <div class=""stimulus-container"">
                    <img src=""images/schematic_sequence/flight_scheme/flight_scheme_8.png"" class=""exp-image"">
                    <div class=""question-area"">
                        <p style=""font-size: 20px; font-weight: bold; margin: 0;"">Is there a person in this image?</p>
                    </div>
                </div>","1","main_experiment_trial","8","flight_scheme","schematic_sequence","","","","",""
"","","","","","html-keyboard-response","75","225838","0.0-75.0","F4AB91D4F73A4678955FC8F01825C0BA","019cf0e6-d136-76fa-af9e-c0c3a3bbd06a","019cf037-5203-781a-b900-108ccb1cab86","","null","
                <div class=""stimulus-container"">
                    <img src=""images/schematic_sequence/flight_scheme/flight_scheme_9.png"" class=""exp-image"">
                    <div class=""question-area""></div> 
                </div>","null","","","","","","","","",""
"","","","","","html-button-response","76","226628","0.0-76.0","F4AB91D4F73A4678955FC8F01825C0BA","019cf0e6-d136-76fa-af9e-c0c3a3bbd06a","019cf037-5203-781a-b900-108ccb1cab86","","789","
                <div class=""stimulus-container"">
                    <img src=""images/schematic_sequence/flight_scheme/flight_scheme_9.png"" class=""exp-image"">
                    <div class=""question-area"">
                        <p style=""font-size: 20px; font-weight: bold; margin: 0;"">Is there a person in this image?</p>
                    </div>
                </div>","0","main_experiment_trial","9","flight_scheme","schematic_sequence","","","","",""
"","","","","","html-keyboard-response","77","231638","0.0-77.0","F4AB91D4F73A4678955FC8F01825C0BA","019cf0e6-d136-76fa-af9e-c0c3a3bbd06a","019cf037-5203-781a-b900-108ccb1cab86","","null","
                <div class=""stimulus-container"">
                    <img src=""images/schematic_sequence/flight_scheme/flight_scheme_ten.png"" class=""exp-image"">
                    <div class=""question-area""></div> 
                </div>","null","","","","","","","","",""
"","","","","","html-button-response","78","232978","0.0-78.0","F4AB91D4F73A4678955FC8F01825C0BA","019cf0e6-d136-76fa-af9e-c0c3a3bbd06a","019cf037-5203-781a-b900-108ccb1cab86","","1339","
                <div class=""stimulus-container"">
                    <img src=""images/schematic_sequence/flight_scheme/flight_scheme_ten.png"" class=""exp-image"">
                    <div class=""question-area"">
                        <p style=""font-size: 20px; font-weight: bold; margin: 0;"">Is there a person in this image?</p>
                    </div>
                </div>","0","main_experiment_trial","ten","flight_scheme","schematic_sequence","","","","",""
"","","","","","html-keyboard-response","79","233993","0.0-79.0","F4AB91D4F73A4678955FC8F01825C0BA","019cf0e6-d136-76fa-af9e-c0c3a3bbd06a","019cf037-5203-781a-b900-108ccb1cab86","","null","<div style=""background-color: white; width: 100vw; height: 100vh;""></div>","null","","","","","","","","",""
"","","","","","html-keyboard-response","80","238997","0.0-80.0","F4AB91D4F73A4678955FC8F01825C0BA","019cf0e6-d136-76fa-af9e-c0c3a3bbd06a","019cf037-5203-781a-b900-108ccb1cab86","","null","
                <div class=""stimulus-container"">
                    <img src=""images/schematic_sequence/restaurant_scheme/restaurant_scheme_1.png"" class=""exp-image"">
                    <div class=""question-area""></div> 
                </div>","null","","","","","","","","",""
"","","","","","html-button-response","81","239911","0.0-81.0","F4AB91D4F73A4678955FC8F01825C0BA","019cf0e6-d136-76fa-af9e-c0c3a3bbd06a","019cf037-5203-781a-b900-108ccb1cab86","","913","
                <div class=""stimulus-container"">
                    <img src=""images/schematic_sequence/restaurant_scheme/restaurant_scheme_1.png"" class=""exp-image"">
                    <div class=""question-area"">
                        <p style=""font-size: 20px; font-weight: bold; margin: 0;"">Is there a person in this image?</p>
                    </div>
                </div>","0","main_experiment_trial","1","restaurant_scheme","schematic_sequence","","","","",""
"","","","","","html-keyboard-response","82","244920","0.0-82.0","F4AB91D4F73A4678955FC8F01825C0BA","019cf0e6-d136-76fa-af9e-c0c3a3bbd06a","019cf037-5203-781a-b900-108ccb1cab86","","null","
                <div class=""stimulus-container"">
                    <img src=""images/schematic_sequence/restaurant_scheme/restaurant_scheme_2.png"" class=""exp-image"">
                    <div class=""question-area""></div> 
                </div>","null","","","","","","","","",""
"","","","","","html-button-response","83","245442","0.0-83.0","F4AB91D4F73A4678955FC8F01825C0BA","019cf0e6-d136-76fa-af9e-c0c3a3bbd06a","019cf037-5203-781a-b900-108ccb1cab86","","521","
                <div class=""stimulus-container"">
                    <img src=""images/schematic_sequence/restaurant_scheme/restaurant_scheme_2.png"" class=""exp-image"">
                    <div class=""question-area"">
                        <p style=""font-size: 20px; font-weight: bold; margin: 0;"">Is there a person in this image?</p>
                    </div>
                </div>","1","main_experiment_trial","2","restaurant_scheme","schematic_sequence","","","","",""
"","","","","","html-keyboard-response","84","250451","0.0-84.0","F4AB91D4F73A4678955FC8F01825C0BA","019cf0e6-d136-76fa-af9e-c0c3a3bbd06a","019cf037-5203-781a-b900-108ccb1cab86","","null","
                <div class=""stimulus-container"">
                    <img src=""images/schematic_sequence/restaurant_scheme/restaurant_scheme_3.png"" class=""exp-image"">
                    <div class=""question-area""></div> 
                </div>","null","","","","","","","","",""
"","","","","","html-button-response","85","251752","0.0-85.0","F4AB91D4F73A4678955FC8F01825C0BA","019cf0e6-d136-76fa-af9e-c0c3a3bbd06a","019cf037-5203-781a-b900-108ccb1cab86","","1300","
                <div class=""stimulus-container"">
                    <img src=""images/schematic_sequence/restaurant_scheme/restaurant_scheme_3.png"" class=""exp-image"">
                    <div class=""question-area"">
                        <p style=""font-size: 20px; font-weight: bold; margin: 0;"">Is there a person in this image?</p>
                    </div>
                </div>","1","main_experiment_trial","3","restaurant_scheme","schematic_sequence","","","","",""
"","","","","","html-keyboard-response","86","256759","0.0-86.0","F4AB91D4F73A4678955FC8F01825C0BA","019cf0e6-d136-76fa-af9e-c0c3a3bbd06a","019cf037-5203-781a-b900-108ccb1cab86","","null","
                <div class=""stimulus-container"">
                    <img src=""images/schematic_sequence/restaurant_scheme/restaurant_scheme_4.png"" class=""exp-image"">
                    <div class=""question-area""></div> 
                </div>","null","","","","","","","","",""
"","","","","","html-button-response","87","257911","0.0-87.0","F4AB91D4F73A4678955FC8F01825C0BA","019cf0e6-d136-76fa-af9e-c0c3a3bbd06a","019cf037-5203-781a-b900-108ccb1cab86","","1151","
                <div class=""stimulus-container"">
                    <img src=""images/schematic_sequence/restaurant_scheme/restaurant_scheme_4.png"" class=""exp-image"">
                    <div class=""question-area"">
                        <p style=""font-size: 20px; font-weight: bold; margin: 0;"">Is there a person in this image?</p>
                    </div>
                </div>","0","main_experiment_trial","4","restaurant_scheme","schematic_sequence","","","","",""
"","","","","","html-keyboard-response","88","262922","0.0-88.0","F4AB91D4F73A4678955FC8F01825C0BA","019cf0e6-d136-76fa-af9e-c0c3a3bbd06a","019cf037-5203-781a-b900-108ccb1cab86","","null","
                <div class=""stimulus-container"">
                    <img src=""images/schematic_sequence/restaurant_scheme/restaurant_scheme_5.png"" class=""exp-image"">
                    <div class=""question-area""></div> 
                </div>","null","","","","","","","","",""
"","","","","","html-button-response","89","264088","0.0-89.0","F4AB91D4F73A4678955FC8F01825C0BA","019cf0e6-d136-76fa-af9e-c0c3a3bbd06a","019cf037-5203-781a-b900-108ccb1cab86","","1166","
                <div class=""stimulus-container"">
                    <img src=""images/schematic_sequence/restaurant_scheme/restaurant_scheme_5.png"" class=""exp-image"">
                    <div class=""question-area"">
                        <p style=""font-size: 20px; font-weight: bold; margin: 0;"">Is there a person in this image?</p>
                    </div>
                </div>","0","main_experiment_trial","5","restaurant_scheme","schematic_sequence","","","","",""
"","","","","","html-keyboard-response","90","269092","0.0-90.0","F4AB91D4F73A4678955FC8F01825C0BA","019cf0e6-d136-76fa-af9e-c0c3a3bbd06a","019cf037-5203-781a-b900-108ccb1cab86","","null","
                <div class=""stimulus-container"">
                    <img src=""images/schematic_sequence/restaurant_scheme/restaurant_scheme_6.png"" class=""exp-image"">
                    <div class=""question-area""></div> 
                </div>","null","","","","","","","","",""
"","","","","","html-button-response","91","269840","0.0-91.0","F4AB91D4F73A4678955FC8F01825C0BA","019cf0e6-d136-76fa-af9e-c0c3a3bbd06a","019cf037-5203-781a-b900-108ccb1cab86","","748","
                <div class=""stimulus-container"">
                    <img src=""images/schematic_sequence/restaurant_scheme/restaurant_scheme_6.png"" class=""exp-image"">
                    <div class=""question-area"">
                        <p style=""font-size: 20px; font-weight: bold; margin: 0;"">Is there a person in this image?</p>
                    </div>
                </div>","1","main_experiment_trial","6","restaurant_scheme","schematic_sequence","","","","",""
"","","","","","html-keyboard-response","92","274841","0.0-92.0","F4AB91D4F73A4678955FC8F01825C0BA","019cf0e6-d136-76fa-af9e-c0c3a3bbd06a","019cf037-5203-781a-b900-108ccb1cab86","","null","
                <div class=""stimulus-container"">
                    <img src=""images/schematic_sequence/restaurant_scheme/restaurant_scheme_7.png"" class=""exp-image"">
                    <div class=""question-area""></div> 
                </div>","null","","","","","","","","",""
"","","","","","html-button-response","93","276877","0.0-93.0","F4AB91D4F73A4678955FC8F01825C0BA","019cf0e6-d136-76fa-af9e-c0c3a3bbd06a","019cf037-5203-781a-b900-108ccb1cab86","","2035","
                <div class=""stimulus-container"">
                    <img src=""images/schematic_sequence/restaurant_scheme/restaurant_scheme_7.png"" class=""exp-image"">
                    <div class=""question-area"">
                        <p style=""font-size: 20px; font-weight: bold; margin: 0;"">Is there a person in this image?</p>
                    </div>
                </div>","1","main_experiment_trial","7","restaurant_scheme","schematic_sequence","","","","",""
"","","","","","html-keyboard-response","94","281889","0.0-94.0","F4AB91D4F73A4678955FC8F01825C0BA","019cf0e6-d136-76fa-af9e-c0c3a3bbd06a","019cf037-5203-781a-b900-108ccb1cab86","","null","
                <div class=""stimulus-container"">
                    <img src=""images/schematic_sequence/restaurant_scheme/restaurant_scheme_8.png"" class=""exp-image"">
                    <div class=""question-area""></div> 
                </div>","null","","","","","","","","",""
"","","","","","html-button-response","95","282532","0.0-95.0","F4AB91D4F73A4678955FC8F01825C0BA","019cf0e6-d136-76fa-af9e-c0c3a3bbd06a","019cf037-5203-781a-b900-108ccb1cab86","","642","
                <div class=""stimulus-container"">
                    <img src=""images/schematic_sequence/restaurant_scheme/restaurant_scheme_8.png"" class=""exp-image"">
                    <div class=""question-area"">
                        <p style=""font-size: 20px; font-weight: bold; margin: 0;"">Is there a person in this image?</p>
                    </div>
                </div>","1","main_experiment_trial","8","restaurant_scheme","schematic_sequence","","","","",""
"","","","","","html-keyboard-response","96","287540","0.0-96.0","F4AB91D4F73A4678955FC8F01825C0BA","019cf0e6-d136-76fa-af9e-c0c3a3bbd06a","019cf037-5203-781a-b900-108ccb1cab86","","null","
                <div class=""stimulus-container"">
                    <img src=""images/schematic_sequence/restaurant_scheme/restaurant_scheme_9.png"" class=""exp-image"">
                    <div class=""question-area""></div> 
                </div>","null","","","","","","","","",""
"","","","","","html-button-response","97","289278","0.0-97.0","F4AB91D4F73A4678955FC8F01825C0BA","019cf0e6-d136-76fa-af9e-c0c3a3bbd06a","019cf037-5203-781a-b900-108ccb1cab86","","1737","
                <div class=""stimulus-container"">
                    <img src=""images/schematic_sequence/restaurant_scheme/restaurant_scheme_9.png"" class=""exp-image"">
                    <div class=""question-area"">
                        <p style=""font-size: 20px; font-weight: bold; margin: 0;"">Is there a person in this image?</p>
                    </div>
                </div>","0","main_experiment_trial","9","restaurant_scheme","schematic_sequence","","","","",""
"","","","","","html-keyboard-response","98","294282","0.0-98.0","F4AB91D4F73A4678955FC8F01825C0BA","019cf0e6-d136-76fa-af9e-c0c3a3bbd06a","019cf037-5203-781a-b900-108ccb1cab86","","null","
                <div class=""stimulus-container"">
                    <img src=""images/schematic_sequence/restaurant_scheme/restaurant_scheme_ten.png"" class=""exp-image"">
                    <div class=""question-area""></div> 
                </div>","null","","","","","","","","",""
"","","","","","html-button-response","99","295443","0.0-99.0","F4AB91D4F73A4678955FC8F01825C0BA","019cf0e6-d136-76fa-af9e-c0c3a3bbd06a","019cf037-5203-781a-b900-108ccb1cab86","","1160","
                <div class=""stimulus-container"">
                    <img src=""images/schematic_sequence/restaurant_scheme/restaurant_scheme_ten.png"" class=""exp-image"">
                    <div class=""question-area"">
                        <p style=""font-size: 20px; font-weight: bold; margin: 0;"">Is there a person in this image?</p>
                    </div>
                </div>","0","main_experiment_trial","ten","restaurant_scheme","schematic_sequence","","","","",""
"","","","","","html-keyboard-response","100","296459","0.0-100.0","F4AB91D4F73A4678955FC8F01825C0BA","019cf0e6-d136-76fa-af9e-c0c3a3bbd06a","019cf037-5203-781a-b900-108ccb1cab86","","null","<div style=""background-color: white; width: 100vw; height: 100vh;""></div>","null","","","","","","","","",""
"","","","","","html-keyboard-response","101","301475","0.0-101.0","F4AB91D4F73A4678955FC8F01825C0BA","019cf0e6-d136-76fa-af9e-c0c3a3bbd06a","019cf037-5203-781a-b900-108ccb1cab86","","null","
                <div class=""stimulus-container"">
                    <img src=""images/schematic_sequence/supermarket_scheme/supermarket_scheme_1.png"" class=""exp-image"">
                    <div class=""question-area""></div> 
                </div>","null","","","","","","","","",""
"","","","","","html-button-response","102","302429","0.0-102.0","F4AB91D4F73A4678955FC8F01825C0BA","019cf0e6-d136-76fa-af9e-c0c3a3bbd06a","019cf037-5203-781a-b900-108ccb1cab86","","954","
                <div class=""stimulus-container"">
                    <img src=""images/schematic_sequence/supermarket_scheme/supermarket_scheme_1.png"" class=""exp-image"">
                    <div class=""question-area"">
                        <p style=""font-size: 20px; font-weight: bold; margin: 0;"">Is there a person in this image?</p>
                    </div>
                </div>","1","main_experiment_trial","1","supermarket_scheme","schematic_sequence","","","","",""
"","","","","","html-keyboard-response","103","307435","0.0-103.0","F4AB91D4F73A4678955FC8F01825C0BA","019cf0e6-d136-76fa-af9e-c0c3a3bbd06a","019cf037-5203-781a-b900-108ccb1cab86","","null","
                <div class=""stimulus-container"">
                    <img src=""images/schematic_sequence/supermarket_scheme/supermarket_scheme_2.png"" class=""exp-image"">
                    <div class=""question-area""></div> 
                </div>","null","","","","","","","","",""
"","","","","","html-button-response","104","308184","0.0-104.0","F4AB91D4F73A4678955FC8F01825C0BA","019cf0e6-d136-76fa-af9e-c0c3a3bbd06a","019cf037-5203-781a-b900-108ccb1cab86","","748","
                <div class=""stimulus-container"">
                    <img src=""images/schematic_sequence/supermarket_scheme/supermarket_scheme_2.png"" class=""exp-image"">
                    <div class=""question-area"">
                        <p style=""font-size: 20px; font-weight: bold; margin: 0;"">Is there a person in this image?</p>
                    </div>
                </div>","1","main_experiment_trial","2","supermarket_scheme","schematic_sequence","","","","",""
"","","","","","html-keyboard-response","105","313199","0.0-105.0","F4AB91D4F73A4678955FC8F01825C0BA","019cf0e6-d136-76fa-af9e-c0c3a3bbd06a","019cf037-5203-781a-b900-108ccb1cab86","","null","
                <div class=""stimulus-container"">
                    <img src=""images/schematic_sequence/supermarket_scheme/supermarket_scheme_3.png"" class=""exp-image"">
                    <div class=""question-area""></div> 
                </div>","null","","","","","","","","",""
"","","","","","html-button-response","106","314098","0.0-106.0","F4AB91D4F73A4678955FC8F01825C0BA","019cf0e6-d136-76fa-af9e-c0c3a3bbd06a","019cf037-5203-781a-b900-108ccb1cab86","","898","
                <div class=""stimulus-container"">
                    <img src=""images/schematic_sequence/supermarket_scheme/supermarket_scheme_3.png"" class=""exp-image"">
                    <div class=""question-area"">
                        <p style=""font-size: 20px; font-weight: bold; margin: 0;"">Is there a person in this image?</p>
                    </div>
                </div>","1","main_experiment_trial","3","supermarket_scheme","schematic_sequence","","","","",""
"","","","","","html-keyboard-response","107","319113","0.0-107.0","F4AB91D4F73A4678955FC8F01825C0BA","019cf0e6-d136-76fa-af9e-c0c3a3bbd06a","019cf037-5203-781a-b900-108ccb1cab86","","null","
                <div class=""stimulus-container"">
                    <img src=""images/schematic_sequence/supermarket_scheme/supermarket_scheme_4.png"" class=""exp-image"">
                    <div class=""question-area""></div> 
                </div>","null","","","","","","","","",""
"","","","","","html-button-response","108","320914","0.0-108.0","F4AB91D4F73A4678955FC8F01825C0BA","019cf0e6-d136-76fa-af9e-c0c3a3bbd06a","019cf037-5203-781a-b900-108ccb1cab86","","1801","
                <div class=""stimulus-container"">
                    <img src=""images/schematic_sequence/supermarket_scheme/supermarket_scheme_4.png"" class=""exp-image"">
                    <div class=""question-area"">
                        <p style=""font-size: 20px; font-weight: bold; margin: 0;"">Is there a person in this image?</p>
                    </div>
                </div>","0","main_experiment_trial","4","supermarket_scheme","schematic_sequence","","","","",""
"","","","","","html-keyboard-response","109","325927","0.0-109.0","F4AB91D4F73A4678955FC8F01825C0BA","019cf0e6-d136-76fa-af9e-c0c3a3bbd06a","019cf037-5203-781a-b900-108ccb1cab86","","null","
                <div class=""stimulus-container"">
                    <img src=""images/schematic_sequence/supermarket_scheme/supermarket_scheme_5.png"" class=""exp-image"">
                    <div class=""question-area""></div> 
                </div>","null","","","","","","","","",""
"","","","","","html-button-response","110","326733","0.0-110.0","F4AB91D4F73A4678955FC8F01825C0BA","019cf0e6-d136-76fa-af9e-c0c3a3bbd06a","019cf037-5203-781a-b900-108ccb1cab86","","806","
                <div class=""stimulus-container"">
                    <img src=""images/schematic_sequence/supermarket_scheme/supermarket_scheme_5.png"" class=""exp-image"">
                    <div class=""question-area"">
                        <p style=""font-size: 20px; font-weight: bold; margin: 0;"">Is there a person in this image?</p>
                    </div>
                </div>","1","main_experiment_trial","5","supermarket_scheme","schematic_sequence","","","","",""
"","","","","","html-keyboard-response","111","331737","0.0-111.0","F4AB91D4F73A4678955FC8F01825C0BA","019cf0e6-d136-76fa-af9e-c0c3a3bbd06a","019cf037-5203-781a-b900-108ccb1cab86","","null","
                <div class=""stimulus-container"">
                    <img src=""images/schematic_sequence/supermarket_scheme/supermarket_scheme_6.png"" class=""exp-image"">
                    <div class=""question-area""></div> 
                </div>","null","","","","","","","","",""
"","","","","","html-button-response","112","332745","0.0-112.0","F4AB91D4F73A4678955FC8F01825C0BA","019cf0e6-d136-76fa-af9e-c0c3a3bbd06a","019cf037-5203-781a-b900-108ccb1cab86","","1007","
                <div class=""stimulus-container"">
                    <img src=""images/schematic_sequence/supermarket_scheme/supermarket_scheme_6.png"" class=""exp-image"">
                    <div class=""question-area"">
                        <p style=""font-size: 20px; font-weight: bold; margin: 0;"">Is there a person in this image?</p>
                    </div>
                </div>","0","main_experiment_trial","6","supermarket_scheme","schematic_sequence","","","","",""
"","","","","","html-keyboard-response","113","337748","0.0-113.0","F4AB91D4F73A4678955FC8F01825C0BA","019cf0e6-d136-76fa-af9e-c0c3a3bbd06a","019cf037-5203-781a-b900-108ccb1cab86","","null","
                <div class=""stimulus-container"">
                    <img src=""images/schematic_sequence/supermarket_scheme/supermarket_scheme_7.png"" class=""exp-image"">
                    <div class=""question-area""></div> 
                </div>","null","","","","","","","","",""
"","","","","","html-button-response","114","338734","0.0-114.0","F4AB91D4F73A4678955FC8F01825C0BA","019cf0e6-d136-76fa-af9e-c0c3a3bbd06a","019cf037-5203-781a-b900-108ccb1cab86","","986","
                <div class=""stimulus-container"">
                    <img src=""images/schematic_sequence/supermarket_scheme/supermarket_scheme_7.png"" class=""exp-image"">
                    <div class=""question-area"">
                        <p style=""font-size: 20px; font-weight: bold; margin: 0;"">Is there a person in this image?</p>
                    </div>
                </div>","0","main_experiment_trial","7","supermarket_scheme","schematic_sequence","","","","",""
"","","","","","html-keyboard-response","115","343735","0.0-115.0","F4AB91D4F73A4678955FC8F01825C0BA","019cf0e6-d136-76fa-af9e-c0c3a3bbd06a","019cf037-5203-781a-b900-108ccb1cab86","","null","
                <div class=""stimulus-container"">
                    <img src=""images/schematic_sequence/supermarket_scheme/supermarket_scheme_8.png"" class=""exp-image"">
                    <div class=""question-area""></div> 
                </div>","null","","","","","","","","",""
"","","","","","html-button-response","116","345238","0.0-116.0","F4AB91D4F73A4678955FC8F01825C0BA","019cf0e6-d136-76fa-af9e-c0c3a3bbd06a","019cf037-5203-781a-b900-108ccb1cab86","","1502","
                <div class=""stimulus-container"">
                    <img src=""images/schematic_sequence/supermarket_scheme/supermarket_scheme_8.png"" class=""exp-image"">
                    <div class=""question-area"">
                        <p style=""font-size: 20px; font-weight: bold; margin: 0;"">Is there a person in this image?</p>
                    </div>
                </div>","0","main_experiment_trial","8","supermarket_scheme","schematic_sequence","","","","",""
"","","","","","html-keyboard-response","117","350250","0.0-117.0","F4AB91D4F73A4678955FC8F01825C0BA","019cf0e6-d136-76fa-af9e-c0c3a3bbd06a","019cf037-5203-781a-b900-108ccb1cab86","","null","
                <div class=""stimulus-container"">
                    <img src=""images/schematic_sequence/supermarket_scheme/supermarket_scheme_9.png"" class=""exp-image"">
                    <div class=""question-area""></div> 
                </div>","null","","","","","","","","",""
"","","","","","html-button-response","118","351154","0.0-118.0","F4AB91D4F73A4678955FC8F01825C0BA","019cf0e6-d136-76fa-af9e-c0c3a3bbd06a","019cf037-5203-781a-b900-108ccb1cab86","","904","
                <div class=""stimulus-container"">
                    <img src=""images/schematic_sequence/supermarket_scheme/supermarket_scheme_9.png"" class=""exp-image"">
                    <div class=""question-area"">
                        <p style=""font-size: 20px; font-weight: bold; margin: 0;"">Is there a person in this image?</p>
                    </div>
                </div>","0","main_experiment_trial","9","supermarket_scheme","schematic_sequence","","","","",""
"","","","","","html-keyboard-response","119","356156","0.0-119.0","F4AB91D4F73A4678955FC8F01825C0BA","019cf0e6-d136-76fa-af9e-c0c3a3bbd06a","019cf037-5203-781a-b900-108ccb1cab86","","null","
                <div class=""stimulus-container"">
                    <img src=""images/schematic_sequence/supermarket_scheme/supermarket_scheme_ten.png"" class=""exp-image"">
                    <div class=""question-area""></div> 
                </div>","null","","","","","","","","",""
"","","","","","html-button-response","120","356709","0.0-120.0","F4AB91D4F73A4678955FC8F01825C0BA","019cf0e6-d136-76fa-af9e-c0c3a3bbd06a","019cf037-5203-781a-b900-108ccb1cab86","","552","
                <div class=""stimulus-container"">
                    <img src=""images/schematic_sequence/supermarket_scheme/supermarket_scheme_ten.png"" class=""exp-image"">
                    <div class=""question-area"">
                        <p style=""font-size: 20px; font-weight: bold; margin: 0;"">Is there a person in this image?</p>
                    </div>
                </div>","1","main_experiment_trial","ten","supermarket_scheme","schematic_sequence","","","","",""
"","","","","","html-keyboard-response","121","357723","0.0-121.0","F4AB91D4F73A4678955FC8F01825C0BA","019cf0e6-d136-76fa-af9e-c0c3a3bbd06a","019cf037-5203-781a-b900-108ccb1cab86","","null","<div style=""background-color: white; width: 100vw; height: 100vh;""></div>","null","","","","","","","","",""
"","","","","","html-keyboard-response","122","362736","0.0-122.0","F4AB91D4F73A4678955FC8F01825C0BA","019cf0e6-d136-76fa-af9e-c0c3a3bbd06a","019cf037-5203-781a-b900-108ccb1cab86","","null","
                <div class=""stimulus-container"">
                    <img src=""images/causal_sequence/dog_causal/dog_causal_1.png"" class=""exp-image"">
                    <div class=""question-area""></div> 
                </div>","null","","","","","","","","",""
"","","","","","html-button-response","123","363640","0.0-123.0","F4AB91D4F73A4678955FC8F01825C0BA","019cf0e6-d136-76fa-af9e-c0c3a3bbd06a","019cf037-5203-781a-b900-108ccb1cab86","","903","
                <div class=""stimulus-container"">
                    <img src=""images/causal_sequence/dog_causal/dog_causal_1.png"" class=""exp-image"">
                    <div class=""question-area"">
                        <p style=""font-size: 20px; font-weight: bold; margin: 0;"">Is there a person in this image?</p>
                    </div>
                </div>","0","main_experiment_trial","1","dog_causal","causal_sequence","","","","",""
"","","","","","html-keyboard-response","124","368644","0.0-124.0","F4AB91D4F73A4678955FC8F01825C0BA","019cf0e6-d136-76fa-af9e-c0c3a3bbd06a","019cf037-5203-781a-b900-108ccb1cab86","","null","
                <div class=""stimulus-container"">
                    <img src=""images/causal_sequence/dog_causal/dog_causal_2.png"" class=""exp-image"">
                    <div class=""question-area""></div> 
                </div>","null","","","","","","","","",""
"","","","","","html-button-response","125","370576","0.0-125.0","F4AB91D4F73A4678955FC8F01825C0BA","019cf0e6-d136-76fa-af9e-c0c3a3bbd06a","019cf037-5203-781a-b900-108ccb1cab86","","1930","
                <div class=""stimulus-container"">
                    <img src=""images/causal_sequence/dog_causal/dog_causal_2.png"" class=""exp-image"">
                    <div class=""question-area"">
                        <p style=""font-size: 20px; font-weight: bold; margin: 0;"">Is there a person in this image?</p>
                    </div>
                </div>","0","main_experiment_trial","2","dog_causal","causal_sequence","","","","",""
"","","","","","html-keyboard-response","126","375589","0.0-126.0","F4AB91D4F73A4678955FC8F01825C0BA","019cf0e6-d136-76fa-af9e-c0c3a3bbd06a","019cf037-5203-781a-b900-108ccb1cab86","","null","
                <div class=""stimulus-container"">
                    <img src=""images/causal_sequence/dog_causal/dog_causal_3.png"" class=""exp-image"">
                    <div class=""question-area""></div> 
                </div>","null","","","","","","","","",""
"","","","","","html-button-response","127","376040","0.0-127.0","F4AB91D4F73A4678955FC8F01825C0BA","019cf0e6-d136-76fa-af9e-c0c3a3bbd06a","019cf037-5203-781a-b900-108ccb1cab86","","450","
                <div class=""stimulus-container"">
                    <img src=""images/causal_sequence/dog_causal/dog_causal_3.png"" class=""exp-image"">
                    <div class=""question-area"">
                        <p style=""font-size: 20px; font-weight: bold; margin: 0;"">Is there a person in this image?</p>
                    </div>
                </div>","0","main_experiment_trial","3","dog_causal","causal_sequence","","","","",""
"","","","","","html-keyboard-response","128","381053","0.0-128.0","F4AB91D4F73A4678955FC8F01825C0BA","019cf0e6-d136-76fa-af9e-c0c3a3bbd06a","019cf037-5203-781a-b900-108ccb1cab86","","null","
                <div class=""stimulus-container"">
                    <img src=""images/causal_sequence/dog_causal/dog_causal_4.png"" class=""exp-image"">
                    <div class=""question-area""></div> 
                </div>","null","","","","","","","","",""
"","","","","","html-button-response","129","381677","0.0-129.0","F4AB91D4F73A4678955FC8F01825C0BA","019cf0e6-d136-76fa-af9e-c0c3a3bbd06a","019cf037-5203-781a-b900-108ccb1cab86","","624","
                <div class=""stimulus-container"">
                    <img src=""images/causal_sequence/dog_causal/dog_causal_4.png"" class=""exp-image"">
                    <div class=""question-area"">
                        <p style=""font-size: 20px; font-weight: bold; margin: 0;"">Is there a person in this image?</p>
                    </div>
                </div>","0","main_experiment_trial","4","dog_causal","causal_sequence","","","","",""
"","","","","","html-keyboard-response","130","386682","0.0-130.0","F4AB91D4F73A4678955FC8F01825C0BA","019cf0e6-d136-76fa-af9e-c0c3a3bbd06a","019cf037-5203-781a-b900-108ccb1cab86","","null","
                <div class=""stimulus-container"">
                    <img src=""images/causal_sequence/dog_causal/dog_causal_5.png"" class=""exp-image"">
                    <div class=""question-area""></div> 
                </div>","null","","","","","","","","",""
"","","","","","html-button-response","131","387073","0.0-131.0","F4AB91D4F73A4678955FC8F01825C0BA","019cf0e6-d136-76fa-af9e-c0c3a3bbd06a","019cf037-5203-781a-b900-108ccb1cab86","","390","
                <div class=""stimulus-container"">
                    <img src=""images/causal_sequence/dog_causal/dog_causal_5.png"" class=""exp-image"">
                    <div class=""question-area"">
                        <p style=""font-size: 20px; font-weight: bold; margin: 0;"">Is there a person in this image?</p>
                    </div>
                </div>","0","main_experiment_trial","5","dog_causal","causal_sequence","","","","",""
"","","","","","html-keyboard-response","132","392080","0.0-132.0","F4AB91D4F73A4678955FC8F01825C0BA","019cf0e6-d136-76fa-af9e-c0c3a3bbd06a","019cf037-5203-781a-b900-108ccb1cab86","","null","
                <div class=""stimulus-container"">
                    <img src=""images/causal_sequence/dog_causal/dog_causal_6.png"" class=""exp-image"">
                    <div class=""question-area""></div> 
                </div>","null","","","","","","","","",""
"","","","","","html-button-response","133","392459","0.0-133.0","F4AB91D4F73A4678955FC8F01825C0BA","019cf0e6-d136-76fa-af9e-c0c3a3bbd06a","019cf037-5203-781a-b900-108ccb1cab86","","379","
                <div class=""stimulus-container"">
                    <img src=""images/causal_sequence/dog_causal/dog_causal_6.png"" class=""exp-image"">
                    <div class=""question-area"">
                        <p style=""font-size: 20px; font-weight: bold; margin: 0;"">Is there a person in this image?</p>
                    </div>
                </div>","0","main_experiment_trial","6","dog_causal","causal_sequence","","","","",""
"","","","","","html-keyboard-response","134","397466","0.0-134.0","F4AB91D4F73A4678955FC8F01825C0BA","019cf0e6-d136-76fa-af9e-c0c3a3bbd06a","019cf037-5203-781a-b900-108ccb1cab86","","null","
                <div class=""stimulus-container"">
                    <img src=""images/causal_sequence/dog_causal/dog_causal_7.png"" class=""exp-image"">
                    <div class=""question-area""></div> 
                </div>","null","","","","","","","","",""
"","","","","","html-button-response","135","398646","0.0-135.0","F4AB91D4F73A4678955FC8F01825C0BA","019cf0e6-d136-76fa-af9e-c0c3a3bbd06a","019cf037-5203-781a-b900-108ccb1cab86","","1180","
                <div class=""stimulus-container"">
                    <img src=""images/causal_sequence/dog_causal/dog_causal_7.png"" class=""exp-image"">
                    <div class=""question-area"">
                        <p style=""font-size: 20px; font-weight: bold; margin: 0;"">Is there a person in this image?</p>
                    </div>
                </div>","0","main_experiment_trial","7","dog_causal","causal_sequence","","","","",""
"","","","","","html-keyboard-response","136","403657","0.0-136.0","F4AB91D4F73A4678955FC8F01825C0BA","019cf0e6-d136-76fa-af9e-c0c3a3bbd06a","019cf037-5203-781a-b900-108ccb1cab86","","null","
                <div class=""stimulus-container"">
                    <img src=""images/causal_sequence/dog_causal/dog_causal_8.png"" class=""exp-image"">
                    <div class=""question-area""></div> 
                </div>","null","","","","","","","","",""
"","","","","","html-button-response","137","404242","0.0-137.0","F4AB91D4F73A4678955FC8F01825C0BA","019cf0e6-d136-76fa-af9e-c0c3a3bbd06a","019cf037-5203-781a-b900-108ccb1cab86","","584","
                <div class=""stimulus-container"">
                    <img src=""images/causal_sequence/dog_causal/dog_causal_8.png"" class=""exp-image"">
                    <div class=""question-area"">
                        <p style=""font-size: 20px; font-weight: bold; margin: 0;"">Is there a person in this image?</p>
                    </div>
                </div>","0","main_experiment_trial","8","dog_causal","causal_sequence","","","","",""
"","","","","","html-keyboard-response","138","409245","0.0-138.0","F4AB91D4F73A4678955FC8F01825C0BA","019cf0e6-d136-76fa-af9e-c0c3a3bbd06a","019cf037-5203-781a-b900-108ccb1cab86","","null","
                <div class=""stimulus-container"">
                    <img src=""images/causal_sequence/dog_causal/dog_causal_9.png"" class=""exp-image"">
                    <div class=""question-area""></div> 
                </div>","null","","","","","","","","",""
"","","","","","html-button-response","139","409878","0.0-139.0","F4AB91D4F73A4678955FC8F01825C0BA","019cf0e6-d136-76fa-af9e-c0c3a3bbd06a","019cf037-5203-781a-b900-108ccb1cab86","","632","
                <div class=""stimulus-container"">
                    <img src=""images/causal_sequence/dog_causal/dog_causal_9.png"" class=""exp-image"">
                    <div class=""question-area"">
                        <p style=""font-size: 20px; font-weight: bold; margin: 0;"">Is there a person in this image?</p>
                    </div>
                </div>","0","main_experiment_trial","9","dog_causal","causal_sequence","","","","",""
"","","","","","html-keyboard-response","140","414894","0.0-140.0","F4AB91D4F73A4678955FC8F01825C0BA","019cf0e6-d136-76fa-af9e-c0c3a3bbd06a","019cf037-5203-781a-b900-108ccb1cab86","","null","
                <div class=""stimulus-container"">
                    <img src=""images/causal_sequence/dog_causal/dog_causal_ten.png"" class=""exp-image"">
                    <div class=""question-area""></div> 
                </div>","null","","","","","","","","",""
"","","","","","html-button-response","141","415568","0.0-141.0","F4AB91D4F73A4678955FC8F01825C0BA","019cf0e6-d136-76fa-af9e-c0c3a3bbd06a","019cf037-5203-781a-b900-108ccb1cab86","","674","
                <div class=""stimulus-container"">
                    <img src=""images/causal_sequence/dog_causal/dog_causal_ten.png"" class=""exp-image"">
                    <div class=""question-area"">
                        <p style=""font-size: 20px; font-weight: bold; margin: 0;"">Is there a person in this image?</p>
                    </div>
                </div>","0","main_experiment_trial","ten","dog_causal","causal_sequence","","","","",""
"","","","","","html-keyboard-response","142","416581","0.0-142.0","F4AB91D4F73A4678955FC8F01825C0BA","019cf0e6-d136-76fa-af9e-c0c3a3bbd06a","019cf037-5203-781a-b900-108ccb1cab86","","null","<div style=""background-color: white; width: 100vw; height: 100vh;""></div>","null","","","","","","","","",""
"","","","","","html-keyboard-response","143","421589","0.0-143.0","F4AB91D4F73A4678955FC8F01825C0BA","019cf0e6-d136-76fa-af9e-c0c3a3bbd06a","019cf037-5203-781a-b900-108ccb1cab86","","null","
                <div class=""stimulus-container"">
                    <img src=""images/schematic_sequence/dinner_party_scheme/dinner_party_scheme_1.png"" class=""exp-image"">
                    <div class=""question-area""></div> 
                </div>","null","","","","","","","","",""
"","","","","","html-button-response","144","422075","0.0-144.0","F4AB91D4F73A4678955FC8F01825C0BA","019cf0e6-d136-76fa-af9e-c0c3a3bbd06a","019cf037-5203-781a-b900-108ccb1cab86","","485","
                <div class=""stimulus-container"">
                    <img src=""images/schematic_sequence/dinner_party_scheme/dinner_party_scheme_1.png"" class=""exp-image"">
                    <div class=""question-area"">
                        <p style=""font-size: 20px; font-weight: bold; margin: 0;"">Is there a person in this image?</p>
                    </div>
                </div>","0","main_experiment_trial","1","dinner_party_scheme","schematic_sequence","","","","",""
"","","","","","html-keyboard-response","145","427088","0.0-145.0","F4AB91D4F73A4678955FC8F01825C0BA","019cf0e6-d136-76fa-af9e-c0c3a3bbd06a","019cf037-5203-781a-b900-108ccb1cab86","","null","
                <div class=""stimulus-container"">
                    <img src=""images/schematic_sequence/dinner_party_scheme/dinner_party_scheme_2.png"" class=""exp-image"">
                    <div class=""question-area""></div> 
                </div>","null","","","","","","","","",""
"","","","","","html-button-response","146","427883","0.0-146.0","F4AB91D4F73A4678955FC8F01825C0BA","019cf0e6-d136-76fa-af9e-c0c3a3bbd06a","019cf037-5203-781a-b900-108ccb1cab86","","794","
                <div class=""stimulus-container"">
                    <img src=""images/schematic_sequence/dinner_party_scheme/dinner_party_scheme_2.png"" class=""exp-image"">
                    <div class=""question-area"">
                        <p style=""font-size: 20px; font-weight: bold; margin: 0;"">Is there a person in this image?</p>
                    </div>
                </div>","0","main_experiment_trial","2","dinner_party_scheme","schematic_sequence","","","","",""
"","","","","","html-keyboard-response","147","432885","0.0-147.0","F4AB91D4F73A4678955FC8F01825C0BA","019cf0e6-d136-76fa-af9e-c0c3a3bbd06a","019cf037-5203-781a-b900-108ccb1cab86","","null","
                <div class=""stimulus-container"">
                    <img src=""images/schematic_sequence/dinner_party_scheme/dinner_party_scheme_3.png"" class=""exp-image"">
                    <div class=""question-area""></div> 
                </div>","null","","","","","","","","",""
"","","","","","html-button-response","148","434020","0.0-148.0","F4AB91D4F73A4678955FC8F01825C0BA","019cf0e6-d136-76fa-af9e-c0c3a3bbd06a","019cf037-5203-781a-b900-108ccb1cab86","","1134","
                <div class=""stimulus-container"">
                    <img src=""images/schematic_sequence/dinner_party_scheme/dinner_party_scheme_3.png"" class=""exp-image"">
                    <div class=""question-area"">
                        <p style=""font-size: 20px; font-weight: bold; margin: 0;"">Is there a person in this image?</p>
                    </div>
                </div>","0","main_experiment_trial","3","dinner_party_scheme","schematic_sequence","","","","",""
"","","","","","html-keyboard-response","149","439033","0.0-149.0","F4AB91D4F73A4678955FC8F01825C0BA","019cf0e6-d136-76fa-af9e-c0c3a3bbd06a","019cf037-5203-781a-b900-108ccb1cab86","","null","
                <div class=""stimulus-container"">
                    <img src=""images/schematic_sequence/dinner_party_scheme/dinner_party_scheme_4.png"" class=""exp-image"">
                    <div class=""question-area""></div> 
                </div>","null","","","","","","","","",""
"","","","","","html-button-response","150","439843","0.0-150.0","F4AB91D4F73A4678955FC8F01825C0BA","019cf0e6-d136-76fa-af9e-c0c3a3bbd06a","019cf037-5203-781a-b900-108ccb1cab86","","810","
                <div class=""stimulus-container"">
                    <img src=""images/schematic_sequence/dinner_party_scheme/dinner_party_scheme_4.png"" class=""exp-image"">
                    <div class=""question-area"">
                        <p style=""font-size: 20px; font-weight: bold; margin: 0;"">Is there a person in this image?</p>
                    </div>
                </div>","0","main_experiment_trial","4","dinner_party_scheme","schematic_sequence","","","","",""
"","","","","","html-keyboard-response","151","444846","0.0-151.0","F4AB91D4F73A4678955FC8F01825C0BA","019cf0e6-d136-76fa-af9e-c0c3a3bbd06a","019cf037-5203-781a-b900-108ccb1cab86","","null","
                <div class=""stimulus-container"">
                    <img src=""images/schematic_sequence/dinner_party_scheme/dinner_party_scheme_5.png"" class=""exp-image"">
                    <div class=""question-area""></div> 
                </div>","null","","","","","","","","",""
"","","","","","html-button-response","152","445957","0.0-152.0","F4AB91D4F73A4678955FC8F01825C0BA","019cf0e6-d136-76fa-af9e-c0c3a3bbd06a","019cf037-5203-781a-b900-108ccb1cab86","","1110","
                <div class=""stimulus-container"">
                    <img src=""images/schematic_sequence/dinner_party_scheme/dinner_party_scheme_5.png"" class=""exp-image"">
                    <div class=""question-area"">
                        <p style=""font-size: 20px; font-weight: bold; margin: 0;"">Is there a person in this image?</p>
                    </div>
                </div>","0","main_experiment_trial","5","dinner_party_scheme","schematic_sequence","","","","",""
"","","","","","html-keyboard-response","153","450969","0.0-153.0","F4AB91D4F73A4678955FC8F01825C0BA","019cf0e6-d136-76fa-af9e-c0c3a3bbd06a","019cf037-5203-781a-b900-108ccb1cab86","","null","
                <div class=""stimulus-container"">
                    <img src=""images/schematic_sequence/dinner_party_scheme/dinner_party_scheme_6.png"" class=""exp-image"">
                    <div class=""question-area""></div> 
                </div>","null","","","","","","","","",""
"","","","","","html-button-response","154","452319","0.0-154.0","F4AB91D4F73A4678955FC8F01825C0BA","019cf0e6-d136-76fa-af9e-c0c3a3bbd06a","019cf037-5203-781a-b900-108ccb1cab86","","1349","
                <div class=""stimulus-container"">
                    <img src=""images/schematic_sequence/dinner_party_scheme/dinner_party_scheme_6.png"" class=""exp-image"">
                    <div class=""question-area"">
                        <p style=""font-size: 20px; font-weight: bold; margin: 0;"">Is there a person in this image?</p>
                    </div>
                </div>","0","main_experiment_trial","6","dinner_party_scheme","schematic_sequence","","","","",""
"","","","","","html-keyboard-response","155","457322","0.0-155.0","F4AB91D4F73A4678955FC8F01825C0BA","019cf0e6-d136-76fa-af9e-c0c3a3bbd06a","019cf037-5203-781a-b900-108ccb1cab86","","null","
                <div class=""stimulus-container"">
                    <img src=""images/schematic_sequence/dinner_party_scheme/dinner_party_scheme_7.png"" class=""exp-image"">
                    <div class=""question-area""></div> 
                </div>","null","","","","","","","","",""
"","","","","","html-button-response","156","457892","0.0-156.0","F4AB91D4F73A4678955FC8F01825C0BA","019cf0e6-d136-76fa-af9e-c0c3a3bbd06a","019cf037-5203-781a-b900-108ccb1cab86","","569","
                <div class=""stimulus-container"">
                    <img src=""images/schematic_sequence/dinner_party_scheme/dinner_party_scheme_7.png"" class=""exp-image"">
                    <div class=""question-area"">
                        <p style=""font-size: 20px; font-weight: bold; margin: 0;"">Is there a person in this image?</p>
                    </div>
                </div>","0","main_experiment_trial","7","dinner_party_scheme","schematic_sequence","","","","",""
"","","","","","html-keyboard-response","157","462904","0.0-157.0","F4AB91D4F73A4678955FC8F01825C0BA","019cf0e6-d136-76fa-af9e-c0c3a3bbd06a","019cf037-5203-781a-b900-108ccb1cab86","","null","
                <div class=""stimulus-container"">
                    <img src=""images/schematic_sequence/dinner_party_scheme/dinner_party_scheme_8.png"" class=""exp-image"">
                    <div class=""question-area""></div> 
                </div>","null","","","","","","","","",""
"","","","","","html-button-response","158","463396","0.0-158.0","F4AB91D4F73A4678955FC8F01825C0BA","019cf0e6-d136-76fa-af9e-c0c3a3bbd06a","019cf037-5203-781a-b900-108ccb1cab86","","491","
                <div class=""stimulus-container"">
                    <img src=""images/schematic_sequence/dinner_party_scheme/dinner_party_scheme_8.png"" class=""exp-image"">
                    <div class=""question-area"">
                        <p style=""font-size: 20px; font-weight: bold; margin: 0;"">Is there a person in this image?</p>
                    </div>
                </div>","0","main_experiment_trial","8","dinner_party_scheme","schematic_sequence","","","","",""
"","","","","","html-keyboard-response","159","468400","0.0-159.0","F4AB91D4F73A4678955FC8F01825C0BA","019cf0e6-d136-76fa-af9e-c0c3a3bbd06a","019cf037-5203-781a-b900-108ccb1cab86","","null","
                <div class=""stimulus-container"">
                    <img src=""images/schematic_sequence/dinner_party_scheme/dinner_party_scheme_9.png"" class=""exp-image"">
                    <div class=""question-area""></div> 
                </div>","null","","","","","","","","",""
"","","","","","html-button-response","160","469186","0.0-160.0","F4AB91D4F73A4678955FC8F01825C0BA","019cf0e6-d136-76fa-af9e-c0c3a3bbd06a","019cf037-5203-781a-b900-108ccb1cab86","","786","
                <div class=""stimulus-container"">
                    <img src=""images/schematic_sequence/dinner_party_scheme/dinner_party_scheme_9.png"" class=""exp-image"">
                    <div class=""question-area"">
                        <p style=""font-size: 20px; font-weight: bold; margin: 0;"">Is there a person in this image?</p>
                    </div>
                </div>","0","main_experiment_trial","9","dinner_party_scheme","schematic_sequence","","","","",""
"","","","","","html-keyboard-response","161","474201","0.0-161.0","F4AB91D4F73A4678955FC8F01825C0BA","019cf0e6-d136-76fa-af9e-c0c3a3bbd06a","019cf037-5203-781a-b900-108ccb1cab86","","null","
                <div class=""stimulus-container"">
                    <img src=""images/schematic_sequence/dinner_party_scheme/dinner_party_scheme_ten.png"" class=""exp-image"">
                    <div class=""question-area""></div> 
                </div>","null","","","","","","","","",""
"","","","","","html-button-response","162","475223","0.0-162.0","F4AB91D4F73A4678955FC8F01825C0BA","019cf0e6-d136-76fa-af9e-c0c3a3bbd06a","019cf037-5203-781a-b900-108ccb1cab86","","1021","
                <div class=""stimulus-container"">
                    <img src=""images/schematic_sequence/dinner_party_scheme/dinner_party_scheme_ten.png"" class=""exp-image"">
                    <div class=""question-area"">
                        <p style=""font-size: 20px; font-weight: bold; margin: 0;"">Is there a person in this image?</p>
                    </div>
                </div>","0","main_experiment_trial","ten","dinner_party_scheme","schematic_sequence","","","","",""
"","","","","","html-keyboard-response","163","476232","0.0-163.0","F4AB91D4F73A4678955FC8F01825C0BA","019cf0e6-d136-76fa-af9e-c0c3a3bbd06a","019cf037-5203-781a-b900-108ccb1cab86","","null","<div style=""background-color: white; width: 100vw; height: 100vh;""></div>","null","","","","","","","","",""
"","","","","","html-keyboard-response","164","481244","0.0-164.0","F4AB91D4F73A4678955FC8F01825C0BA","019cf0e6-d136-76fa-af9e-c0c3a3bbd06a","019cf037-5203-781a-b900-108ccb1cab86","","null","
                <div class=""stimulus-container"">
                    <img src=""images/causal_sequence/coin_causal/coin_causal_1.png"" class=""exp-image"">
                    <div class=""question-area""></div> 
                </div>","null","","","","","","","","",""
"","","","","","html-button-response","165","482101","0.0-165.0","F4AB91D4F73A4678955FC8F01825C0BA","019cf0e6-d136-76fa-af9e-c0c3a3bbd06a","019cf037-5203-781a-b900-108ccb1cab86","","857","
                <div class=""stimulus-container"">
                    <img src=""images/causal_sequence/coin_causal/coin_causal_1.png"" class=""exp-image"">
                    <div class=""question-area"">
                        <p style=""font-size: 20px; font-weight: bold; margin: 0;"">Is there a person in this image?</p>
                    </div>
                </div>","0","main_experiment_trial","1","coin_causal","causal_sequence","","","","",""
"","","","","","html-keyboard-response","166","487117","0.0-166.0","F4AB91D4F73A4678955FC8F01825C0BA","019cf0e6-d136-76fa-af9e-c0c3a3bbd06a","019cf037-5203-781a-b900-108ccb1cab86","","null","
                <div class=""stimulus-container"">
                    <img src=""images/causal_sequence/coin_causal/coin_causal_2.png"" class=""exp-image"">
                    <div class=""question-area""></div> 
                </div>","null","","","","","","","","",""
"","","","","","html-button-response","167","488436","0.0-167.0","F4AB91D4F73A4678955FC8F01825C0BA","019cf0e6-d136-76fa-af9e-c0c3a3bbd06a","019cf037-5203-781a-b900-108ccb1cab86","","1318","
                <div class=""stimulus-container"">
                    <img src=""images/causal_sequence/coin_causal/coin_causal_2.png"" class=""exp-image"">
                    <div class=""question-area"">
                        <p style=""font-size: 20px; font-weight: bold; margin: 0;"">Is there a person in this image?</p>
                    </div>
                </div>","0","main_experiment_trial","2","coin_causal","causal_sequence","","","","",""
"","","","","","html-keyboard-response","168","493445","0.0-168.0","F4AB91D4F73A4678955FC8F01825C0BA","019cf0e6-d136-76fa-af9e-c0c3a3bbd06a","019cf037-5203-781a-b900-108ccb1cab86","","null","
                <div class=""stimulus-container"">
                    <img src=""images/causal_sequence/coin_causal/coin_causal_3.png"" class=""exp-image"">
                    <div class=""question-area""></div> 
                </div>","null","","","","","","","","",""
"","","","","","html-button-response","169","494179","0.0-169.0","F4AB91D4F73A4678955FC8F01825C0BA","019cf0e6-d136-76fa-af9e-c0c3a3bbd06a","019cf037-5203-781a-b900-108ccb1cab86","","733","
                <div class=""stimulus-container"">
                    <img src=""images/causal_sequence/coin_causal/coin_causal_3.png"" class=""exp-image"">
                    <div class=""question-area"">
                        <p style=""font-size: 20px; font-weight: bold; margin: 0;"">Is there a person in this image?</p>
                    </div>
                </div>","0","main_experiment_trial","3","coin_causal","causal_sequence","","","","",""
"","","","","","html-keyboard-response","170","499183","0.0-170.0","F4AB91D4F73A4678955FC8F01825C0BA","019cf0e6-d136-76fa-af9e-c0c3a3bbd06a","019cf037-5203-781a-b900-108ccb1cab86","","null","
                <div class=""stimulus-container"">
                    <img src=""images/causal_sequence/coin_causal/coin_causal_4.png"" class=""exp-image"">
                    <div class=""question-area""></div> 
                </div>","null","","","","","","","","",""
"","","","","","html-button-response","171","500113","0.0-171.0","F4AB91D4F73A4678955FC8F01825C0BA","019cf0e6-d136-76fa-af9e-c0c3a3bbd06a","019cf037-5203-781a-b900-108ccb1cab86","","930","
                <div class=""stimulus-container"">
                    <img src=""images/causal_sequence/coin_causal/coin_causal_4.png"" class=""exp-image"">
                    <div class=""question-area"">
                        <p style=""font-size: 20px; font-weight: bold; margin: 0;"">Is there a person in this image?</p>
                    </div>
                </div>","0","main_experiment_trial","4","coin_causal","causal_sequence","","","","",""
"","","","","","html-keyboard-response","172","505122","0.0-172.0","F4AB91D4F73A4678955FC8F01825C0BA","019cf0e6-d136-76fa-af9e-c0c3a3bbd06a","019cf037-5203-781a-b900-108ccb1cab86","","null","
                <div class=""stimulus-container"">
                    <img src=""images/causal_sequence/coin_causal/coin_causal_5.png"" class=""exp-image"">
                    <div class=""question-area""></div> 
                </div>","null","","","","","","","","",""
"","","","","","html-button-response","173","505645","0.0-173.0","F4AB91D4F73A4678955FC8F01825C0BA","019cf0e6-d136-76fa-af9e-c0c3a3bbd06a","019cf037-5203-781a-b900-108ccb1cab86","","523","
                <div class=""stimulus-container"">
                    <img src=""images/causal_sequence/coin_causal/coin_causal_5.png"" class=""exp-image"">
                    <div class=""question-area"">
                        <p style=""font-size: 20px; font-weight: bold; margin: 0;"">Is there a person in this image?</p>
                    </div>
                </div>","0","main_experiment_trial","5","coin_causal","causal_sequence","","","","",""
"","","","","","html-keyboard-response","174","510651","0.0-174.0","F4AB91D4F73A4678955FC8F01825C0BA","019cf0e6-d136-76fa-af9e-c0c3a3bbd06a","019cf037-5203-781a-b900-108ccb1cab86","","null","
                <div class=""stimulus-container"">
                    <img src=""images/causal_sequence/coin_causal/coin_causal_6.png"" class=""exp-image"">
                    <div class=""question-area""></div> 
                </div>","null","","","","","","","","",""
"","","","","","html-button-response","175","511915","0.0-175.0","F4AB91D4F73A4678955FC8F01825C0BA","019cf0e6-d136-76fa-af9e-c0c3a3bbd06a","019cf037-5203-781a-b900-108ccb1cab86","","1264","
                <div class=""stimulus-container"">
                    <img src=""images/causal_sequence/coin_causal/coin_causal_6.png"" class=""exp-image"">
                    <div class=""question-area"">
                        <p style=""font-size: 20px; font-weight: bold; margin: 0;"">Is there a person in this image?</p>
                    </div>
                </div>","0","main_experiment_trial","6","coin_causal","causal_sequence","","","","",""
"","","","","","html-keyboard-response","176","516929","0.0-176.0","F4AB91D4F73A4678955FC8F01825C0BA","019cf0e6-d136-76fa-af9e-c0c3a3bbd06a","019cf037-5203-781a-b900-108ccb1cab86","","null","
                <div class=""stimulus-container"">
                    <img src=""images/causal_sequence/coin_causal/coin_causal_7.png"" class=""exp-image"">
                    <div class=""question-area""></div> 
                </div>","null","","","","","","","","",""
"","","","","","html-button-response","177","517651","0.0-177.0","F4AB91D4F73A4678955FC8F01825C0BA","019cf0e6-d136-76fa-af9e-c0c3a3bbd06a","019cf037-5203-781a-b900-108ccb1cab86","","721","
                <div class=""stimulus-container"">
                    <img src=""images/causal_sequence/coin_causal/coin_causal_7.png"" class=""exp-image"">
                    <div class=""question-area"">
                        <p style=""font-size: 20px; font-weight: bold; margin: 0;"">Is there a person in this image?</p>
                    </div>
                </div>","1","main_experiment_trial","7","coin_causal","causal_sequence","","","","",""
"","","","","","html-keyboard-response","178","522664","0.0-178.0","F4AB91D4F73A4678955FC8F01825C0BA","019cf0e6-d136-76fa-af9e-c0c3a3bbd06a","019cf037-5203-781a-b900-108ccb1cab86","","null","
                <div class=""stimulus-container"">
                    <img src=""images/causal_sequence/coin_causal/coin_causal_8.png"" class=""exp-image"">
                    <div class=""question-area""></div> 
                </div>","null","","","","","","","","",""
"","","","","","html-button-response","179","523246","0.0-179.0","F4AB91D4F73A4678955FC8F01825C0BA","019cf0e6-d136-76fa-af9e-c0c3a3bbd06a","019cf037-5203-781a-b900-108ccb1cab86","","581","
                <div class=""stimulus-container"">
                    <img src=""images/causal_sequence/coin_causal/coin_causal_8.png"" class=""exp-image"">
                    <div class=""question-area"">
                        <p style=""font-size: 20px; font-weight: bold; margin: 0;"">Is there a person in this image?</p>
                    </div>
                </div>","0","main_experiment_trial","8","coin_causal","causal_sequence","","","","",""
"","","","","","html-keyboard-response","180","528262","0.0-180.0","F4AB91D4F73A4678955FC8F01825C0BA","019cf0e6-d136-76fa-af9e-c0c3a3bbd06a","019cf037-5203-781a-b900-108ccb1cab86","","null","
                <div class=""stimulus-container"">
                    <img src=""images/causal_sequence/coin_causal/coin_causal_9.png"" class=""exp-image"">
                    <div class=""question-area""></div> 
                </div>","null","","","","","","","","",""
"","","","","","html-button-response","181","529502","0.0-181.0","F4AB91D4F73A4678955FC8F01825C0BA","019cf0e6-d136-76fa-af9e-c0c3a3bbd06a","019cf037-5203-781a-b900-108ccb1cab86","","1239","
                <div class=""stimulus-container"">
                    <img src=""images/causal_sequence/coin_causal/coin_causal_9.png"" class=""exp-image"">
                    <div class=""question-area"">
                        <p style=""font-size: 20px; font-weight: bold; margin: 0;"">Is there a person in this image?</p>
                    </div>
                </div>","0","main_experiment_trial","9","coin_causal","causal_sequence","","","","",""
"","","","","","html-keyboard-response","182","534507","0.0-182.0","F4AB91D4F73A4678955FC8F01825C0BA","019cf0e6-d136-76fa-af9e-c0c3a3bbd06a","019cf037-5203-781a-b900-108ccb1cab86","","null","
                <div class=""stimulus-container"">
                    <img src=""images/causal_sequence/coin_causal/coin_causal_ten.png"" class=""exp-image"">
                    <div class=""question-area""></div> 
                </div>","null","","","","","","","","",""
"","","","","","html-button-response","183","535712","0.0-183.0","F4AB91D4F73A4678955FC8F01825C0BA","019cf0e6-d136-76fa-af9e-c0c3a3bbd06a","019cf037-5203-781a-b900-108ccb1cab86","","1205","
                <div class=""stimulus-container"">
                    <img src=""images/causal_sequence/coin_causal/coin_causal_ten.png"" class=""exp-image"">
                    <div class=""question-area"">
                        <p style=""font-size: 20px; font-weight: bold; margin: 0;"">Is there a person in this image?</p>
                    </div>
                </div>","0","main_experiment_trial","ten","coin_causal","causal_sequence","","","","",""
