"success","timeout","failed_images","failed_audio","failed_video","trial_type","trial_index","time_elapsed","internal_node_id","subject_id","study_id","session_id","view_history","rt","stimulus","response","task","image_index","folder","sequence_type","presentation_order","valuable_image_index","reward_type","distance_from_x","target_X","chosen_image_index","is_x_plus_dist","correct_choice"
"true","false","[]","[]","[]","preload","0","7225","0.0-0.0","FB715D136AB64DD9B5E21DF3716614D6","019cfa20-ee02-7c8f-ab92-eac5d678c305","019cfa18-54b6-74d4-8209-5fe92d2edcd5","","","","","","","","","","","","","","","",""
"","","","","","instructions","1","19205","0.0-1.0","FB715D136AB64DD9B5E21DF3716614D6","019cfa20-ee02-7c8f-ab92-eac5d678c305","019cfa18-54b6-74d4-8209-5fe92d2edcd5","[{""page_index"":0,""viewing_time"":11979}]","11980","","","","","","","","","","","","","",""
"","","","","","instructions","2","118155","0.0-2.0","FB715D136AB64DD9B5E21DF3716614D6","019cfa20-ee02-7c8f-ab92-eac5d678c305","019cfa18-54b6-74d4-8209-5fe92d2edcd5","[{""page_index"":0,""viewing_time"":98950}]","98950","","","","","","","","","","","","","",""
"true","","","","","fullscreen","3","120580","0.0-3.0","FB715D136AB64DD9B5E21DF3716614D6","019cfa20-ee02-7c8f-ab92-eac5d678c305","019cfa18-54b6-74d4-8209-5fe92d2edcd5","","1424","","","","","","","","","","","","","",""
"","","","","","instructions","4","123754","0.0-4.0","FB715D136AB64DD9B5E21DF3716614D6","019cfa20-ee02-7c8f-ab92-eac5d678c305","019cfa18-54b6-74d4-8209-5fe92d2edcd5","[{""page_index"":0,""viewing_time"":3173}]","3174","","","","","","","","","","","","","",""
"","","","","","instructions","5","127029","0.0-5.0","FB715D136AB64DD9B5E21DF3716614D6","019cfa20-ee02-7c8f-ab92-eac5d678c305","019cfa18-54b6-74d4-8209-5fe92d2edcd5","[{""page_index"":0,""viewing_time"":3275}]","3275","","","","","","","","","","","","","",""
"","","","","","html-keyboard-response","6","131034","0.0-6.0","FB715D136AB64DD9B5E21DF3716614D6","019cfa20-ee02-7c8f-ab92-eac5d678c305","019cfa18-54b6-74d4-8209-5fe92d2edcd5","","null","
                <div class=""stimulus-container"">
                    <img src=""images/instructions/movie_1.png"" class=""exp-image"">
                    <div class=""question-area""></div> 
                </div>","null","","","","","","","","","","","",""
"","","","","","html-button-response","7","133623","0.0-7.0","FB715D136AB64DD9B5E21DF3716614D6","019cfa20-ee02-7c8f-ab92-eac5d678c305","019cfa18-54b6-74d4-8209-5fe92d2edcd5","","2588","
                <div class=""stimulus-container"">
                    <img src=""images/instructions/movie_1.png"" class=""exp-image"">
                    <div class=""question-area"">
                        <p style=""font-size: 20px; font-weight: bold; margin: 0;"">Was there a person in this image?</p>
                    </div>
                </div>","0","example_question","1","","","","","","","","","",""
"","","","","","html-keyboard-response","8","137633","0.0-8.0","FB715D136AB64DD9B5E21DF3716614D6","019cfa20-ee02-7c8f-ab92-eac5d678c305","019cfa18-54b6-74d4-8209-5fe92d2edcd5","","null","
                <div class=""stimulus-container"">
                    <img src=""images/instructions/movie_2.png"" class=""exp-image"">
                    <div class=""question-area""></div> 
                </div>","null","","","","","","","","","","","",""
"","","","","","html-button-response","9","138912","0.0-9.0","FB715D136AB64DD9B5E21DF3716614D6","019cfa20-ee02-7c8f-ab92-eac5d678c305","019cfa18-54b6-74d4-8209-5fe92d2edcd5","","1274","
                <div class=""stimulus-container"">
                    <img src=""images/instructions/movie_2.png"" class=""exp-image"">
                    <div class=""question-area"">
                        <p style=""font-size: 20px; font-weight: bold; margin: 0;"">Was there a person in this image?</p>
                    </div>
                </div>","0","example_question","2","","","","","","","","","",""
"","","","","","html-keyboard-response","10","142916","0.0-10.0","FB715D136AB64DD9B5E21DF3716614D6","019cfa20-ee02-7c8f-ab92-eac5d678c305","019cfa18-54b6-74d4-8209-5fe92d2edcd5","","null","
                <div class=""stimulus-container"">
                    <img src=""images/instructions/movie_3.png"" class=""exp-image"">
                    <div class=""question-area""></div> 
                </div>","null","","","","","","","","","","","",""
"","","","","","html-button-response","11","143552","0.0-11.0","FB715D136AB64DD9B5E21DF3716614D6","019cfa20-ee02-7c8f-ab92-eac5d678c305","019cfa18-54b6-74d4-8209-5fe92d2edcd5","","635","
                <div class=""stimulus-container"">
                    <img src=""images/instructions/movie_3.png"" class=""exp-image"">
                    <div class=""question-area"">
                        <p style=""font-size: 20px; font-weight: bold; margin: 0;"">Was there a person in this image?</p>
                    </div>
                </div>","0","example_question","3","","","","","","","","","",""
"","","","","","html-keyboard-response","12","147568","0.0-12.0","FB715D136AB64DD9B5E21DF3716614D6","019cfa20-ee02-7c8f-ab92-eac5d678c305","019cfa18-54b6-74d4-8209-5fe92d2edcd5","","null","
                <div class=""stimulus-container"">
                    <img src=""images/instructions/movie_4.png"" class=""exp-image"">
                    <div class=""question-area""></div> 
                </div>","null","","","","","","","","","","","",""
"","","","","","html-button-response","13","148103","0.0-13.0","FB715D136AB64DD9B5E21DF3716614D6","019cfa20-ee02-7c8f-ab92-eac5d678c305","019cfa18-54b6-74d4-8209-5fe92d2edcd5","","534","
                <div class=""stimulus-container"">
                    <img src=""images/instructions/movie_4.png"" class=""exp-image"">
                    <div class=""question-area"">
                        <p style=""font-size: 20px; font-weight: bold; margin: 0;"">Was there a person in this image?</p>
                    </div>
                </div>","0","example_question","4","","","","","","","","","",""
"","","","","","instructions","14","149948","0.0-14.0","FB715D136AB64DD9B5E21DF3716614D6","019cfa20-ee02-7c8f-ab92-eac5d678c305","019cfa18-54b6-74d4-8209-5fe92d2edcd5","[{""page_index"":0,""viewing_time"":1844}]","1844","","","","","","","","","","","","","",""
"","","","","","instructions","15","154087","0.0-15.0","FB715D136AB64DD9B5E21DF3716614D6","019cfa20-ee02-7c8f-ab92-eac5d678c305","019cfa18-54b6-74d4-8209-5fe92d2edcd5","[{""page_index"":0,""viewing_time"":4139}]","4139","","","","","","","","","","","","","",""
"","","","","","html-keyboard-response","16","159097","0.0-16.0","FB715D136AB64DD9B5E21DF3716614D6","019cfa20-ee02-7c8f-ab92-eac5d678c305","019cfa18-54b6-74d4-8209-5fe92d2edcd5","","null","<div style=""background-color: white; width: 100vw; height: 100vh;""></div>","null","","","","","","","","","","","",""
"","","","","","html-keyboard-response","17","160099","0.0-17.0","FB715D136AB64DD9B5E21DF3716614D6","019cfa20-ee02-7c8f-ab92-eac5d678c305","019cfa18-54b6-74d4-8209-5fe92d2edcd5","","null","
                <div class=""stimulus-container"">
                    <img src=""images/semantic_sequence/exploring_nature_semantic/exploring_nature_semantic_1.png"" class=""exp-image"">
                    <div class=""question-area""></div> 
                </div>","null","","","","","","","","","","","",""
"","","","","","html-button-response","18","161426","0.0-18.0","FB715D136AB64DD9B5E21DF3716614D6","019cfa20-ee02-7c8f-ab92-eac5d678c305","019cfa18-54b6-74d4-8209-5fe92d2edcd5","","1326","
                <div class=""stimulus-container"">
                    <img src=""images/semantic_sequence/exploring_nature_semantic/exploring_nature_semantic_1.png"" class=""exp-image"">
                    <div class=""question-area"">
                        <p style=""font-size: 20px; font-weight: bold; margin: 0;"">Is there a person in this image?</p>
                    </div>
                </div>","0","main_experiment_trial","1","exploring_nature_semantic","semantic_sequence","chronological","","","","","","",""
"","","","","","html-keyboard-response","19","162440","0.0-19.0","FB715D136AB64DD9B5E21DF3716614D6","019cfa20-ee02-7c8f-ab92-eac5d678c305","019cfa18-54b6-74d4-8209-5fe92d2edcd5","","null","
                <div class=""stimulus-container"">
                    <img src=""images/semantic_sequence/exploring_nature_semantic/exploring_nature_semantic_2.png"" class=""exp-image"">
                    <div class=""question-area""></div> 
                </div>","null","","","","","","","","","","","",""
"","","","","","html-button-response","20","163648","0.0-20.0","FB715D136AB64DD9B5E21DF3716614D6","019cfa20-ee02-7c8f-ab92-eac5d678c305","019cfa18-54b6-74d4-8209-5fe92d2edcd5","","1207","
                <div class=""stimulus-container"">
                    <img src=""images/semantic_sequence/exploring_nature_semantic/exploring_nature_semantic_2.png"" class=""exp-image"">
                    <div class=""question-area"">
                        <p style=""font-size: 20px; font-weight: bold; margin: 0;"">Is there a person in this image?</p>
                    </div>
                </div>","0","main_experiment_trial","2","exploring_nature_semantic","semantic_sequence","chronological","","","","","","",""
"","","","","","html-keyboard-response","21","164650","0.0-21.0","FB715D136AB64DD9B5E21DF3716614D6","019cfa20-ee02-7c8f-ab92-eac5d678c305","019cfa18-54b6-74d4-8209-5fe92d2edcd5","","null","
                <div class=""stimulus-container"">
                    <img src=""images/semantic_sequence/exploring_nature_semantic/exploring_nature_semantic_3.png"" class=""exp-image"">
                    <div class=""question-area""></div> 
                </div>","null","","","","","","","","","","","",""
"","","","","","html-button-response","22","165688","0.0-22.0","FB715D136AB64DD9B5E21DF3716614D6","019cfa20-ee02-7c8f-ab92-eac5d678c305","019cfa18-54b6-74d4-8209-5fe92d2edcd5","","1037","
                <div class=""stimulus-container"">
                    <img src=""images/semantic_sequence/exploring_nature_semantic/exploring_nature_semantic_3.png"" class=""exp-image"">
                    <div class=""question-area"">
                        <p style=""font-size: 20px; font-weight: bold; margin: 0;"">Is there a person in this image?</p>
                    </div>
                </div>","0","main_experiment_trial","3","exploring_nature_semantic","semantic_sequence","chronological","","","","","","",""
"","","","","","html-keyboard-response","23","166692","0.0-23.0","FB715D136AB64DD9B5E21DF3716614D6","019cfa20-ee02-7c8f-ab92-eac5d678c305","019cfa18-54b6-74d4-8209-5fe92d2edcd5","","null","
                <div class=""stimulus-container"">
                    <img src=""images/semantic_sequence/exploring_nature_semantic/exploring_nature_semantic_4.png"" class=""exp-image"">
                    <div class=""question-area""></div> 
                </div>","null","","","","","","","","","","","",""
"","","","","","html-button-response","24","167551","0.0-24.0","FB715D136AB64DD9B5E21DF3716614D6","019cfa20-ee02-7c8f-ab92-eac5d678c305","019cfa18-54b6-74d4-8209-5fe92d2edcd5","","858","
                <div class=""stimulus-container"">
                    <img src=""images/semantic_sequence/exploring_nature_semantic/exploring_nature_semantic_4.png"" class=""exp-image"">
                    <div class=""question-area"">
                        <p style=""font-size: 20px; font-weight: bold; margin: 0;"">Is there a person in this image?</p>
                    </div>
                </div>","0","main_experiment_trial","4","exploring_nature_semantic","semantic_sequence","chronological","","","","","","",""
"","","","","","html-keyboard-response","25","168562","0.0-25.0","FB715D136AB64DD9B5E21DF3716614D6","019cfa20-ee02-7c8f-ab92-eac5d678c305","019cfa18-54b6-74d4-8209-5fe92d2edcd5","","null","
                <div class=""stimulus-container"">
                    <img src=""images/semantic_sequence/exploring_nature_semantic/exploring_nature_semantic_5.png"" class=""exp-image"">
                    <div class=""question-area""></div> 
                </div>","null","","","","","","","","","","","",""
"","","","","","html-button-response","26","169171","0.0-26.0","FB715D136AB64DD9B5E21DF3716614D6","019cfa20-ee02-7c8f-ab92-eac5d678c305","019cfa18-54b6-74d4-8209-5fe92d2edcd5","","609","
                <div class=""stimulus-container"">
                    <img src=""images/semantic_sequence/exploring_nature_semantic/exploring_nature_semantic_5.png"" class=""exp-image"">
                    <div class=""question-area"">
                        <p style=""font-size: 20px; font-weight: bold; margin: 0;"">Is there a person in this image?</p>
                    </div>
                </div>","0","main_experiment_trial","5","exploring_nature_semantic","semantic_sequence","chronological","","","","","","",""
"","","","","","html-keyboard-response","27","170176","0.0-27.0","FB715D136AB64DD9B5E21DF3716614D6","019cfa20-ee02-7c8f-ab92-eac5d678c305","019cfa18-54b6-74d4-8209-5fe92d2edcd5","","null","
                <div class=""stimulus-container"">
                    <img src=""images/semantic_sequence/exploring_nature_semantic/exploring_nature_semantic_6.png"" class=""exp-image"">
                    <div class=""question-area""></div> 
                </div>","null","","","","","","","","","","","",""
"","","","","","html-button-response","28","170742","0.0-28.0","FB715D136AB64DD9B5E21DF3716614D6","019cfa20-ee02-7c8f-ab92-eac5d678c305","019cfa18-54b6-74d4-8209-5fe92d2edcd5","","565","
                <div class=""stimulus-container"">
                    <img src=""images/semantic_sequence/exploring_nature_semantic/exploring_nature_semantic_6.png"" class=""exp-image"">
                    <div class=""question-area"">
                        <p style=""font-size: 20px; font-weight: bold; margin: 0;"">Is there a person in this image?</p>
                    </div>
                </div>","0","main_experiment_trial","6","exploring_nature_semantic","semantic_sequence","chronological","","","","","","",""
"","","","","","html-keyboard-response","29","171757","0.0-29.0","FB715D136AB64DD9B5E21DF3716614D6","019cfa20-ee02-7c8f-ab92-eac5d678c305","019cfa18-54b6-74d4-8209-5fe92d2edcd5","","null","
                <div class=""stimulus-container"">
                    <img src=""images/semantic_sequence/exploring_nature_semantic/exploring_nature_semantic_7.png"" class=""exp-image"">
                    <div class=""question-area""></div> 
                </div>","null","","","","","","","","","","","",""
"","","","","","html-button-response","30","172246","0.0-30.0","FB715D136AB64DD9B5E21DF3716614D6","019cfa20-ee02-7c8f-ab92-eac5d678c305","019cfa18-54b6-74d4-8209-5fe92d2edcd5","","488","
                <div class=""stimulus-container"">
                    <img src=""images/semantic_sequence/exploring_nature_semantic/exploring_nature_semantic_7.png"" class=""exp-image"">
                    <div class=""question-area"">
                        <p style=""font-size: 20px; font-weight: bold; margin: 0;"">Is there a person in this image?</p>
                    </div>
                </div>","0","main_experiment_trial","7","exploring_nature_semantic","semantic_sequence","chronological","","","","","","",""
"","","","","","html-keyboard-response","31","173259","0.0-31.0","FB715D136AB64DD9B5E21DF3716614D6","019cfa20-ee02-7c8f-ab92-eac5d678c305","019cfa18-54b6-74d4-8209-5fe92d2edcd5","","null","
                <div class=""stimulus-container"">
                    <img src=""images/semantic_sequence/exploring_nature_semantic/exploring_nature_semantic_8.png"" class=""exp-image"">
                    <div class=""question-area""></div> 
                </div>","null","","","","","","","","","","","",""
"","","","","","html-button-response","32","174009","0.0-32.0","FB715D136AB64DD9B5E21DF3716614D6","019cfa20-ee02-7c8f-ab92-eac5d678c305","019cfa18-54b6-74d4-8209-5fe92d2edcd5","","749","
                <div class=""stimulus-container"">
                    <img src=""images/semantic_sequence/exploring_nature_semantic/exploring_nature_semantic_8.png"" class=""exp-image"">
                    <div class=""question-area"">
                        <p style=""font-size: 20px; font-weight: bold; margin: 0;"">Is there a person in this image?</p>
                    </div>
                </div>","0","main_experiment_trial","8","exploring_nature_semantic","semantic_sequence","chronological","","","","","","",""
"","","","","","html-keyboard-response","33","175013","0.0-33.0","FB715D136AB64DD9B5E21DF3716614D6","019cfa20-ee02-7c8f-ab92-eac5d678c305","019cfa18-54b6-74d4-8209-5fe92d2edcd5","","null","
                <div class=""stimulus-container"">
                    <img src=""images/semantic_sequence/exploring_nature_semantic/exploring_nature_semantic_9.png"" class=""exp-image"">
                    <div class=""question-area""></div> 
                </div>","null","","","","","","","","","","","",""
"","","","","","html-button-response","34","175564","0.0-34.0","FB715D136AB64DD9B5E21DF3716614D6","019cfa20-ee02-7c8f-ab92-eac5d678c305","019cfa18-54b6-74d4-8209-5fe92d2edcd5","","550","
                <div class=""stimulus-container"">
                    <img src=""images/semantic_sequence/exploring_nature_semantic/exploring_nature_semantic_9.png"" class=""exp-image"">
                    <div class=""question-area"">
                        <p style=""font-size: 20px; font-weight: bold; margin: 0;"">Is there a person in this image?</p>
                    </div>
                </div>","0","main_experiment_trial","9","exploring_nature_semantic","semantic_sequence","chronological","","","","","","",""
"","","","","","html-keyboard-response","35","176570","0.0-35.0","FB715D136AB64DD9B5E21DF3716614D6","019cfa20-ee02-7c8f-ab92-eac5d678c305","019cfa18-54b6-74d4-8209-5fe92d2edcd5","","null","
                <div class=""stimulus-container"">
                    <img src=""images/semantic_sequence/exploring_nature_semantic/exploring_nature_semantic_ten.png"" class=""exp-image"">
                    <div class=""question-area""></div> 
                </div>","null","","","","","","","","","","","",""
"","","","","","html-button-response","36","177292","0.0-36.0","FB715D136AB64DD9B5E21DF3716614D6","019cfa20-ee02-7c8f-ab92-eac5d678c305","019cfa18-54b6-74d4-8209-5fe92d2edcd5","","721","
                <div class=""stimulus-container"">
                    <img src=""images/semantic_sequence/exploring_nature_semantic/exploring_nature_semantic_ten.png"" class=""exp-image"">
                    <div class=""question-area"">
                        <p style=""font-size: 20px; font-weight: bold; margin: 0;"">Is there a person in this image?</p>
                    </div>
                </div>","0","main_experiment_trial","ten","exploring_nature_semantic","semantic_sequence","chronological","","","","","","",""
"","","","","","html-keyboard-response","37","182301","0.0-37.0","FB715D136AB64DD9B5E21DF3716614D6","019cfa20-ee02-7c8f-ab92-eac5d678c305","019cfa18-54b6-74d4-8209-5fe92d2edcd5","","null","<div style=""background-color: white; width: 100vw; height: 100vh;""></div>","null","","","","","","","","","","","",""
"","","","","","html-keyboard-response","38","183303","0.0-38.0","FB715D136AB64DD9B5E21DF3716614D6","019cfa20-ee02-7c8f-ab92-eac5d678c305","019cfa18-54b6-74d4-8209-5fe92d2edcd5","","null","
                <div class=""stimulus-container"">
                    <img src=""images/semantic_sequence/housework_semantic/housework_semantic_1.png"" class=""exp-image"">
                    <div class=""question-area""></div> 
                </div>","null","","","","","","","","","","","",""
"","","","","","html-button-response","39","185782","0.0-39.0","FB715D136AB64DD9B5E21DF3716614D6","019cfa20-ee02-7c8f-ab92-eac5d678c305","019cfa18-54b6-74d4-8209-5fe92d2edcd5","","2479","
                <div class=""stimulus-container"">
                    <img src=""images/semantic_sequence/housework_semantic/housework_semantic_1.png"" class=""exp-image"">
                    <div class=""question-area"">
                        <p style=""font-size: 20px; font-weight: bold; margin: 0;"">Is there a person in this image?</p>
                    </div>
                </div>","0","main_experiment_trial","1","housework_semantic","semantic_sequence","chronological","","","","","","",""
"","","","","","html-keyboard-response","40","186791","0.0-40.0","FB715D136AB64DD9B5E21DF3716614D6","019cfa20-ee02-7c8f-ab92-eac5d678c305","019cfa18-54b6-74d4-8209-5fe92d2edcd5","","null","
                <div class=""stimulus-container"">
                    <img src=""images/semantic_sequence/housework_semantic/housework_semantic_2.png"" class=""exp-image"">
                    <div class=""question-area""></div> 
                </div>","null","","","","","","","","","","","",""
"","","","","","html-button-response","41","188475","0.0-41.0","FB715D136AB64DD9B5E21DF3716614D6","019cfa20-ee02-7c8f-ab92-eac5d678c305","019cfa18-54b6-74d4-8209-5fe92d2edcd5","","1683","
                <div class=""stimulus-container"">
                    <img src=""images/semantic_sequence/housework_semantic/housework_semantic_2.png"" class=""exp-image"">
                    <div class=""question-area"">
                        <p style=""font-size: 20px; font-weight: bold; margin: 0;"">Is there a person in this image?</p>
                    </div>
                </div>","0","main_experiment_trial","2","housework_semantic","semantic_sequence","chronological","","","","","","",""
"","","","","","html-keyboard-response","42","189491","0.0-42.0","FB715D136AB64DD9B5E21DF3716614D6","019cfa20-ee02-7c8f-ab92-eac5d678c305","019cfa18-54b6-74d4-8209-5fe92d2edcd5","","null","
                <div class=""stimulus-container"">
                    <img src=""images/semantic_sequence/housework_semantic/housework_semantic_3.png"" class=""exp-image"">
                    <div class=""question-area""></div> 
                </div>","null","","","","","","","","","","","",""
"","","","","","html-button-response","43","189905","0.0-43.0","FB715D136AB64DD9B5E21DF3716614D6","019cfa20-ee02-7c8f-ab92-eac5d678c305","019cfa18-54b6-74d4-8209-5fe92d2edcd5","","413","
                <div class=""stimulus-container"">
                    <img src=""images/semantic_sequence/housework_semantic/housework_semantic_3.png"" class=""exp-image"">
                    <div class=""question-area"">
                        <p style=""font-size: 20px; font-weight: bold; margin: 0;"">Is there a person in this image?</p>
                    </div>
                </div>","0","main_experiment_trial","3","housework_semantic","semantic_sequence","chronological","","","","","","",""
"","","","","","html-keyboard-response","44","190920","0.0-44.0","FB715D136AB64DD9B5E21DF3716614D6","019cfa20-ee02-7c8f-ab92-eac5d678c305","019cfa18-54b6-74d4-8209-5fe92d2edcd5","","null","
                <div class=""stimulus-container"">
                    <img src=""images/semantic_sequence/housework_semantic/housework_semantic_4.png"" class=""exp-image"">
                    <div class=""question-area""></div> 
                </div>","null","","","","","","","","","","","",""
"","","","","","html-button-response","45","191772","0.0-45.0","FB715D136AB64DD9B5E21DF3716614D6","019cfa20-ee02-7c8f-ab92-eac5d678c305","019cfa18-54b6-74d4-8209-5fe92d2edcd5","","851","
                <div class=""stimulus-container"">
                    <img src=""images/semantic_sequence/housework_semantic/housework_semantic_4.png"" class=""exp-image"">
                    <div class=""question-area"">
                        <p style=""font-size: 20px; font-weight: bold; margin: 0;"">Is there a person in this image?</p>
                    </div>
                </div>","0","main_experiment_trial","4","housework_semantic","semantic_sequence","chronological","","","","","","",""
"","","","","","html-keyboard-response","46","192774","0.0-46.0","FB715D136AB64DD9B5E21DF3716614D6","019cfa20-ee02-7c8f-ab92-eac5d678c305","019cfa18-54b6-74d4-8209-5fe92d2edcd5","","null","
                <div class=""stimulus-container"">
                    <img src=""images/semantic_sequence/housework_semantic/housework_semantic_5.png"" class=""exp-image"">
                    <div class=""question-area""></div> 
                </div>","null","","","","","","","","","","","",""
"","","","","","html-button-response","47","193480","0.0-47.0","FB715D136AB64DD9B5E21DF3716614D6","019cfa20-ee02-7c8f-ab92-eac5d678c305","019cfa18-54b6-74d4-8209-5fe92d2edcd5","","705","
                <div class=""stimulus-container"">
                    <img src=""images/semantic_sequence/housework_semantic/housework_semantic_5.png"" class=""exp-image"">
                    <div class=""question-area"">
                        <p style=""font-size: 20px; font-weight: bold; margin: 0;"">Is there a person in this image?</p>
                    </div>
                </div>","0","main_experiment_trial","5","housework_semantic","semantic_sequence","chronological","","","","","","",""
"","","","","","html-keyboard-response","48","194484","0.0-48.0","FB715D136AB64DD9B5E21DF3716614D6","019cfa20-ee02-7c8f-ab92-eac5d678c305","019cfa18-54b6-74d4-8209-5fe92d2edcd5","","null","
                <div class=""stimulus-container"">
                    <img src=""images/semantic_sequence/housework_semantic/housework_semantic_6.png"" class=""exp-image"">
                    <div class=""question-area""></div> 
                </div>","null","","","","","","","","","","","",""
"","","","","","html-button-response","49","195434","0.0-49.0","FB715D136AB64DD9B5E21DF3716614D6","019cfa20-ee02-7c8f-ab92-eac5d678c305","019cfa18-54b6-74d4-8209-5fe92d2edcd5","","950","
                <div class=""stimulus-container"">
                    <img src=""images/semantic_sequence/housework_semantic/housework_semantic_6.png"" class=""exp-image"">
                    <div class=""question-area"">
                        <p style=""font-size: 20px; font-weight: bold; margin: 0;"">Is there a person in this image?</p>
                    </div>
                </div>","0","main_experiment_trial","6","housework_semantic","semantic_sequence","chronological","","","","","","",""
"","","","","","html-keyboard-response","50","196451","0.0-50.0","FB715D136AB64DD9B5E21DF3716614D6","019cfa20-ee02-7c8f-ab92-eac5d678c305","019cfa18-54b6-74d4-8209-5fe92d2edcd5","","null","
                <div class=""stimulus-container"">
                    <img src=""images/semantic_sequence/housework_semantic/housework_semantic_7.png"" class=""exp-image"">
                    <div class=""question-area""></div> 
                </div>","null","","","","","","","","","","","",""
"","","","","","html-button-response","51","197263","0.0-51.0","FB715D136AB64DD9B5E21DF3716614D6","019cfa20-ee02-7c8f-ab92-eac5d678c305","019cfa18-54b6-74d4-8209-5fe92d2edcd5","","811","
                <div class=""stimulus-container"">
                    <img src=""images/semantic_sequence/housework_semantic/housework_semantic_7.png"" class=""exp-image"">
                    <div class=""question-area"">
                        <p style=""font-size: 20px; font-weight: bold; margin: 0;"">Is there a person in this image?</p>
                    </div>
                </div>","0","main_experiment_trial","7","housework_semantic","semantic_sequence","chronological","","","","","","",""
"","","","","","html-keyboard-response","52","198265","0.0-52.0","FB715D136AB64DD9B5E21DF3716614D6","019cfa20-ee02-7c8f-ab92-eac5d678c305","019cfa18-54b6-74d4-8209-5fe92d2edcd5","","null","
                <div class=""stimulus-container"">
                    <img src=""images/semantic_sequence/housework_semantic/housework_semantic_8.png"" class=""exp-image"">
                    <div class=""question-area""></div> 
                </div>","null","","","","","","","","","","","",""
"","","","","","html-button-response","53","198967","0.0-53.0","FB715D136AB64DD9B5E21DF3716614D6","019cfa20-ee02-7c8f-ab92-eac5d678c305","019cfa18-54b6-74d4-8209-5fe92d2edcd5","","701","
                <div class=""stimulus-container"">
                    <img src=""images/semantic_sequence/housework_semantic/housework_semantic_8.png"" class=""exp-image"">
                    <div class=""question-area"">
                        <p style=""font-size: 20px; font-weight: bold; margin: 0;"">Is there a person in this image?</p>
                    </div>
                </div>","0","main_experiment_trial","8","housework_semantic","semantic_sequence","chronological","","","","","","",""
"","","","","","html-keyboard-response","54","199975","0.0-54.0","FB715D136AB64DD9B5E21DF3716614D6","019cfa20-ee02-7c8f-ab92-eac5d678c305","019cfa18-54b6-74d4-8209-5fe92d2edcd5","","null","
                <div class=""stimulus-container"">
                    <img src=""images/semantic_sequence/housework_semantic/housework_semantic_9.png"" class=""exp-image"">
                    <div class=""question-area""></div> 
                </div>","null","","","","","","","","","","","",""
"","","","","","html-button-response","55","200385","0.0-55.0","FB715D136AB64DD9B5E21DF3716614D6","019cfa20-ee02-7c8f-ab92-eac5d678c305","019cfa18-54b6-74d4-8209-5fe92d2edcd5","","409","
                <div class=""stimulus-container"">
                    <img src=""images/semantic_sequence/housework_semantic/housework_semantic_9.png"" class=""exp-image"">
                    <div class=""question-area"">
                        <p style=""font-size: 20px; font-weight: bold; margin: 0;"">Is there a person in this image?</p>
                    </div>
                </div>","0","main_experiment_trial","9","housework_semantic","semantic_sequence","chronological","","","","","","",""
"","","","","","html-keyboard-response","56","201400","0.0-56.0","FB715D136AB64DD9B5E21DF3716614D6","019cfa20-ee02-7c8f-ab92-eac5d678c305","019cfa18-54b6-74d4-8209-5fe92d2edcd5","","null","
                <div class=""stimulus-container"">
                    <img src=""images/semantic_sequence/housework_semantic/housework_semantic_ten.png"" class=""exp-image"">
                    <div class=""question-area""></div> 
                </div>","null","","","","","","","","","","","",""
"","","","","","html-button-response","57","201758","0.0-57.0","FB715D136AB64DD9B5E21DF3716614D6","019cfa20-ee02-7c8f-ab92-eac5d678c305","019cfa18-54b6-74d4-8209-5fe92d2edcd5","","357","
                <div class=""stimulus-container"">
                    <img src=""images/semantic_sequence/housework_semantic/housework_semantic_ten.png"" class=""exp-image"">
                    <div class=""question-area"">
                        <p style=""font-size: 20px; font-weight: bold; margin: 0;"">Is there a person in this image?</p>
                    </div>
                </div>","0","main_experiment_trial","ten","housework_semantic","semantic_sequence","chronological","","","","","","",""
"","","","","","html-keyboard-response","58","206759","0.0-58.0","FB715D136AB64DD9B5E21DF3716614D6","019cfa20-ee02-7c8f-ab92-eac5d678c305","019cfa18-54b6-74d4-8209-5fe92d2edcd5","","null","<div style=""background-color: white; width: 100vw; height: 100vh;""></div>","null","","","","","","","","","","","",""
"","","","","","html-keyboard-response","59","207763","0.0-59.0","FB715D136AB64DD9B5E21DF3716614D6","019cfa20-ee02-7c8f-ab92-eac5d678c305","019cfa18-54b6-74d4-8209-5fe92d2edcd5","","null","
                <div class=""stimulus-container"">
                    <img src=""images/causal_sequence/package_causal/package_causal_1.png"" class=""exp-image"">
                    <div class=""question-area""></div> 
                </div>","null","","","","","","","","","","","",""
"","","","","","html-button-response","60","208622","0.0-60.0","FB715D136AB64DD9B5E21DF3716614D6","019cfa20-ee02-7c8f-ab92-eac5d678c305","019cfa18-54b6-74d4-8209-5fe92d2edcd5","","858","
                <div class=""stimulus-container"">
                    <img src=""images/causal_sequence/package_causal/package_causal_1.png"" class=""exp-image"">
                    <div class=""question-area"">
                        <p style=""font-size: 20px; font-weight: bold; margin: 0;"">Is there a person in this image?</p>
                    </div>
                </div>","0","main_experiment_trial","1","package_causal","causal_sequence","chronological","","","","","","",""
"","","","","","html-keyboard-response","61","209625","0.0-61.0","FB715D136AB64DD9B5E21DF3716614D6","019cfa20-ee02-7c8f-ab92-eac5d678c305","019cfa18-54b6-74d4-8209-5fe92d2edcd5","","null","
                <div class=""stimulus-container"">
                    <img src=""images/causal_sequence/package_causal/package_causal_2.png"" class=""exp-image"">
                    <div class=""question-area""></div> 
                </div>","null","","","","","","","","","","","",""
"","","","","","html-button-response","62","211161","0.0-62.0","FB715D136AB64DD9B5E21DF3716614D6","019cfa20-ee02-7c8f-ab92-eac5d678c305","019cfa18-54b6-74d4-8209-5fe92d2edcd5","","1535","
                <div class=""stimulus-container"">
                    <img src=""images/causal_sequence/package_causal/package_causal_2.png"" class=""exp-image"">
                    <div class=""question-area"">
                        <p style=""font-size: 20px; font-weight: bold; margin: 0;"">Is there a person in this image?</p>
                    </div>
                </div>","0","main_experiment_trial","2","package_causal","causal_sequence","chronological","","","","","","",""
"","","","","","html-keyboard-response","63","212176","0.0-63.0","FB715D136AB64DD9B5E21DF3716614D6","019cfa20-ee02-7c8f-ab92-eac5d678c305","019cfa18-54b6-74d4-8209-5fe92d2edcd5","","null","
                <div class=""stimulus-container"">
                    <img src=""images/causal_sequence/package_causal/package_causal_3.png"" class=""exp-image"">
                    <div class=""question-area""></div> 
                </div>","null","","","","","","","","","","","",""
"","","","","","html-button-response","64","212597","0.0-64.0","FB715D136AB64DD9B5E21DF3716614D6","019cfa20-ee02-7c8f-ab92-eac5d678c305","019cfa18-54b6-74d4-8209-5fe92d2edcd5","","420","
                <div class=""stimulus-container"">
                    <img src=""images/causal_sequence/package_causal/package_causal_3.png"" class=""exp-image"">
                    <div class=""question-area"">
                        <p style=""font-size: 20px; font-weight: bold; margin: 0;"">Is there a person in this image?</p>
                    </div>
                </div>","0","main_experiment_trial","3","package_causal","causal_sequence","chronological","","","","","","",""
"","","","","","html-keyboard-response","65","213600","0.0-65.0","FB715D136AB64DD9B5E21DF3716614D6","019cfa20-ee02-7c8f-ab92-eac5d678c305","019cfa18-54b6-74d4-8209-5fe92d2edcd5","","null","
                <div class=""stimulus-container"">
                    <img src=""images/causal_sequence/package_causal/package_causal_4.png"" class=""exp-image"">
                    <div class=""question-area""></div> 
                </div>","null","","","","","","","","","","","",""
"","","","","","html-button-response","66","216615","0.0-66.0","FB715D136AB64DD9B5E21DF3716614D6","019cfa20-ee02-7c8f-ab92-eac5d678c305","019cfa18-54b6-74d4-8209-5fe92d2edcd5","","null","
                <div class=""stimulus-container"">
                    <img src=""images/causal_sequence/package_causal/package_causal_4.png"" class=""exp-image"">
                    <div class=""question-area"">
                        <p style=""font-size: 20px; font-weight: bold; margin: 0;"">Is there a person in this image?</p>
                    </div>
                </div>","null","main_experiment_trial","4","package_causal","causal_sequence","chronological","","","","","","",""
"","","","","","html-keyboard-response","67","217623","0.0-67.0","FB715D136AB64DD9B5E21DF3716614D6","019cfa20-ee02-7c8f-ab92-eac5d678c305","019cfa18-54b6-74d4-8209-5fe92d2edcd5","","null","
                <div class=""stimulus-container"">
                    <img src=""images/causal_sequence/package_causal/package_causal_5.png"" class=""exp-image"">
                    <div class=""question-area""></div> 
                </div>","null","","","","","","","","","","","",""
"","","","","","html-button-response","68","219698","0.0-68.0","FB715D136AB64DD9B5E21DF3716614D6","019cfa20-ee02-7c8f-ab92-eac5d678c305","019cfa18-54b6-74d4-8209-5fe92d2edcd5","","2075","
                <div class=""stimulus-container"">
                    <img src=""images/causal_sequence/package_causal/package_causal_5.png"" class=""exp-image"">
                    <div class=""question-area"">
                        <p style=""font-size: 20px; font-weight: bold; margin: 0;"">Is there a person in this image?</p>
                    </div>
                </div>","0","main_experiment_trial","5","package_causal","causal_sequence","chronological","","","","","","",""
"","","","","","html-keyboard-response","69","220712","0.0-69.0","FB715D136AB64DD9B5E21DF3716614D6","019cfa20-ee02-7c8f-ab92-eac5d678c305","019cfa18-54b6-74d4-8209-5fe92d2edcd5","","null","
                <div class=""stimulus-container"">
                    <img src=""images/causal_sequence/package_causal/package_causal_6.png"" class=""exp-image"">
                    <div class=""question-area""></div> 
                </div>","null","","","","","","","","","","","",""
"","","","","","html-button-response","70","221659","0.0-70.0","FB715D136AB64DD9B5E21DF3716614D6","019cfa20-ee02-7c8f-ab92-eac5d678c305","019cfa18-54b6-74d4-8209-5fe92d2edcd5","","947","
                <div class=""stimulus-container"">
                    <img src=""images/causal_sequence/package_causal/package_causal_6.png"" class=""exp-image"">
                    <div class=""question-area"">
                        <p style=""font-size: 20px; font-weight: bold; margin: 0;"">Is there a person in this image?</p>
                    </div>
                </div>","0","main_experiment_trial","6","package_causal","causal_sequence","chronological","","","","","","",""
"","","","","","html-keyboard-response","71","222663","0.0-71.0","FB715D136AB64DD9B5E21DF3716614D6","019cfa20-ee02-7c8f-ab92-eac5d678c305","019cfa18-54b6-74d4-8209-5fe92d2edcd5","","null","
                <div class=""stimulus-container"">
                    <img src=""images/causal_sequence/package_causal/package_causal_7.png"" class=""exp-image"">
                    <div class=""question-area""></div> 
                </div>","null","","","","","","","","","","","",""
"","","","","","html-button-response","72","223191","0.0-72.0","FB715D136AB64DD9B5E21DF3716614D6","019cfa20-ee02-7c8f-ab92-eac5d678c305","019cfa18-54b6-74d4-8209-5fe92d2edcd5","","527","
                <div class=""stimulus-container"">
                    <img src=""images/causal_sequence/package_causal/package_causal_7.png"" class=""exp-image"">
                    <div class=""question-area"">
                        <p style=""font-size: 20px; font-weight: bold; margin: 0;"">Is there a person in this image?</p>
                    </div>
                </div>","0","main_experiment_trial","7","package_causal","causal_sequence","chronological","","","","","","",""
"","","","","","html-keyboard-response","73","224198","0.0-73.0","FB715D136AB64DD9B5E21DF3716614D6","019cfa20-ee02-7c8f-ab92-eac5d678c305","019cfa18-54b6-74d4-8209-5fe92d2edcd5","","null","
                <div class=""stimulus-container"">
                    <img src=""images/causal_sequence/package_causal/package_causal_8.png"" class=""exp-image"">
                    <div class=""question-area""></div> 
                </div>","null","","","","","","","","","","","",""
"","","","","","html-button-response","74","224628","0.0-74.0","FB715D136AB64DD9B5E21DF3716614D6","019cfa20-ee02-7c8f-ab92-eac5d678c305","019cfa18-54b6-74d4-8209-5fe92d2edcd5","","429","
                <div class=""stimulus-container"">
                    <img src=""images/causal_sequence/package_causal/package_causal_8.png"" class=""exp-image"">
                    <div class=""question-area"">
                        <p style=""font-size: 20px; font-weight: bold; margin: 0;"">Is there a person in this image?</p>
                    </div>
                </div>","0","main_experiment_trial","8","package_causal","causal_sequence","chronological","","","","","","",""
"","","","","","html-keyboard-response","75","225641","0.0-75.0","FB715D136AB64DD9B5E21DF3716614D6","019cfa20-ee02-7c8f-ab92-eac5d678c305","019cfa18-54b6-74d4-8209-5fe92d2edcd5","","null","
                <div class=""stimulus-container"">
                    <img src=""images/causal_sequence/package_causal/package_causal_9.png"" class=""exp-image"">
                    <div class=""question-area""></div> 
                </div>","null","","","","","","","","","","","",""
"","","","","","html-button-response","76","225991","0.0-76.0","FB715D136AB64DD9B5E21DF3716614D6","019cfa20-ee02-7c8f-ab92-eac5d678c305","019cfa18-54b6-74d4-8209-5fe92d2edcd5","","349","
                <div class=""stimulus-container"">
                    <img src=""images/causal_sequence/package_causal/package_causal_9.png"" class=""exp-image"">
                    <div class=""question-area"">
                        <p style=""font-size: 20px; font-weight: bold; margin: 0;"">Is there a person in this image?</p>
                    </div>
                </div>","0","main_experiment_trial","9","package_causal","causal_sequence","chronological","","","","","","",""
"","","","","","html-keyboard-response","77","226993","0.0-77.0","FB715D136AB64DD9B5E21DF3716614D6","019cfa20-ee02-7c8f-ab92-eac5d678c305","019cfa18-54b6-74d4-8209-5fe92d2edcd5","","null","
                <div class=""stimulus-container"">
                    <img src=""images/causal_sequence/package_causal/package_causal_ten.png"" class=""exp-image"">
                    <div class=""question-area""></div> 
                </div>","null","","","","","","","","","","","",""
"","","","","","html-button-response","78","227292","0.0-78.0","FB715D136AB64DD9B5E21DF3716614D6","019cfa20-ee02-7c8f-ab92-eac5d678c305","019cfa18-54b6-74d4-8209-5fe92d2edcd5","","298","
                <div class=""stimulus-container"">
                    <img src=""images/causal_sequence/package_causal/package_causal_ten.png"" class=""exp-image"">
                    <div class=""question-area"">
                        <p style=""font-size: 20px; font-weight: bold; margin: 0;"">Is there a person in this image?</p>
                    </div>
                </div>","0","main_experiment_trial","ten","package_causal","causal_sequence","chronological","","","","","","",""
"","","","","","html-keyboard-response","79","232304","0.0-79.0","FB715D136AB64DD9B5E21DF3716614D6","019cfa20-ee02-7c8f-ab92-eac5d678c305","019cfa18-54b6-74d4-8209-5fe92d2edcd5","","null","<div style=""background-color: white; width: 100vw; height: 100vh;""></div>","null","","","","","","","","","","","",""
"","","","","","html-keyboard-response","80","233311","0.0-80.0","FB715D136AB64DD9B5E21DF3716614D6","019cfa20-ee02-7c8f-ab92-eac5d678c305","019cfa18-54b6-74d4-8209-5fe92d2edcd5","","null","
                <div class=""stimulus-container"">
                    <img src=""images/causal_sequence/coin_causal/coin_causal_1.png"" class=""exp-image"">
                    <div class=""question-area""></div> 
                </div>","null","","","","","","","","","","","",""
"","","","","","html-button-response","81","234446","0.0-81.0","FB715D136AB64DD9B5E21DF3716614D6","019cfa20-ee02-7c8f-ab92-eac5d678c305","019cfa18-54b6-74d4-8209-5fe92d2edcd5","","1134","
                <div class=""stimulus-container"">
                    <img src=""images/causal_sequence/coin_causal/coin_causal_1.png"" class=""exp-image"">
                    <div class=""question-area"">
                        <p style=""font-size: 20px; font-weight: bold; margin: 0;"">Is there a person in this image?</p>
                    </div>
                </div>","0","main_experiment_trial","1","coin_causal","causal_sequence","chronological","","","","","","",""
"","","","","","html-keyboard-response","82","235468","0.0-82.0","FB715D136AB64DD9B5E21DF3716614D6","019cfa20-ee02-7c8f-ab92-eac5d678c305","019cfa18-54b6-74d4-8209-5fe92d2edcd5","","null","
                <div class=""stimulus-container"">
                    <img src=""images/causal_sequence/coin_causal/coin_causal_2.png"" class=""exp-image"">
                    <div class=""question-area""></div> 
                </div>","null","","","","","","","","","","","",""
"","","","","","html-button-response","83","235849","0.0-83.0","FB715D136AB64DD9B5E21DF3716614D6","019cfa20-ee02-7c8f-ab92-eac5d678c305","019cfa18-54b6-74d4-8209-5fe92d2edcd5","","380","
                <div class=""stimulus-container"">
                    <img src=""images/causal_sequence/coin_causal/coin_causal_2.png"" class=""exp-image"">
                    <div class=""question-area"">
                        <p style=""font-size: 20px; font-weight: bold; margin: 0;"">Is there a person in this image?</p>
                    </div>
                </div>","0","main_experiment_trial","2","coin_causal","causal_sequence","chronological","","","","","","",""
"","","","","","html-keyboard-response","84","236853","0.0-84.0","FB715D136AB64DD9B5E21DF3716614D6","019cfa20-ee02-7c8f-ab92-eac5d678c305","019cfa18-54b6-74d4-8209-5fe92d2edcd5","","null","
                <div class=""stimulus-container"">
                    <img src=""images/causal_sequence/coin_causal/coin_causal_3.png"" class=""exp-image"">
                    <div class=""question-area""></div> 
                </div>","null","","","","","","","","","","","",""
"","","","","","html-button-response","85","237142","0.0-85.0","FB715D136AB64DD9B5E21DF3716614D6","019cfa20-ee02-7c8f-ab92-eac5d678c305","019cfa18-54b6-74d4-8209-5fe92d2edcd5","","289","
                <div class=""stimulus-container"">
                    <img src=""images/causal_sequence/coin_causal/coin_causal_3.png"" class=""exp-image"">
                    <div class=""question-area"">
                        <p style=""font-size: 20px; font-weight: bold; margin: 0;"">Is there a person in this image?</p>
                    </div>
                </div>","0","main_experiment_trial","3","coin_causal","causal_sequence","chronological","","","","","","",""
"","","","","","html-keyboard-response","86","238149","0.0-86.0","FB715D136AB64DD9B5E21DF3716614D6","019cfa20-ee02-7c8f-ab92-eac5d678c305","019cfa18-54b6-74d4-8209-5fe92d2edcd5","","null","
                <div class=""stimulus-container"">
                    <img src=""images/causal_sequence/coin_causal/coin_causal_4.png"" class=""exp-image"">
                    <div class=""question-area""></div> 
                </div>","null","","","","","","","","","","","",""
"","","","","","html-button-response","87","238424","0.0-87.0","FB715D136AB64DD9B5E21DF3716614D6","019cfa20-ee02-7c8f-ab92-eac5d678c305","019cfa18-54b6-74d4-8209-5fe92d2edcd5","","273","
                <div class=""stimulus-container"">
                    <img src=""images/causal_sequence/coin_causal/coin_causal_4.png"" class=""exp-image"">
                    <div class=""question-area"">
                        <p style=""font-size: 20px; font-weight: bold; margin: 0;"">Is there a person in this image?</p>
                    </div>
                </div>","0","main_experiment_trial","4","coin_causal","causal_sequence","chronological","","","","","","",""
"","","","","","html-keyboard-response","88","239430","0.0-88.0","FB715D136AB64DD9B5E21DF3716614D6","019cfa20-ee02-7c8f-ab92-eac5d678c305","019cfa18-54b6-74d4-8209-5fe92d2edcd5","","null","
                <div class=""stimulus-container"">
                    <img src=""images/causal_sequence/coin_causal/coin_causal_5.png"" class=""exp-image"">
                    <div class=""question-area""></div> 
                </div>","null","","","","","","","","","","","",""
"","","","","","html-button-response","89","239680","0.0-89.0","FB715D136AB64DD9B5E21DF3716614D6","019cfa20-ee02-7c8f-ab92-eac5d678c305","019cfa18-54b6-74d4-8209-5fe92d2edcd5","","250","
                <div class=""stimulus-container"">
                    <img src=""images/causal_sequence/coin_causal/coin_causal_5.png"" class=""exp-image"">
                    <div class=""question-area"">
                        <p style=""font-size: 20px; font-weight: bold; margin: 0;"">Is there a person in this image?</p>
                    </div>
                </div>","0","main_experiment_trial","5","coin_causal","causal_sequence","chronological","","","","","","",""
"","","","","","html-keyboard-response","90","240690","0.0-90.0","FB715D136AB64DD9B5E21DF3716614D6","019cfa20-ee02-7c8f-ab92-eac5d678c305","019cfa18-54b6-74d4-8209-5fe92d2edcd5","","null","
                <div class=""stimulus-container"">
                    <img src=""images/causal_sequence/coin_causal/coin_causal_6.png"" class=""exp-image"">
                    <div class=""question-area""></div> 
                </div>","null","","","","","","","","","","","",""
"","","","","","html-button-response","91","241242","0.0-91.0","FB715D136AB64DD9B5E21DF3716614D6","019cfa20-ee02-7c8f-ab92-eac5d678c305","019cfa18-54b6-74d4-8209-5fe92d2edcd5","","551","
                <div class=""stimulus-container"">
                    <img src=""images/causal_sequence/coin_causal/coin_causal_6.png"" class=""exp-image"">
                    <div class=""question-area"">
                        <p style=""font-size: 20px; font-weight: bold; margin: 0;"">Is there a person in this image?</p>
                    </div>
                </div>","0","main_experiment_trial","6","coin_causal","causal_sequence","chronological","","","","","","",""
"","","","","","html-keyboard-response","92","242243","0.0-92.0","FB715D136AB64DD9B5E21DF3716614D6","019cfa20-ee02-7c8f-ab92-eac5d678c305","019cfa18-54b6-74d4-8209-5fe92d2edcd5","","null","
                <div class=""stimulus-container"">
                    <img src=""images/causal_sequence/coin_causal/coin_causal_7.png"" class=""exp-image"">
                    <div class=""question-area""></div> 
                </div>","null","","","","","","","","","","","",""
"","","","","","html-button-response","93","242692","0.0-93.0","FB715D136AB64DD9B5E21DF3716614D6","019cfa20-ee02-7c8f-ab92-eac5d678c305","019cfa18-54b6-74d4-8209-5fe92d2edcd5","","449","
                <div class=""stimulus-container"">
                    <img src=""images/causal_sequence/coin_causal/coin_causal_7.png"" class=""exp-image"">
                    <div class=""question-area"">
                        <p style=""font-size: 20px; font-weight: bold; margin: 0;"">Is there a person in this image?</p>
                    </div>
                </div>","1","main_experiment_trial","7","coin_causal","causal_sequence","chronological","","","","","","",""
"","","","","","html-keyboard-response","94","243709","0.0-94.0","FB715D136AB64DD9B5E21DF3716614D6","019cfa20-ee02-7c8f-ab92-eac5d678c305","019cfa18-54b6-74d4-8209-5fe92d2edcd5","","null","
                <div class=""stimulus-container"">
                    <img src=""images/causal_sequence/coin_causal/coin_causal_8.png"" class=""exp-image"">
                    <div class=""question-area""></div> 
                </div>","null","","","","","","","","","","","",""
"","","","","","html-button-response","95","244565","0.0-95.0","FB715D136AB64DD9B5E21DF3716614D6","019cfa20-ee02-7c8f-ab92-eac5d678c305","019cfa18-54b6-74d4-8209-5fe92d2edcd5","","855","
                <div class=""stimulus-container"">
                    <img src=""images/causal_sequence/coin_causal/coin_causal_8.png"" class=""exp-image"">
                    <div class=""question-area"">
                        <p style=""font-size: 20px; font-weight: bold; margin: 0;"">Is there a person in this image?</p>
                    </div>
                </div>","0","main_experiment_trial","8","coin_causal","causal_sequence","chronological","","","","","","",""
"","","","","","html-keyboard-response","96","245573","0.0-96.0","FB715D136AB64DD9B5E21DF3716614D6","019cfa20-ee02-7c8f-ab92-eac5d678c305","019cfa18-54b6-74d4-8209-5fe92d2edcd5","","null","
                <div class=""stimulus-container"">
                    <img src=""images/causal_sequence/coin_causal/coin_causal_9.png"" class=""exp-image"">
                    <div class=""question-area""></div> 
                </div>","null","","","","","","","","","","","",""
"","","","","","html-button-response","97","245864","0.0-97.0","FB715D136AB64DD9B5E21DF3716614D6","019cfa20-ee02-7c8f-ab92-eac5d678c305","019cfa18-54b6-74d4-8209-5fe92d2edcd5","","291","
                <div class=""stimulus-container"">
                    <img src=""images/causal_sequence/coin_causal/coin_causal_9.png"" class=""exp-image"">
                    <div class=""question-area"">
                        <p style=""font-size: 20px; font-weight: bold; margin: 0;"">Is there a person in this image?</p>
                    </div>
                </div>","0","main_experiment_trial","9","coin_causal","causal_sequence","chronological","","","","","","",""
"","","","","","html-keyboard-response","98","246871","0.0-98.0","FB715D136AB64DD9B5E21DF3716614D6","019cfa20-ee02-7c8f-ab92-eac5d678c305","019cfa18-54b6-74d4-8209-5fe92d2edcd5","","null","
                <div class=""stimulus-container"">
                    <img src=""images/causal_sequence/coin_causal/coin_causal_ten.png"" class=""exp-image"">
                    <div class=""question-area""></div> 
                </div>","null","","","","","","","","","","","",""
"","","","","","html-button-response","99","247198","0.0-99.0","FB715D136AB64DD9B5E21DF3716614D6","019cfa20-ee02-7c8f-ab92-eac5d678c305","019cfa18-54b6-74d4-8209-5fe92d2edcd5","","325","
                <div class=""stimulus-container"">
                    <img src=""images/causal_sequence/coin_causal/coin_causal_ten.png"" class=""exp-image"">
                    <div class=""question-area"">
                        <p style=""font-size: 20px; font-weight: bold; margin: 0;"">Is there a person in this image?</p>
                    </div>
                </div>","0","main_experiment_trial","ten","coin_causal","causal_sequence","chronological","","","","","","",""
"","","","","","html-keyboard-response","100","252200","0.0-100.0","FB715D136AB64DD9B5E21DF3716614D6","019cfa20-ee02-7c8f-ab92-eac5d678c305","019cfa18-54b6-74d4-8209-5fe92d2edcd5","","null","<div style=""background-color: white; width: 100vw; height: 100vh;""></div>","null","","","","","","","","","","","",""
"","","","","","html-keyboard-response","101","253202","0.0-101.0","FB715D136AB64DD9B5E21DF3716614D6","019cfa20-ee02-7c8f-ab92-eac5d678c305","019cfa18-54b6-74d4-8209-5fe92d2edcd5","","null","
                <div class=""stimulus-container"">
                    <img src=""images/semantic_sequence/kitchen_operations_semantic/kitchen_operations_semantic_1.png"" class=""exp-image"">
                    <div class=""question-area""></div> 
                </div>","null","","","","","","","","","","","",""
"","","","","","html-button-response","102","253685","0.0-102.0","FB715D136AB64DD9B5E21DF3716614D6","019cfa20-ee02-7c8f-ab92-eac5d678c305","019cfa18-54b6-74d4-8209-5fe92d2edcd5","","482","
                <div class=""stimulus-container"">
                    <img src=""images/semantic_sequence/kitchen_operations_semantic/kitchen_operations_semantic_1.png"" class=""exp-image"">
                    <div class=""question-area"">
                        <p style=""font-size: 20px; font-weight: bold; margin: 0;"">Is there a person in this image?</p>
                    </div>
                </div>","0","main_experiment_trial","1","kitchen_operations_semantic","semantic_sequence","chronological","","","","","","",""
"","","","","","html-keyboard-response","103","254696","0.0-103.0","FB715D136AB64DD9B5E21DF3716614D6","019cfa20-ee02-7c8f-ab92-eac5d678c305","019cfa18-54b6-74d4-8209-5fe92d2edcd5","","null","
                <div class=""stimulus-container"">
                    <img src=""images/semantic_sequence/kitchen_operations_semantic/kitchen_operations_semantic_2.png"" class=""exp-image"">
                    <div class=""question-area""></div> 
                </div>","null","","","","","","","","","","","",""
"","","","","","html-button-response","104","254983","0.0-104.0","FB715D136AB64DD9B5E21DF3716614D6","019cfa20-ee02-7c8f-ab92-eac5d678c305","019cfa18-54b6-74d4-8209-5fe92d2edcd5","","286","
                <div class=""stimulus-container"">
                    <img src=""images/semantic_sequence/kitchen_operations_semantic/kitchen_operations_semantic_2.png"" class=""exp-image"">
                    <div class=""question-area"">
                        <p style=""font-size: 20px; font-weight: bold; margin: 0;"">Is there a person in this image?</p>
                    </div>
                </div>","0","main_experiment_trial","2","kitchen_operations_semantic","semantic_sequence","chronological","","","","","","",""
"","","","","","html-keyboard-response","105","255996","0.0-105.0","FB715D136AB64DD9B5E21DF3716614D6","019cfa20-ee02-7c8f-ab92-eac5d678c305","019cfa18-54b6-74d4-8209-5fe92d2edcd5","","null","
                <div class=""stimulus-container"">
                    <img src=""images/semantic_sequence/kitchen_operations_semantic/kitchen_operations_semantic_3.png"" class=""exp-image"">
                    <div class=""question-area""></div> 
                </div>","null","","","","","","","","","","","",""
"","","","","","html-button-response","106","256443","0.0-106.0","FB715D136AB64DD9B5E21DF3716614D6","019cfa20-ee02-7c8f-ab92-eac5d678c305","019cfa18-54b6-74d4-8209-5fe92d2edcd5","","447","
                <div class=""stimulus-container"">
                    <img src=""images/semantic_sequence/kitchen_operations_semantic/kitchen_operations_semantic_3.png"" class=""exp-image"">
                    <div class=""question-area"">
                        <p style=""font-size: 20px; font-weight: bold; margin: 0;"">Is there a person in this image?</p>
                    </div>
                </div>","0","main_experiment_trial","3","kitchen_operations_semantic","semantic_sequence","chronological","","","","","","",""
"","","","","","html-keyboard-response","107","257449","0.0-107.0","FB715D136AB64DD9B5E21DF3716614D6","019cfa20-ee02-7c8f-ab92-eac5d678c305","019cfa18-54b6-74d4-8209-5fe92d2edcd5","","null","
                <div class=""stimulus-container"">
                    <img src=""images/semantic_sequence/kitchen_operations_semantic/kitchen_operations_semantic_4.png"" class=""exp-image"">
                    <div class=""question-area""></div> 
                </div>","null","","","","","","","","","","","",""
"","","","","","html-button-response","108","257709","0.0-108.0","FB715D136AB64DD9B5E21DF3716614D6","019cfa20-ee02-7c8f-ab92-eac5d678c305","019cfa18-54b6-74d4-8209-5fe92d2edcd5","","260","
                <div class=""stimulus-container"">
                    <img src=""images/semantic_sequence/kitchen_operations_semantic/kitchen_operations_semantic_4.png"" class=""exp-image"">
                    <div class=""question-area"">
                        <p style=""font-size: 20px; font-weight: bold; margin: 0;"">Is there a person in this image?</p>
                    </div>
                </div>","0","main_experiment_trial","4","kitchen_operations_semantic","semantic_sequence","chronological","","","","","","",""
"","","","","","html-keyboard-response","109","258711","0.0-109.0","FB715D136AB64DD9B5E21DF3716614D6","019cfa20-ee02-7c8f-ab92-eac5d678c305","019cfa18-54b6-74d4-8209-5fe92d2edcd5","","null","
                <div class=""stimulus-container"">
                    <img src=""images/semantic_sequence/kitchen_operations_semantic/kitchen_operations_semantic_5.png"" class=""exp-image"">
                    <div class=""question-area""></div> 
                </div>","null","","","","","","","","","","","",""
"","","","","","html-button-response","110","258934","0.0-110.0","FB715D136AB64DD9B5E21DF3716614D6","019cfa20-ee02-7c8f-ab92-eac5d678c305","019cfa18-54b6-74d4-8209-5fe92d2edcd5","","223","
                <div class=""stimulus-container"">
                    <img src=""images/semantic_sequence/kitchen_operations_semantic/kitchen_operations_semantic_5.png"" class=""exp-image"">
                    <div class=""question-area"">
                        <p style=""font-size: 20px; font-weight: bold; margin: 0;"">Is there a person in this image?</p>
                    </div>
                </div>","0","main_experiment_trial","5","kitchen_operations_semantic","semantic_sequence","chronological","","","","","","",""
"","","","","","html-keyboard-response","111","259946","0.0-111.0","FB715D136AB64DD9B5E21DF3716614D6","019cfa20-ee02-7c8f-ab92-eac5d678c305","019cfa18-54b6-74d4-8209-5fe92d2edcd5","","null","
                <div class=""stimulus-container"">
                    <img src=""images/semantic_sequence/kitchen_operations_semantic/kitchen_operations_semantic_6.png"" class=""exp-image"">
                    <div class=""question-area""></div> 
                </div>","null","","","","","","","","","","","",""
"","","","","","html-button-response","112","260123","0.0-112.0","FB715D136AB64DD9B5E21DF3716614D6","019cfa20-ee02-7c8f-ab92-eac5d678c305","019cfa18-54b6-74d4-8209-5fe92d2edcd5","","177","
                <div class=""stimulus-container"">
                    <img src=""images/semantic_sequence/kitchen_operations_semantic/kitchen_operations_semantic_6.png"" class=""exp-image"">
                    <div class=""question-area"">
                        <p style=""font-size: 20px; font-weight: bold; margin: 0;"">Is there a person in this image?</p>
                    </div>
                </div>","0","main_experiment_trial","6","kitchen_operations_semantic","semantic_sequence","chronological","","","","","","",""
"","","","","","html-keyboard-response","113","261129","0.0-113.0","FB715D136AB64DD9B5E21DF3716614D6","019cfa20-ee02-7c8f-ab92-eac5d678c305","019cfa18-54b6-74d4-8209-5fe92d2edcd5","","null","
                <div class=""stimulus-container"">
                    <img src=""images/semantic_sequence/kitchen_operations_semantic/kitchen_operations_semantic_7.png"" class=""exp-image"">
                    <div class=""question-area""></div> 
                </div>","null","","","","","","","","","","","",""
"","","","","","html-button-response","114","261401","0.0-114.0","FB715D136AB64DD9B5E21DF3716614D6","019cfa20-ee02-7c8f-ab92-eac5d678c305","019cfa18-54b6-74d4-8209-5fe92d2edcd5","","272","
                <div class=""stimulus-container"">
                    <img src=""images/semantic_sequence/kitchen_operations_semantic/kitchen_operations_semantic_7.png"" class=""exp-image"">
                    <div class=""question-area"">
                        <p style=""font-size: 20px; font-weight: bold; margin: 0;"">Is there a person in this image?</p>
                    </div>
                </div>","0","main_experiment_trial","7","kitchen_operations_semantic","semantic_sequence","chronological","","","","","","",""
"","","","","","html-keyboard-response","115","262403","0.0-115.0","FB715D136AB64DD9B5E21DF3716614D6","019cfa20-ee02-7c8f-ab92-eac5d678c305","019cfa18-54b6-74d4-8209-5fe92d2edcd5","","null","
                <div class=""stimulus-container"">
                    <img src=""images/semantic_sequence/kitchen_operations_semantic/kitchen_operations_semantic_8.png"" class=""exp-image"">
                    <div class=""question-area""></div> 
                </div>","null","","","","","","","","","","","",""
"","","","","","html-button-response","116","262655","0.0-116.0","FB715D136AB64DD9B5E21DF3716614D6","019cfa20-ee02-7c8f-ab92-eac5d678c305","019cfa18-54b6-74d4-8209-5fe92d2edcd5","","250","
                <div class=""stimulus-container"">
                    <img src=""images/semantic_sequence/kitchen_operations_semantic/kitchen_operations_semantic_8.png"" class=""exp-image"">
                    <div class=""question-area"">
                        <p style=""font-size: 20px; font-weight: bold; margin: 0;"">Is there a person in this image?</p>
                    </div>
                </div>","0","main_experiment_trial","8","kitchen_operations_semantic","semantic_sequence","chronological","","","","","","",""
"","","","","","html-keyboard-response","117","263670","0.0-117.0","FB715D136AB64DD9B5E21DF3716614D6","019cfa20-ee02-7c8f-ab92-eac5d678c305","019cfa18-54b6-74d4-8209-5fe92d2edcd5","","null","
                <div class=""stimulus-container"">
                    <img src=""images/semantic_sequence/kitchen_operations_semantic/kitchen_operations_semantic_9.png"" class=""exp-image"">
                    <div class=""question-area""></div> 
                </div>","null","","","","","","","","","","","",""
"","","","","","html-button-response","118","263925","0.0-118.0","FB715D136AB64DD9B5E21DF3716614D6","019cfa20-ee02-7c8f-ab92-eac5d678c305","019cfa18-54b6-74d4-8209-5fe92d2edcd5","","254","
                <div class=""stimulus-container"">
                    <img src=""images/semantic_sequence/kitchen_operations_semantic/kitchen_operations_semantic_9.png"" class=""exp-image"">
                    <div class=""question-area"">
                        <p style=""font-size: 20px; font-weight: bold; margin: 0;"">Is there a person in this image?</p>
                    </div>
                </div>","0","main_experiment_trial","9","kitchen_operations_semantic","semantic_sequence","chronological","","","","","","",""
"","","","","","html-keyboard-response","119","264930","0.0-119.0","FB715D136AB64DD9B5E21DF3716614D6","019cfa20-ee02-7c8f-ab92-eac5d678c305","019cfa18-54b6-74d4-8209-5fe92d2edcd5","","null","
                <div class=""stimulus-container"">
                    <img src=""images/semantic_sequence/kitchen_operations_semantic/kitchen_operations_semantic_ten.png"" class=""exp-image"">
                    <div class=""question-area""></div> 
                </div>","null","","","","","","","","","","","",""
"","","","","","html-button-response","120","265171","0.0-120.0","FB715D136AB64DD9B5E21DF3716614D6","019cfa20-ee02-7c8f-ab92-eac5d678c305","019cfa18-54b6-74d4-8209-5fe92d2edcd5","","241","
                <div class=""stimulus-container"">
                    <img src=""images/semantic_sequence/kitchen_operations_semantic/kitchen_operations_semantic_ten.png"" class=""exp-image"">
                    <div class=""question-area"">
                        <p style=""font-size: 20px; font-weight: bold; margin: 0;"">Is there a person in this image?</p>
                    </div>
                </div>","0","main_experiment_trial","ten","kitchen_operations_semantic","semantic_sequence","chronological","","","","","","",""
"","","","","","html-keyboard-response","121","270180","0.0-121.0","FB715D136AB64DD9B5E21DF3716614D6","019cfa20-ee02-7c8f-ab92-eac5d678c305","019cfa18-54b6-74d4-8209-5fe92d2edcd5","","null","<div style=""background-color: white; width: 100vw; height: 100vh;""></div>","null","","","","","","","","","","","",""
"","","","","","html-keyboard-response","122","271181","0.0-122.0","FB715D136AB64DD9B5E21DF3716614D6","019cfa20-ee02-7c8f-ab92-eac5d678c305","019cfa18-54b6-74d4-8209-5fe92d2edcd5","","null","
                <div class=""stimulus-container"">
                    <img src=""images/semantic_sequence/using_technology_semantic/using_technology_semantic_1.png"" class=""exp-image"">
                    <div class=""question-area""></div> 
                </div>","null","","","","","","","","","","","",""
"","","","","","html-button-response","123","272074","0.0-123.0","FB715D136AB64DD9B5E21DF3716614D6","019cfa20-ee02-7c8f-ab92-eac5d678c305","019cfa18-54b6-74d4-8209-5fe92d2edcd5","","892","
                <div class=""stimulus-container"">
                    <img src=""images/semantic_sequence/using_technology_semantic/using_technology_semantic_1.png"" class=""exp-image"">
                    <div class=""question-area"">
                        <p style=""font-size: 20px; font-weight: bold; margin: 0;"">Is there a person in this image?</p>
                    </div>
                </div>","0","main_experiment_trial","1","using_technology_semantic","semantic_sequence","chronological","","","","","","",""
"","","","","","html-keyboard-response","124","273091","0.0-124.0","FB715D136AB64DD9B5E21DF3716614D6","019cfa20-ee02-7c8f-ab92-eac5d678c305","019cfa18-54b6-74d4-8209-5fe92d2edcd5","","null","
                <div class=""stimulus-container"">
                    <img src=""images/semantic_sequence/using_technology_semantic/using_technology_semantic_2.png"" class=""exp-image"">
                    <div class=""question-area""></div> 
                </div>","null","","","","","","","","","","","",""
"","","","","","html-button-response","125","273377","0.0-125.0","FB715D136AB64DD9B5E21DF3716614D6","019cfa20-ee02-7c8f-ab92-eac5d678c305","019cfa18-54b6-74d4-8209-5fe92d2edcd5","","285","
                <div class=""stimulus-container"">
                    <img src=""images/semantic_sequence/using_technology_semantic/using_technology_semantic_2.png"" class=""exp-image"">
                    <div class=""question-area"">
                        <p style=""font-size: 20px; font-weight: bold; margin: 0;"">Is there a person in this image?</p>
                    </div>
                </div>","0","main_experiment_trial","2","using_technology_semantic","semantic_sequence","chronological","","","","","","",""
"","","","","","html-keyboard-response","126","274384","0.0-126.0","FB715D136AB64DD9B5E21DF3716614D6","019cfa20-ee02-7c8f-ab92-eac5d678c305","019cfa18-54b6-74d4-8209-5fe92d2edcd5","","null","
                <div class=""stimulus-container"">
                    <img src=""images/semantic_sequence/using_technology_semantic/using_technology_semantic_3.png"" class=""exp-image"">
                    <div class=""question-area""></div> 
                </div>","null","","","","","","","","","","","",""
"","","","","","html-button-response","127","274634","0.0-127.0","FB715D136AB64DD9B5E21DF3716614D6","019cfa20-ee02-7c8f-ab92-eac5d678c305","019cfa18-54b6-74d4-8209-5fe92d2edcd5","","250","
                <div class=""stimulus-container"">
                    <img src=""images/semantic_sequence/using_technology_semantic/using_technology_semantic_3.png"" class=""exp-image"">
                    <div class=""question-area"">
                        <p style=""font-size: 20px; font-weight: bold; margin: 0;"">Is there a person in this image?</p>
                    </div>
                </div>","0","main_experiment_trial","3","using_technology_semantic","semantic_sequence","chronological","","","","","","",""
"","","","","","html-keyboard-response","128","275645","0.0-128.0","FB715D136AB64DD9B5E21DF3716614D6","019cfa20-ee02-7c8f-ab92-eac5d678c305","019cfa18-54b6-74d4-8209-5fe92d2edcd5","","null","
                <div class=""stimulus-container"">
                    <img src=""images/semantic_sequence/using_technology_semantic/using_technology_semantic_4.png"" class=""exp-image"">
                    <div class=""question-area""></div> 
                </div>","null","","","","","","","","","","","",""
"","","","","","html-button-response","129","275983","0.0-129.0","FB715D136AB64DD9B5E21DF3716614D6","019cfa20-ee02-7c8f-ab92-eac5d678c305","019cfa18-54b6-74d4-8209-5fe92d2edcd5","","337","
                <div class=""stimulus-container"">
                    <img src=""images/semantic_sequence/using_technology_semantic/using_technology_semantic_4.png"" class=""exp-image"">
                    <div class=""question-area"">
                        <p style=""font-size: 20px; font-weight: bold; margin: 0;"">Is there a person in this image?</p>
                    </div>
                </div>","0","main_experiment_trial","4","using_technology_semantic","semantic_sequence","chronological","","","","","","",""
"","","","","","html-keyboard-response","130","276997","0.0-130.0","FB715D136AB64DD9B5E21DF3716614D6","019cfa20-ee02-7c8f-ab92-eac5d678c305","019cfa18-54b6-74d4-8209-5fe92d2edcd5","","null","
                <div class=""stimulus-container"">
                    <img src=""images/semantic_sequence/using_technology_semantic/using_technology_semantic_5.png"" class=""exp-image"">
                    <div class=""question-area""></div> 
                </div>","null","","","","","","","","","","","",""
"","","","","","html-button-response","131","277256","0.0-131.0","FB715D136AB64DD9B5E21DF3716614D6","019cfa20-ee02-7c8f-ab92-eac5d678c305","019cfa18-54b6-74d4-8209-5fe92d2edcd5","","258","
                <div class=""stimulus-container"">
                    <img src=""images/semantic_sequence/using_technology_semantic/using_technology_semantic_5.png"" class=""exp-image"">
                    <div class=""question-area"">
                        <p style=""font-size: 20px; font-weight: bold; margin: 0;"">Is there a person in this image?</p>
                    </div>
                </div>","0","main_experiment_trial","5","using_technology_semantic","semantic_sequence","chronological","","","","","","",""
"","","","","","html-keyboard-response","132","278260","0.0-132.0","FB715D136AB64DD9B5E21DF3716614D6","019cfa20-ee02-7c8f-ab92-eac5d678c305","019cfa18-54b6-74d4-8209-5fe92d2edcd5","","null","
                <div class=""stimulus-container"">
                    <img src=""images/semantic_sequence/using_technology_semantic/using_technology_semantic_6.png"" class=""exp-image"">
                    <div class=""question-area""></div> 
                </div>","null","","","","","","","","","","","",""
"","","","","","html-button-response","133","278548","0.0-133.0","FB715D136AB64DD9B5E21DF3716614D6","019cfa20-ee02-7c8f-ab92-eac5d678c305","019cfa18-54b6-74d4-8209-5fe92d2edcd5","","287","
                <div class=""stimulus-container"">
                    <img src=""images/semantic_sequence/using_technology_semantic/using_technology_semantic_6.png"" class=""exp-image"">
                    <div class=""question-area"">
                        <p style=""font-size: 20px; font-weight: bold; margin: 0;"">Is there a person in this image?</p>
                    </div>
                </div>","0","main_experiment_trial","6","using_technology_semantic","semantic_sequence","chronological","","","","","","",""
"","","","","","html-keyboard-response","134","279565","0.0-134.0","FB715D136AB64DD9B5E21DF3716614D6","019cfa20-ee02-7c8f-ab92-eac5d678c305","019cfa18-54b6-74d4-8209-5fe92d2edcd5","","null","
                <div class=""stimulus-container"">
                    <img src=""images/semantic_sequence/using_technology_semantic/using_technology_semantic_7.png"" class=""exp-image"">
                    <div class=""question-area""></div> 
                </div>","null","","","","","","","","","","","",""
"","","","","","html-button-response","135","279894","0.0-135.0","FB715D136AB64DD9B5E21DF3716614D6","019cfa20-ee02-7c8f-ab92-eac5d678c305","019cfa18-54b6-74d4-8209-5fe92d2edcd5","","328","
                <div class=""stimulus-container"">
                    <img src=""images/semantic_sequence/using_technology_semantic/using_technology_semantic_7.png"" class=""exp-image"">
                    <div class=""question-area"">
                        <p style=""font-size: 20px; font-weight: bold; margin: 0;"">Is there a person in this image?</p>
                    </div>
                </div>","0","main_experiment_trial","7","using_technology_semantic","semantic_sequence","chronological","","","","","","",""
"","","","","","html-keyboard-response","136","280897","0.0-136.0","FB715D136AB64DD9B5E21DF3716614D6","019cfa20-ee02-7c8f-ab92-eac5d678c305","019cfa18-54b6-74d4-8209-5fe92d2edcd5","","null","
                <div class=""stimulus-container"">
                    <img src=""images/semantic_sequence/using_technology_semantic/using_technology_semantic_8.png"" class=""exp-image"">
                    <div class=""question-area""></div> 
                </div>","null","","","","","","","","","","","",""
"","","","","","html-button-response","137","281214","0.0-137.0","FB715D136AB64DD9B5E21DF3716614D6","019cfa20-ee02-7c8f-ab92-eac5d678c305","019cfa18-54b6-74d4-8209-5fe92d2edcd5","","316","
                <div class=""stimulus-container"">
                    <img src=""images/semantic_sequence/using_technology_semantic/using_technology_semantic_8.png"" class=""exp-image"">
                    <div class=""question-area"">
                        <p style=""font-size: 20px; font-weight: bold; margin: 0;"">Is there a person in this image?</p>
                    </div>
                </div>","0","main_experiment_trial","8","using_technology_semantic","semantic_sequence","chronological","","","","","","",""
"","","","","","html-keyboard-response","138","282216","0.0-138.0","FB715D136AB64DD9B5E21DF3716614D6","019cfa20-ee02-7c8f-ab92-eac5d678c305","019cfa18-54b6-74d4-8209-5fe92d2edcd5","","null","
                <div class=""stimulus-container"">
                    <img src=""images/semantic_sequence/using_technology_semantic/using_technology_semantic_9.png"" class=""exp-image"">
                    <div class=""question-area""></div> 
                </div>","null","","","","","","","","","","","",""
"","","","","","html-button-response","139","282495","0.0-139.0","FB715D136AB64DD9B5E21DF3716614D6","019cfa20-ee02-7c8f-ab92-eac5d678c305","019cfa18-54b6-74d4-8209-5fe92d2edcd5","","279","
                <div class=""stimulus-container"">
                    <img src=""images/semantic_sequence/using_technology_semantic/using_technology_semantic_9.png"" class=""exp-image"">
                    <div class=""question-area"">
                        <p style=""font-size: 20px; font-weight: bold; margin: 0;"">Is there a person in this image?</p>
                    </div>
                </div>","0","main_experiment_trial","9","using_technology_semantic","semantic_sequence","chronological","","","","","","",""
"","","","","","html-keyboard-response","140","283508","0.0-140.0","FB715D136AB64DD9B5E21DF3716614D6","019cfa20-ee02-7c8f-ab92-eac5d678c305","019cfa18-54b6-74d4-8209-5fe92d2edcd5","","null","
                <div class=""stimulus-container"">
                    <img src=""images/semantic_sequence/using_technology_semantic/using_technology_semantic_ten.png"" class=""exp-image"">
                    <div class=""question-area""></div> 
                </div>","null","","","","","","","","","","","",""
"","","","","","html-button-response","141","283795","0.0-141.0","FB715D136AB64DD9B5E21DF3716614D6","019cfa20-ee02-7c8f-ab92-eac5d678c305","019cfa18-54b6-74d4-8209-5fe92d2edcd5","","286","
                <div class=""stimulus-container"">
                    <img src=""images/semantic_sequence/using_technology_semantic/using_technology_semantic_ten.png"" class=""exp-image"">
                    <div class=""question-area"">
                        <p style=""font-size: 20px; font-weight: bold; margin: 0;"">Is there a person in this image?</p>
                    </div>
                </div>","0","main_experiment_trial","ten","using_technology_semantic","semantic_sequence","chronological","","","","","","",""
"","","","","","html-keyboard-response","142","288798","0.0-142.0","FB715D136AB64DD9B5E21DF3716614D6","019cfa20-ee02-7c8f-ab92-eac5d678c305","019cfa18-54b6-74d4-8209-5fe92d2edcd5","","null","<div style=""background-color: white; width: 100vw; height: 100vh;""></div>","null","","","","","","","","","","","",""
"","","","","","html-keyboard-response","143","289811","0.0-143.0","FB715D136AB64DD9B5E21DF3716614D6","019cfa20-ee02-7c8f-ab92-eac5d678c305","019cfa18-54b6-74d4-8209-5fe92d2edcd5","","null","
                <div class=""stimulus-container"">
                    <img src=""images/causal_sequence/the_performance_causal/the_performance_causal_1.png"" class=""exp-image"">
                    <div class=""question-area""></div> 
                </div>","null","","","","","","","","","","","",""
"","","","","","html-button-response","144","290168","0.0-144.0","FB715D136AB64DD9B5E21DF3716614D6","019cfa20-ee02-7c8f-ab92-eac5d678c305","019cfa18-54b6-74d4-8209-5fe92d2edcd5","","356","
                <div class=""stimulus-container"">
                    <img src=""images/causal_sequence/the_performance_causal/the_performance_causal_1.png"" class=""exp-image"">
                    <div class=""question-area"">
                        <p style=""font-size: 20px; font-weight: bold; margin: 0;"">Is there a person in this image?</p>
                    </div>
                </div>","0","main_experiment_trial","1","the_performance_causal","causal_sequence","chronological","","","","","","",""
"","","","","","html-keyboard-response","145","291173","0.0-145.0","FB715D136AB64DD9B5E21DF3716614D6","019cfa20-ee02-7c8f-ab92-eac5d678c305","019cfa18-54b6-74d4-8209-5fe92d2edcd5","","null","
                <div class=""stimulus-container"">
                    <img src=""images/causal_sequence/the_performance_causal/the_performance_causal_2.png"" class=""exp-image"">
                    <div class=""question-area""></div> 
                </div>","null","","","","","","","","","","","",""
"","","","","","html-button-response","146","291423","0.0-146.0","FB715D136AB64DD9B5E21DF3716614D6","019cfa20-ee02-7c8f-ab92-eac5d678c305","019cfa18-54b6-74d4-8209-5fe92d2edcd5","","250","
                <div class=""stimulus-container"">
                    <img src=""images/causal_sequence/the_performance_causal/the_performance_causal_2.png"" class=""exp-image"">
                    <div class=""question-area"">
                        <p style=""font-size: 20px; font-weight: bold; margin: 0;"">Is there a person in this image?</p>
                    </div>
                </div>","0","main_experiment_trial","2","the_performance_causal","causal_sequence","chronological","","","","","","",""
"","","","","","html-keyboard-response","147","292435","0.0-147.0","FB715D136AB64DD9B5E21DF3716614D6","019cfa20-ee02-7c8f-ab92-eac5d678c305","019cfa18-54b6-74d4-8209-5fe92d2edcd5","","null","
                <div class=""stimulus-container"">
                    <img src=""images/causal_sequence/the_performance_causal/the_performance_causal_3.png"" class=""exp-image"">
                    <div class=""question-area""></div> 
                </div>","null","","","","","","","","","","","",""
"","","","","","html-button-response","148","292771","0.0-148.0","FB715D136AB64DD9B5E21DF3716614D6","019cfa20-ee02-7c8f-ab92-eac5d678c305","019cfa18-54b6-74d4-8209-5fe92d2edcd5","","335","
                <div class=""stimulus-container"">
                    <img src=""images/causal_sequence/the_performance_causal/the_performance_causal_3.png"" class=""exp-image"">
                    <div class=""question-area"">
                        <p style=""font-size: 20px; font-weight: bold; margin: 0;"">Is there a person in this image?</p>
                    </div>
                </div>","0","main_experiment_trial","3","the_performance_causal","causal_sequence","chronological","","","","","","",""
"","","","","","html-keyboard-response","149","293783","0.0-149.0","FB715D136AB64DD9B5E21DF3716614D6","019cfa20-ee02-7c8f-ab92-eac5d678c305","019cfa18-54b6-74d4-8209-5fe92d2edcd5","","null","
                <div class=""stimulus-container"">
                    <img src=""images/causal_sequence/the_performance_causal/the_performance_causal_4.png"" class=""exp-image"">
                    <div class=""question-area""></div> 
                </div>","null","","","","","","","","","","","",""
"","","","","","html-button-response","150","294191","0.0-150.0","FB715D136AB64DD9B5E21DF3716614D6","019cfa20-ee02-7c8f-ab92-eac5d678c305","019cfa18-54b6-74d4-8209-5fe92d2edcd5","","408","
                <div class=""stimulus-container"">
                    <img src=""images/causal_sequence/the_performance_causal/the_performance_causal_4.png"" class=""exp-image"">
                    <div class=""question-area"">
                        <p style=""font-size: 20px; font-weight: bold; margin: 0;"">Is there a person in this image?</p>
                    </div>
                </div>","0","main_experiment_trial","4","the_performance_causal","causal_sequence","chronological","","","","","","",""
"","","","","","html-keyboard-response","151","295197","0.0-151.0","FB715D136AB64DD9B5E21DF3716614D6","019cfa20-ee02-7c8f-ab92-eac5d678c305","019cfa18-54b6-74d4-8209-5fe92d2edcd5","","null","
                <div class=""stimulus-container"">
                    <img src=""images/causal_sequence/the_performance_causal/the_performance_causal_5.png"" class=""exp-image"">
                    <div class=""question-area""></div> 
                </div>","null","","","","","","","","","","","",""
"","","","","","html-button-response","152","295413","0.0-152.0","FB715D136AB64DD9B5E21DF3716614D6","019cfa20-ee02-7c8f-ab92-eac5d678c305","019cfa18-54b6-74d4-8209-5fe92d2edcd5","","215","
                <div class=""stimulus-container"">
                    <img src=""images/causal_sequence/the_performance_causal/the_performance_causal_5.png"" class=""exp-image"">
                    <div class=""question-area"">
                        <p style=""font-size: 20px; font-weight: bold; margin: 0;"">Is there a person in this image?</p>
                    </div>
                </div>","0","main_experiment_trial","5","the_performance_causal","causal_sequence","chronological","","","","","","",""
"","","","","","html-keyboard-response","153","296429","0.0-153.0","FB715D136AB64DD9B5E21DF3716614D6","019cfa20-ee02-7c8f-ab92-eac5d678c305","019cfa18-54b6-74d4-8209-5fe92d2edcd5","","null","
                <div class=""stimulus-container"">
                    <img src=""images/causal_sequence/the_performance_causal/the_performance_causal_6.png"" class=""exp-image"">
                    <div class=""question-area""></div> 
                </div>","null","","","","","","","","","","","",""
"","","","","","html-button-response","154","296846","0.0-154.0","FB715D136AB64DD9B5E21DF3716614D6","019cfa20-ee02-7c8f-ab92-eac5d678c305","019cfa18-54b6-74d4-8209-5fe92d2edcd5","","416","
                <div class=""stimulus-container"">
                    <img src=""images/causal_sequence/the_performance_causal/the_performance_causal_6.png"" class=""exp-image"">
                    <div class=""question-area"">
                        <p style=""font-size: 20px; font-weight: bold; margin: 0;"">Is there a person in this image?</p>
                    </div>
                </div>","0","main_experiment_trial","6","the_performance_causal","causal_sequence","chronological","","","","","","",""
"","","","","","html-keyboard-response","155","297856","0.0-155.0","FB715D136AB64DD9B5E21DF3716614D6","019cfa20-ee02-7c8f-ab92-eac5d678c305","019cfa18-54b6-74d4-8209-5fe92d2edcd5","","null","
                <div class=""stimulus-container"">
                    <img src=""images/causal_sequence/the_performance_causal/the_performance_causal_7.png"" class=""exp-image"">
                    <div class=""question-area""></div> 
                </div>","null","","","","","","","","","","","",""
"","","","","","html-button-response","156","298713","0.0-156.0","FB715D136AB64DD9B5E21DF3716614D6","019cfa20-ee02-7c8f-ab92-eac5d678c305","019cfa18-54b6-74d4-8209-5fe92d2edcd5","","855","
                <div class=""stimulus-container"">
                    <img src=""images/causal_sequence/the_performance_causal/the_performance_causal_7.png"" class=""exp-image"">
                    <div class=""question-area"">
                        <p style=""font-size: 20px; font-weight: bold; margin: 0;"">Is there a person in this image?</p>
                    </div>
                </div>","0","main_experiment_trial","7","the_performance_causal","causal_sequence","chronological","","","","","","",""
"","","","","","html-keyboard-response","157","299721","0.0-157.0","FB715D136AB64DD9B5E21DF3716614D6","019cfa20-ee02-7c8f-ab92-eac5d678c305","019cfa18-54b6-74d4-8209-5fe92d2edcd5","","null","
                <div class=""stimulus-container"">
                    <img src=""images/causal_sequence/the_performance_causal/the_performance_causal_8.png"" class=""exp-image"">
                    <div class=""question-area""></div> 
                </div>","null","","","","","","","","","","","",""
"","","","","","html-button-response","158","300041","0.0-158.0","FB715D136AB64DD9B5E21DF3716614D6","019cfa20-ee02-7c8f-ab92-eac5d678c305","019cfa18-54b6-74d4-8209-5fe92d2edcd5","","320","
                <div class=""stimulus-container"">
                    <img src=""images/causal_sequence/the_performance_causal/the_performance_causal_8.png"" class=""exp-image"">
                    <div class=""question-area"">
                        <p style=""font-size: 20px; font-weight: bold; margin: 0;"">Is there a person in this image?</p>
                    </div>
                </div>","0","main_experiment_trial","8","the_performance_causal","causal_sequence","chronological","","","","","","",""
"","","","","","html-keyboard-response","159","301042","0.0-159.0","FB715D136AB64DD9B5E21DF3716614D6","019cfa20-ee02-7c8f-ab92-eac5d678c305","019cfa18-54b6-74d4-8209-5fe92d2edcd5","","null","
                <div class=""stimulus-container"">
                    <img src=""images/causal_sequence/the_performance_causal/the_performance_causal_9.png"" class=""exp-image"">
                    <div class=""question-area""></div> 
                </div>","null","","","","","","","","","","","",""
"","","","","","html-button-response","160","301387","0.0-160.0","FB715D136AB64DD9B5E21DF3716614D6","019cfa20-ee02-7c8f-ab92-eac5d678c305","019cfa18-54b6-74d4-8209-5fe92d2edcd5","","344","
                <div class=""stimulus-container"">
                    <img src=""images/causal_sequence/the_performance_causal/the_performance_causal_9.png"" class=""exp-image"">
                    <div class=""question-area"">
                        <p style=""font-size: 20px; font-weight: bold; margin: 0;"">Is there a person in this image?</p>
                    </div>
                </div>","0","main_experiment_trial","9","the_performance_causal","causal_sequence","chronological","","","","","","",""
"","","","","","html-keyboard-response","161","302398","0.0-161.0","FB715D136AB64DD9B5E21DF3716614D6","019cfa20-ee02-7c8f-ab92-eac5d678c305","019cfa18-54b6-74d4-8209-5fe92d2edcd5","","null","
                <div class=""stimulus-container"">
                    <img src=""images/causal_sequence/the_performance_causal/the_performance_causal_ten.png"" class=""exp-image"">
                    <div class=""question-area""></div> 
                </div>","null","","","","","","","","","","","",""
"","","","","","html-button-response","162","303488","0.0-162.0","FB715D136AB64DD9B5E21DF3716614D6","019cfa20-ee02-7c8f-ab92-eac5d678c305","019cfa18-54b6-74d4-8209-5fe92d2edcd5","","1089","
                <div class=""stimulus-container"">
                    <img src=""images/causal_sequence/the_performance_causal/the_performance_causal_ten.png"" class=""exp-image"">
                    <div class=""question-area"">
                        <p style=""font-size: 20px; font-weight: bold; margin: 0;"">Is there a person in this image?</p>
                    </div>
                </div>","0","main_experiment_trial","ten","the_performance_causal","causal_sequence","chronological","","","","","","",""
"","","","","","html-keyboard-response","163","308502","0.0-163.0","FB715D136AB64DD9B5E21DF3716614D6","019cfa20-ee02-7c8f-ab92-eac5d678c305","019cfa18-54b6-74d4-8209-5fe92d2edcd5","","null","<div style=""background-color: white; width: 100vw; height: 100vh;""></div>","null","","","","","","","","","","","",""
"","","","","","html-keyboard-response","164","309510","0.0-164.0","FB715D136AB64DD9B5E21DF3716614D6","019cfa20-ee02-7c8f-ab92-eac5d678c305","019cfa18-54b6-74d4-8209-5fe92d2edcd5","","null","
                <div class=""stimulus-container"">
                    <img src=""images/semantic_sequence/visiting_cities_semantic/visiting_cities_semantic_1.png"" class=""exp-image"">
                    <div class=""question-area""></div> 
                </div>","null","","","","","","","","","","","",""
"","","","","","html-button-response","165","310625","0.0-165.0","FB715D136AB64DD9B5E21DF3716614D6","019cfa20-ee02-7c8f-ab92-eac5d678c305","019cfa18-54b6-74d4-8209-5fe92d2edcd5","","1115","
                <div class=""stimulus-container"">
                    <img src=""images/semantic_sequence/visiting_cities_semantic/visiting_cities_semantic_1.png"" class=""exp-image"">
                    <div class=""question-area"">
                        <p style=""font-size: 20px; font-weight: bold; margin: 0;"">Is there a person in this image?</p>
                    </div>
                </div>","0","main_experiment_trial","1","visiting_cities_semantic","semantic_sequence","chronological","","","","","","",""
"","","","","","html-keyboard-response","166","311626","0.0-166.0","FB715D136AB64DD9B5E21DF3716614D6","019cfa20-ee02-7c8f-ab92-eac5d678c305","019cfa18-54b6-74d4-8209-5fe92d2edcd5","","null","
                <div class=""stimulus-container"">
                    <img src=""images/semantic_sequence/visiting_cities_semantic/visiting_cities_semantic_2.png"" class=""exp-image"">
                    <div class=""question-area""></div> 
                </div>","null","","","","","","","","","","","",""
"","","","","","html-button-response","167","312505","0.0-167.0","FB715D136AB64DD9B5E21DF3716614D6","019cfa20-ee02-7c8f-ab92-eac5d678c305","019cfa18-54b6-74d4-8209-5fe92d2edcd5","","878","
                <div class=""stimulus-container"">
                    <img src=""images/semantic_sequence/visiting_cities_semantic/visiting_cities_semantic_2.png"" class=""exp-image"">
                    <div class=""question-area"">
                        <p style=""font-size: 20px; font-weight: bold; margin: 0;"">Is there a person in this image?</p>
                    </div>
                </div>","1","main_experiment_trial","2","visiting_cities_semantic","semantic_sequence","chronological","","","","","","",""
"","","","","","html-keyboard-response","168","313507","0.0-168.0","FB715D136AB64DD9B5E21DF3716614D6","019cfa20-ee02-7c8f-ab92-eac5d678c305","019cfa18-54b6-74d4-8209-5fe92d2edcd5","","null","
                <div class=""stimulus-container"">
                    <img src=""images/semantic_sequence/visiting_cities_semantic/visiting_cities_semantic_3.png"" class=""exp-image"">
                    <div class=""question-area""></div> 
                </div>","null","","","","","","","","","","","",""
"","","","","","html-button-response","169","314060","0.0-169.0","FB715D136AB64DD9B5E21DF3716614D6","019cfa20-ee02-7c8f-ab92-eac5d678c305","019cfa18-54b6-74d4-8209-5fe92d2edcd5","","552","
                <div class=""stimulus-container"">
                    <img src=""images/semantic_sequence/visiting_cities_semantic/visiting_cities_semantic_3.png"" class=""exp-image"">
                    <div class=""question-area"">
                        <p style=""font-size: 20px; font-weight: bold; margin: 0;"">Is there a person in this image?</p>
                    </div>
                </div>","1","main_experiment_trial","3","visiting_cities_semantic","semantic_sequence","chronological","","","","","","",""
"","","","","","html-keyboard-response","170","315077","0.0-170.0","FB715D136AB64DD9B5E21DF3716614D6","019cfa20-ee02-7c8f-ab92-eac5d678c305","019cfa18-54b6-74d4-8209-5fe92d2edcd5","","null","
                <div class=""stimulus-container"">
                    <img src=""images/semantic_sequence/visiting_cities_semantic/visiting_cities_semantic_4.png"" class=""exp-image"">
                    <div class=""question-area""></div> 
                </div>","null","","","","","","","","","","","",""
"","","","","","html-button-response","171","315792","0.0-171.0","FB715D136AB64DD9B5E21DF3716614D6","019cfa20-ee02-7c8f-ab92-eac5d678c305","019cfa18-54b6-74d4-8209-5fe92d2edcd5","","715","
                <div class=""stimulus-container"">
                    <img src=""images/semantic_sequence/visiting_cities_semantic/visiting_cities_semantic_4.png"" class=""exp-image"">
                    <div class=""question-area"">
                        <p style=""font-size: 20px; font-weight: bold; margin: 0;"">Is there a person in this image?</p>
                    </div>
                </div>","1","main_experiment_trial","4","visiting_cities_semantic","semantic_sequence","chronological","","","","","","",""
"","","","","","html-keyboard-response","172","316799","0.0-172.0","FB715D136AB64DD9B5E21DF3716614D6","019cfa20-ee02-7c8f-ab92-eac5d678c305","019cfa18-54b6-74d4-8209-5fe92d2edcd5","","null","
                <div class=""stimulus-container"">
                    <img src=""images/semantic_sequence/visiting_cities_semantic/visiting_cities_semantic_5.png"" class=""exp-image"">
                    <div class=""question-area""></div> 
                </div>","null","","","","","","","","","","","",""
"","","","","","html-button-response","173","317949","0.0-173.0","FB715D136AB64DD9B5E21DF3716614D6","019cfa20-ee02-7c8f-ab92-eac5d678c305","019cfa18-54b6-74d4-8209-5fe92d2edcd5","","1150","
                <div class=""stimulus-container"">
                    <img src=""images/semantic_sequence/visiting_cities_semantic/visiting_cities_semantic_5.png"" class=""exp-image"">
                    <div class=""question-area"">
                        <p style=""font-size: 20px; font-weight: bold; margin: 0;"">Is there a person in this image?</p>
                    </div>
                </div>","0","main_experiment_trial","5","visiting_cities_semantic","semantic_sequence","chronological","","","","","","",""
"","","","","","html-keyboard-response","174","318952","0.0-174.0","FB715D136AB64DD9B5E21DF3716614D6","019cfa20-ee02-7c8f-ab92-eac5d678c305","019cfa18-54b6-74d4-8209-5fe92d2edcd5","","null","
                <div class=""stimulus-container"">
                    <img src=""images/semantic_sequence/visiting_cities_semantic/visiting_cities_semantic_6.png"" class=""exp-image"">
                    <div class=""question-area""></div> 
                </div>","null","","","","","","","","","","","",""
"","","","","","html-button-response","175","320538","0.0-175.0","FB715D136AB64DD9B5E21DF3716614D6","019cfa20-ee02-7c8f-ab92-eac5d678c305","019cfa18-54b6-74d4-8209-5fe92d2edcd5","","1585","
                <div class=""stimulus-container"">
                    <img src=""images/semantic_sequence/visiting_cities_semantic/visiting_cities_semantic_6.png"" class=""exp-image"">
                    <div class=""question-area"">
                        <p style=""font-size: 20px; font-weight: bold; margin: 0;"">Is there a person in this image?</p>
                    </div>
