"success","timeout","failed_images","failed_audio","failed_video","trial_type","trial_index","time_elapsed","internal_node_id","subject_id","study_id","session_id","view_history","rt","stimulus","response","task","image_index","folder","valuable_image_index","valuable_X","chosen_image_index","distance_from_X"
"false","false","[]","[]","[]","preload","0","5054","0.0-0.0","6C2F6152D39B4D5CBFF0A1F81394A800","019ce76a-ab3c-7ad8-8e40-28a1b41e4ecb","019ce768-b048-7627-b827-888248f65c31","","","","","","","","","","",""
"","","","","","instructions","1","144765","0.0-1.0","6C2F6152D39B4D5CBFF0A1F81394A800","019ce76a-ab3c-7ad8-8e40-28a1b41e4ecb","019ce768-b048-7627-b827-888248f65c31","[{""page_index"":0,""viewing_time"":139710}]","139710","","","","","","","","",""
"","","","","","instructions","2","149298","0.0-2.0","6C2F6152D39B4D5CBFF0A1F81394A800","019ce76a-ab3c-7ad8-8e40-28a1b41e4ecb","019ce768-b048-7627-b827-888248f65c31","[{""page_index"":0,""viewing_time"":4532}]","4533","","","","","","","","",""
"true","","","","","fullscreen","3","152410","0.0-3.0","6C2F6152D39B4D5CBFF0A1F81394A800","019ce76a-ab3c-7ad8-8e40-28a1b41e4ecb","019ce768-b048-7627-b827-888248f65c31","","2105","","","","","","","","",""
"","","","","","instructions","4","161261","0.0-4.0","6C2F6152D39B4D5CBFF0A1F81394A800","019ce76a-ab3c-7ad8-8e40-28a1b41e4ecb","019ce768-b048-7627-b827-888248f65c31","[{""page_index"":0,""viewing_time"":8849}]","8850","","","","","","","","",""
"","","","","","instructions","5","189696","0.0-5.0","6C2F6152D39B4D5CBFF0A1F81394A800","019ce76a-ab3c-7ad8-8e40-28a1b41e4ecb","019ce768-b048-7627-b827-888248f65c31","[{""page_index"":0,""viewing_time"":28434}]","28434","","","","","","","","",""
"","","","","","html-keyboard-response","6","193711","0.0-6.0","6C2F6152D39B4D5CBFF0A1F81394A800","019ce76a-ab3c-7ad8-8e40-28a1b41e4ecb","019ce768-b048-7627-b827-888248f65c31","","null","
                <div class=""stimulus-container"">
                    <img src=""images/instructions/movie_1.png"" class=""exp-image"">
                    <div class=""question-area""></div> 
                </div>","null","","","","","","",""
"","","","","","html-button-response","7","195423","0.0-7.0","6C2F6152D39B4D5CBFF0A1F81394A800","019ce76a-ab3c-7ad8-8e40-28a1b41e4ecb","019ce768-b048-7627-b827-888248f65c31","","1710","
                <div class=""stimulus-container"">
                    <img src=""images/instructions/movie_1.png"" class=""exp-image"">
                    <div class=""question-area"">
                        <p style=""font-size: 20px; font-weight: bold; margin: 0;"">Was there a person in this image?</p>
                    </div>
                </div>","0","example_question","1","","","","",""
"","","","","","html-keyboard-response","8","199440","0.0-8.0","6C2F6152D39B4D5CBFF0A1F81394A800","019ce76a-ab3c-7ad8-8e40-28a1b41e4ecb","019ce768-b048-7627-b827-888248f65c31","","null","
                <div class=""stimulus-container"">
                    <img src=""images/instructions/movie_2.png"" class=""exp-image"">
                    <div class=""question-area""></div> 
                </div>","null","","","","","","",""
"","","","","","html-button-response","9","200842","0.0-9.0","6C2F6152D39B4D5CBFF0A1F81394A800","019ce76a-ab3c-7ad8-8e40-28a1b41e4ecb","019ce768-b048-7627-b827-888248f65c31","","1401","
                <div class=""stimulus-container"">
                    <img src=""images/instructions/movie_2.png"" class=""exp-image"">
                    <div class=""question-area"">
                        <p style=""font-size: 20px; font-weight: bold; margin: 0;"">Was there a person in this image?</p>
                    </div>
                </div>","0","example_question","2","","","","",""
"","","","","","html-keyboard-response","10","204845","0.0-10.0","6C2F6152D39B4D5CBFF0A1F81394A800","019ce76a-ab3c-7ad8-8e40-28a1b41e4ecb","019ce768-b048-7627-b827-888248f65c31","","null","
                <div class=""stimulus-container"">
                    <img src=""images/instructions/movie_3.png"" class=""exp-image"">
                    <div class=""question-area""></div> 
                </div>","null","","","","","","",""
"","","","","","html-button-response","11","205853","0.0-11.0","6C2F6152D39B4D5CBFF0A1F81394A800","019ce76a-ab3c-7ad8-8e40-28a1b41e4ecb","019ce768-b048-7627-b827-888248f65c31","","1006","
                <div class=""stimulus-container"">
                    <img src=""images/instructions/movie_3.png"" class=""exp-image"">
                    <div class=""question-area"">
                        <p style=""font-size: 20px; font-weight: bold; margin: 0;"">Was there a person in this image?</p>
                    </div>
                </div>","0","example_question","3","","","","",""
"","","","","","html-keyboard-response","12","209855","0.0-12.0","6C2F6152D39B4D5CBFF0A1F81394A800","019ce76a-ab3c-7ad8-8e40-28a1b41e4ecb","019ce768-b048-7627-b827-888248f65c31","","null","
                <div class=""stimulus-container"">
                    <img src=""images/instructions/movie_4.png"" class=""exp-image"">
                    <div class=""question-area""></div> 
                </div>","null","","","","","","",""
"","","","","","html-button-response","13","211538","0.0-13.0","6C2F6152D39B4D5CBFF0A1F81394A800","019ce76a-ab3c-7ad8-8e40-28a1b41e4ecb","019ce768-b048-7627-b827-888248f65c31","","1681","
                <div class=""stimulus-container"">
                    <img src=""images/instructions/movie_4.png"" class=""exp-image"">
                    <div class=""question-area"">
                        <p style=""font-size: 20px; font-weight: bold; margin: 0;"">Was there a person in this image?</p>
                    </div>
                </div>","0","example_question","4","","","","",""
"","","","","","instructions","14","216185","0.0-14.0","6C2F6152D39B4D5CBFF0A1F81394A800","019ce76a-ab3c-7ad8-8e40-28a1b41e4ecb","019ce768-b048-7627-b827-888248f65c31","[{""page_index"":0,""viewing_time"":4646}]","4646","","","","","","","","",""
"","","","","","html-keyboard-response","15","217190","0.0-15.0","6C2F6152D39B4D5CBFF0A1F81394A800","019ce76a-ab3c-7ad8-8e40-28a1b41e4ecb","019ce768-b048-7627-b827-888248f65c31","","null","<div style=""background-color: gray; width: 100vw; height: 100vh;""></div>","null","","","","","","",""
"","","","","","html-keyboard-response","16","222203","0.0-16.0","6C2F6152D39B4D5CBFF0A1F81394A800","019ce76a-ab3c-7ad8-8e40-28a1b41e4ecb","019ce768-b048-7627-b827-888248f65c31","","null","
                    <div class=""stimulus-container"">
                        <img src=""images/causal_sequence/coin_causal/coin_causal_1.png"" class=""exp-image"">
                        <div class=""question-area""></div> 
                    </div>","null","","","","","","",""
"","","","","","html-button-response","17","224393","0.0-17.0","6C2F6152D39B4D5CBFF0A1F81394A800","019ce76a-ab3c-7ad8-8e40-28a1b41e4ecb","019ce768-b048-7627-b827-888248f65c31","","2188","
                    <div class=""stimulus-container"">
                        <img src=""images/causal_sequence/coin_causal/coin_causal_1.png"" class=""exp-image"">
                        <div class=""question-area"">
                            <p style=""font-size: 20px; font-weight: bold; margin: 0;"">Is there a person in this image?</p>
                        </div>
                    </div>","0","main_causal_task","1","coin_causal","","","",""
"","","","","","html-keyboard-response","18","229402","0.0-18.0","6C2F6152D39B4D5CBFF0A1F81394A800","019ce76a-ab3c-7ad8-8e40-28a1b41e4ecb","019ce768-b048-7627-b827-888248f65c31","","null","
                    <div class=""stimulus-container"">
                        <img src=""images/causal_sequence/coin_causal/coin_causal_2.png"" class=""exp-image"">
                        <div class=""question-area""></div> 
                    </div>","null","","","","","","",""
"","","","","","html-button-response","19","232259","0.0-19.0","6C2F6152D39B4D5CBFF0A1F81394A800","019ce76a-ab3c-7ad8-8e40-28a1b41e4ecb","019ce768-b048-7627-b827-888248f65c31","","2855","
                    <div class=""stimulus-container"">
                        <img src=""images/causal_sequence/coin_causal/coin_causal_2.png"" class=""exp-image"">
                        <div class=""question-area"">
                            <p style=""font-size: 20px; font-weight: bold; margin: 0;"">Is there a person in this image?</p>
                        </div>
                    </div>","0","main_causal_task","2","coin_causal","","","",""
"","","","","","html-keyboard-response","20","237263","0.0-20.0","6C2F6152D39B4D5CBFF0A1F81394A800","019ce76a-ab3c-7ad8-8e40-28a1b41e4ecb","019ce768-b048-7627-b827-888248f65c31","","null","
                    <div class=""stimulus-container"">
                        <img src=""images/causal_sequence/coin_causal/coin_causal_3.png"" class=""exp-image"">
                        <div class=""question-area""></div> 
                    </div>","null","","","","","","",""
"","","","","","html-button-response","21","238719","0.0-21.0","6C2F6152D39B4D5CBFF0A1F81394A800","019ce76a-ab3c-7ad8-8e40-28a1b41e4ecb","019ce768-b048-7627-b827-888248f65c31","","1454","
                    <div class=""stimulus-container"">
                        <img src=""images/causal_sequence/coin_causal/coin_causal_3.png"" class=""exp-image"">
                        <div class=""question-area"">
                            <p style=""font-size: 20px; font-weight: bold; margin: 0;"">Is there a person in this image?</p>
                        </div>
                    </div>","0","main_causal_task","3","coin_causal","","","",""
"","","","","","html-keyboard-response","22","243721","0.0-22.0","6C2F6152D39B4D5CBFF0A1F81394A800","019ce76a-ab3c-7ad8-8e40-28a1b41e4ecb","019ce768-b048-7627-b827-888248f65c31","","null","
                    <div class=""stimulus-container"">
                        <img src=""images/causal_sequence/coin_causal/coin_causal_4.png"" class=""exp-image"">
                        <div class=""question-area""></div> 
                    </div>","null","","","","","","",""
"","","","","","html-button-response","23","245332","0.0-23.0","6C2F6152D39B4D5CBFF0A1F81394A800","019ce76a-ab3c-7ad8-8e40-28a1b41e4ecb","019ce768-b048-7627-b827-888248f65c31","","1609","
                    <div class=""stimulus-container"">
                        <img src=""images/causal_sequence/coin_causal/coin_causal_4.png"" class=""exp-image"">
                        <div class=""question-area"">
                            <p style=""font-size: 20px; font-weight: bold; margin: 0;"">Is there a person in this image?</p>
                        </div>
                    </div>","0","main_causal_task","4","coin_causal","","","",""
"","","","","","html-keyboard-response","24","250349","0.0-24.0","6C2F6152D39B4D5CBFF0A1F81394A800","019ce76a-ab3c-7ad8-8e40-28a1b41e4ecb","019ce768-b048-7627-b827-888248f65c31","","null","
                    <div class=""stimulus-container"">
                        <img src=""images/causal_sequence/coin_causal/coin_causal_5.png"" class=""exp-image"">
                        <div class=""question-area""></div> 
                    </div>","null","","","","","","",""
"","","","","","html-button-response","25","251500","0.0-25.0","6C2F6152D39B4D5CBFF0A1F81394A800","019ce76a-ab3c-7ad8-8e40-28a1b41e4ecb","019ce768-b048-7627-b827-888248f65c31","","1149","
                    <div class=""stimulus-container"">
                        <img src=""images/causal_sequence/coin_causal/coin_causal_5.png"" class=""exp-image"">
                        <div class=""question-area"">
                            <p style=""font-size: 20px; font-weight: bold; margin: 0;"">Is there a person in this image?</p>
                        </div>
                    </div>","0","main_causal_task","5","coin_causal","","","",""
"","","","","","html-keyboard-response","26","256515","0.0-26.0","6C2F6152D39B4D5CBFF0A1F81394A800","019ce76a-ab3c-7ad8-8e40-28a1b41e4ecb","019ce768-b048-7627-b827-888248f65c31","","null","
                    <div class=""stimulus-container"">
                        <img src=""images/causal_sequence/coin_causal/coin_causal_6.png"" class=""exp-image"">
                        <div class=""question-area""></div> 
                    </div>","null","","","","","","",""
"","","","","","html-button-response","27","257553","0.0-27.0","6C2F6152D39B4D5CBFF0A1F81394A800","019ce76a-ab3c-7ad8-8e40-28a1b41e4ecb","019ce768-b048-7627-b827-888248f65c31","","1036","
                    <div class=""stimulus-container"">
                        <img src=""images/causal_sequence/coin_causal/coin_causal_6.png"" class=""exp-image"">
                        <div class=""question-area"">
                            <p style=""font-size: 20px; font-weight: bold; margin: 0;"">Is there a person in this image?</p>
                        </div>
                    </div>","0","main_causal_task","6","coin_causal","","","",""
"","","","","","html-keyboard-response","28","262556","0.0-28.0","6C2F6152D39B4D5CBFF0A1F81394A800","019ce76a-ab3c-7ad8-8e40-28a1b41e4ecb","019ce768-b048-7627-b827-888248f65c31","","null","
                    <div class=""stimulus-container"">
                        <img src=""images/causal_sequence/coin_causal/coin_causal_7.png"" class=""exp-image"">
                        <div class=""question-area""></div> 
                    </div>","null","","","","","","",""
"","","","","","html-button-response","29","263517","0.0-29.0","6C2F6152D39B4D5CBFF0A1F81394A800","019ce76a-ab3c-7ad8-8e40-28a1b41e4ecb","019ce768-b048-7627-b827-888248f65c31","","960","
                    <div class=""stimulus-container"">
                        <img src=""images/causal_sequence/coin_causal/coin_causal_7.png"" class=""exp-image"">
                        <div class=""question-area"">
                            <p style=""font-size: 20px; font-weight: bold; margin: 0;"">Is there a person in this image?</p>
                        </div>
                    </div>","1","main_causal_task","7","coin_causal","","","",""
"","","","","","html-keyboard-response","30","268526","0.0-30.0","6C2F6152D39B4D5CBFF0A1F81394A800","019ce76a-ab3c-7ad8-8e40-28a1b41e4ecb","019ce768-b048-7627-b827-888248f65c31","","null","
                    <div class=""stimulus-container"">
                        <img src=""images/causal_sequence/coin_causal/coin_causal_8.png"" class=""exp-image"">
                        <div class=""question-area""></div> 
                    </div>","null","","","","","","",""
"","","","","","html-button-response","31","269999","0.0-31.0","6C2F6152D39B4D5CBFF0A1F81394A800","019ce76a-ab3c-7ad8-8e40-28a1b41e4ecb","019ce768-b048-7627-b827-888248f65c31","","1471","
                    <div class=""stimulus-container"">
                        <img src=""images/causal_sequence/coin_causal/coin_causal_8.png"" class=""exp-image"">
                        <div class=""question-area"">
                            <p style=""font-size: 20px; font-weight: bold; margin: 0;"">Is there a person in this image?</p>
                        </div>
                    </div>","0","main_causal_task","8","coin_causal","","","",""
"","","","","","html-keyboard-response","32","275016","0.0-32.0","6C2F6152D39B4D5CBFF0A1F81394A800","019ce76a-ab3c-7ad8-8e40-28a1b41e4ecb","019ce768-b048-7627-b827-888248f65c31","","null","
                    <div class=""stimulus-container"">
                        <img src=""images/causal_sequence/coin_causal/coin_causal_9.png"" class=""exp-image"">
                        <div class=""question-area""></div> 
                    </div>","null","","","","","","",""
"","","","","","html-button-response","33","276288","0.0-33.0","6C2F6152D39B4D5CBFF0A1F81394A800","019ce76a-ab3c-7ad8-8e40-28a1b41e4ecb","019ce768-b048-7627-b827-888248f65c31","","1271","
                    <div class=""stimulus-container"">
                        <img src=""images/causal_sequence/coin_causal/coin_causal_9.png"" class=""exp-image"">
                        <div class=""question-area"">
                            <p style=""font-size: 20px; font-weight: bold; margin: 0;"">Is there a person in this image?</p>
                        </div>
                    </div>","0","main_causal_task","9","coin_causal","","","",""
"","","","","","html-keyboard-response","34","277295","0.0-34.0","6C2F6152D39B4D5CBFF0A1F81394A800","019ce76a-ab3c-7ad8-8e40-28a1b41e4ecb","019ce768-b048-7627-b827-888248f65c31","","null","<div style=""background-color: gray; width: 100vw; height: 100vh;""></div>","null","","","","","","",""
"","","","","","html-keyboard-response","35","282298","0.0-35.0","6C2F6152D39B4D5CBFF0A1F81394A800","019ce76a-ab3c-7ad8-8e40-28a1b41e4ecb","019ce768-b048-7627-b827-888248f65c31","","null","
                    <div class=""stimulus-container"">
                        <img src=""images/causal_sequence/saving_a_cat_causal/saving_a_cat_causal_1.png"" class=""exp-image"">
                        <div class=""question-area""></div> 
                    </div>","null","","","","","","",""
"","","","","","html-button-response","36","284426","0.0-36.0","6C2F6152D39B4D5CBFF0A1F81394A800","019ce76a-ab3c-7ad8-8e40-28a1b41e4ecb","019ce768-b048-7627-b827-888248f65c31","","2127","
                    <div class=""stimulus-container"">
                        <img src=""images/causal_sequence/saving_a_cat_causal/saving_a_cat_causal_1.png"" class=""exp-image"">
                        <div class=""question-area"">
                            <p style=""font-size: 20px; font-weight: bold; margin: 0;"">Is there a person in this image?</p>
                        </div>
                    </div>","0","main_causal_task","1","saving_a_cat_causal","","","",""
"","","","","","html-keyboard-response","37","289443","0.0-37.0","6C2F6152D39B4D5CBFF0A1F81394A800","019ce76a-ab3c-7ad8-8e40-28a1b41e4ecb","019ce768-b048-7627-b827-888248f65c31","","null","
                    <div class=""stimulus-container"">
                        <img src=""images/causal_sequence/saving_a_cat_causal/saving_a_cat_causal_2.png"" class=""exp-image"">
                        <div class=""question-area""></div> 
                    </div>","null","","","","","","",""
"","","","","","html-button-response","38","291785","0.0-38.0","6C2F6152D39B4D5CBFF0A1F81394A800","019ce76a-ab3c-7ad8-8e40-28a1b41e4ecb","019ce768-b048-7627-b827-888248f65c31","","2340","
                    <div class=""stimulus-container"">
                        <img src=""images/causal_sequence/saving_a_cat_causal/saving_a_cat_causal_2.png"" class=""exp-image"">
                        <div class=""question-area"">
                            <p style=""font-size: 20px; font-weight: bold; margin: 0;"">Is there a person in this image?</p>
                        </div>
                    </div>","1","main_causal_task","2","saving_a_cat_causal","","","",""
"","","","","","html-keyboard-response","39","296792","0.0-39.0","6C2F6152D39B4D5CBFF0A1F81394A800","019ce76a-ab3c-7ad8-8e40-28a1b41e4ecb","019ce768-b048-7627-b827-888248f65c31","","null","
                    <div class=""stimulus-container"">
                        <img src=""images/causal_sequence/saving_a_cat_causal/saving_a_cat_causal_3.png"" class=""exp-image"">
                        <div class=""question-area""></div> 
                    </div>","null","","","","","","",""
"","","","","","html-button-response","40","298337","0.0-40.0","6C2F6152D39B4D5CBFF0A1F81394A800","019ce76a-ab3c-7ad8-8e40-28a1b41e4ecb","019ce768-b048-7627-b827-888248f65c31","","1543","
                    <div class=""stimulus-container"">
                        <img src=""images/causal_sequence/saving_a_cat_causal/saving_a_cat_causal_3.png"" class=""exp-image"">
                        <div class=""question-area"">
                            <p style=""font-size: 20px; font-weight: bold; margin: 0;"">Is there a person in this image?</p>
                        </div>
                    </div>","1","main_causal_task","3","saving_a_cat_causal","","","",""
"","","","","","html-keyboard-response","41","303346","0.0-41.0","6C2F6152D39B4D5CBFF0A1F81394A800","019ce76a-ab3c-7ad8-8e40-28a1b41e4ecb","019ce768-b048-7627-b827-888248f65c31","","null","
                    <div class=""stimulus-container"">
                        <img src=""images/causal_sequence/saving_a_cat_causal/saving_a_cat_causal_4.png"" class=""exp-image"">
                        <div class=""question-area""></div> 
                    </div>","null","","","","","","",""
"","","","","","html-button-response","42","304430","0.0-42.0","6C2F6152D39B4D5CBFF0A1F81394A800","019ce76a-ab3c-7ad8-8e40-28a1b41e4ecb","019ce768-b048-7627-b827-888248f65c31","","1082","
                    <div class=""stimulus-container"">
                        <img src=""images/causal_sequence/saving_a_cat_causal/saving_a_cat_causal_4.png"" class=""exp-image"">
                        <div class=""question-area"">
                            <p style=""font-size: 20px; font-weight: bold; margin: 0;"">Is there a person in this image?</p>
                        </div>
                    </div>","0","main_causal_task","4","saving_a_cat_causal","","","",""
"","","","","","html-keyboard-response","43","309443","0.0-43.0","6C2F6152D39B4D5CBFF0A1F81394A800","019ce76a-ab3c-7ad8-8e40-28a1b41e4ecb","019ce768-b048-7627-b827-888248f65c31","","null","
                    <div class=""stimulus-container"">
                        <img src=""images/causal_sequence/saving_a_cat_causal/saving_a_cat_causal_5.png"" class=""exp-image"">
                        <div class=""question-area""></div> 
                    </div>","null","","","","","","",""
"","","","","","html-button-response","44","310827","0.0-44.0","6C2F6152D39B4D5CBFF0A1F81394A800","019ce76a-ab3c-7ad8-8e40-28a1b41e4ecb","019ce768-b048-7627-b827-888248f65c31","","1382","
                    <div class=""stimulus-container"">
                        <img src=""images/causal_sequence/saving_a_cat_causal/saving_a_cat_causal_5.png"" class=""exp-image"">
                        <div class=""question-area"">
                            <p style=""font-size: 20px; font-weight: bold; margin: 0;"">Is there a person in this image?</p>
                        </div>
                    </div>","0","main_causal_task","5","saving_a_cat_causal","","","",""
"","","","","","html-keyboard-response","45","315830","0.0-45.0","6C2F6152D39B4D5CBFF0A1F81394A800","019ce76a-ab3c-7ad8-8e40-28a1b41e4ecb","019ce768-b048-7627-b827-888248f65c31","","null","
                    <div class=""stimulus-container"">
                        <img src=""images/causal_sequence/saving_a_cat_causal/saving_a_cat_causal_6.png"" class=""exp-image"">
                        <div class=""question-area""></div> 
                    </div>","null","","","","","","",""
"","","","","","html-button-response","46","318424","0.0-46.0","6C2F6152D39B4D5CBFF0A1F81394A800","019ce76a-ab3c-7ad8-8e40-28a1b41e4ecb","019ce768-b048-7627-b827-888248f65c31","","2592","
                    <div class=""stimulus-container"">
                        <img src=""images/causal_sequence/saving_a_cat_causal/saving_a_cat_causal_6.png"" class=""exp-image"">
                        <div class=""question-area"">
                            <p style=""font-size: 20px; font-weight: bold; margin: 0;"">Is there a person in this image?</p>
                        </div>
                    </div>","0","main_causal_task","6","saving_a_cat_causal","","","",""
"","","","","","html-keyboard-response","47","323430","0.0-47.0","6C2F6152D39B4D5CBFF0A1F81394A800","019ce76a-ab3c-7ad8-8e40-28a1b41e4ecb","019ce768-b048-7627-b827-888248f65c31","","null","
                    <div class=""stimulus-container"">
                        <img src=""images/causal_sequence/saving_a_cat_causal/saving_a_cat_causal_7.png"" class=""exp-image"">
                        <div class=""question-area""></div> 
                    </div>","null","","","","","","",""
"","","","","","html-button-response","48","325714","0.0-48.0","6C2F6152D39B4D5CBFF0A1F81394A800","019ce76a-ab3c-7ad8-8e40-28a1b41e4ecb","019ce768-b048-7627-b827-888248f65c31","","2282","
                    <div class=""stimulus-container"">
                        <img src=""images/causal_sequence/saving_a_cat_causal/saving_a_cat_causal_7.png"" class=""exp-image"">
                        <div class=""question-area"">
                            <p style=""font-size: 20px; font-weight: bold; margin: 0;"">Is there a person in this image?</p>
                        </div>
                    </div>","0","main_causal_task","7","saving_a_cat_causal","","","",""
"","","","","","html-keyboard-response","49","330723","0.0-49.0","6C2F6152D39B4D5CBFF0A1F81394A800","019ce76a-ab3c-7ad8-8e40-28a1b41e4ecb","019ce768-b048-7627-b827-888248f65c31","","null","
                    <div class=""stimulus-container"">
                        <img src=""images/causal_sequence/saving_a_cat_causal/saving_a_cat_causal_8.png"" class=""exp-image"">
                        <div class=""question-area""></div> 
                    </div>","null","","","","","","",""
"","","","","","html-button-response","50","332436","0.0-50.0","6C2F6152D39B4D5CBFF0A1F81394A800","019ce76a-ab3c-7ad8-8e40-28a1b41e4ecb","019ce768-b048-7627-b827-888248f65c31","","1711","
                    <div class=""stimulus-container"">
                        <img src=""images/causal_sequence/saving_a_cat_causal/saving_a_cat_causal_8.png"" class=""exp-image"">
                        <div class=""question-area"">
                            <p style=""font-size: 20px; font-weight: bold; margin: 0;"">Is there a person in this image?</p>
                        </div>
                    </div>","0","main_causal_task","8","saving_a_cat_causal","","","",""
"","","","","","html-keyboard-response","51","337449","0.0-51.0","6C2F6152D39B4D5CBFF0A1F81394A800","019ce76a-ab3c-7ad8-8e40-28a1b41e4ecb","019ce768-b048-7627-b827-888248f65c31","","null","
                    <div class=""stimulus-container"">
                        <img src=""images/causal_sequence/saving_a_cat_causal/saving_a_cat_causal_9.png"" class=""exp-image"">
                        <div class=""question-area""></div> 
                    </div>","null","","","","","","",""
"","","","","","html-button-response","52","338482","0.0-52.0","6C2F6152D39B4D5CBFF0A1F81394A800","019ce76a-ab3c-7ad8-8e40-28a1b41e4ecb","019ce768-b048-7627-b827-888248f65c31","","1032","
                    <div class=""stimulus-container"">
                        <img src=""images/causal_sequence/saving_a_cat_causal/saving_a_cat_causal_9.png"" class=""exp-image"">
                        <div class=""question-area"">
                            <p style=""font-size: 20px; font-weight: bold; margin: 0;"">Is there a person in this image?</p>
                        </div>
                    </div>","0","main_causal_task","9","saving_a_cat_causal","","","",""
"","","","","","html-keyboard-response","53","339485","0.0-53.0","6C2F6152D39B4D5CBFF0A1F81394A800","019ce76a-ab3c-7ad8-8e40-28a1b41e4ecb","019ce768-b048-7627-b827-888248f65c31","","null","<div style=""background-color: gray; width: 100vw; height: 100vh;""></div>","null","","","","","","",""
"","","","","","html-keyboard-response","54","344488","0.0-54.0","6C2F6152D39B4D5CBFF0A1F81394A800","019ce76a-ab3c-7ad8-8e40-28a1b41e4ecb","019ce768-b048-7627-b827-888248f65c31","","null","
                    <div class=""stimulus-container"">
                        <img src=""images/causal_sequence/dog_causal/dog_causal_1.png"" class=""exp-image"">
                        <div class=""question-area""></div> 
                    </div>","null","","","","","","",""
"","","","","","html-button-response","55","345845","0.0-55.0","6C2F6152D39B4D5CBFF0A1F81394A800","019ce76a-ab3c-7ad8-8e40-28a1b41e4ecb","019ce768-b048-7627-b827-888248f65c31","","1356","
                    <div class=""stimulus-container"">
                        <img src=""images/causal_sequence/dog_causal/dog_causal_1.png"" class=""exp-image"">
                        <div class=""question-area"">
                            <p style=""font-size: 20px; font-weight: bold; margin: 0;"">Is there a person in this image?</p>
                        </div>
                    </div>","0","main_causal_task","1","dog_causal","","","",""
"","","","","","html-keyboard-response","56","350847","0.0-56.0","6C2F6152D39B4D5CBFF0A1F81394A800","019ce76a-ab3c-7ad8-8e40-28a1b41e4ecb","019ce768-b048-7627-b827-888248f65c31","","null","
                    <div class=""stimulus-container"">
                        <img src=""images/causal_sequence/dog_causal/dog_causal_2.png"" class=""exp-image"">
                        <div class=""question-area""></div> 
                    </div>","null","","","","","","",""
"","","","","","html-button-response","57","352660","0.0-57.0","6C2F6152D39B4D5CBFF0A1F81394A800","019ce76a-ab3c-7ad8-8e40-28a1b41e4ecb","019ce768-b048-7627-b827-888248f65c31","","1812","
                    <div class=""stimulus-container"">
                        <img src=""images/causal_sequence/dog_causal/dog_causal_2.png"" class=""exp-image"">
                        <div class=""question-area"">
                            <p style=""font-size: 20px; font-weight: bold; margin: 0;"">Is there a person in this image?</p>
                        </div>
                    </div>","0","main_causal_task","2","dog_causal","","","",""
"","","","","","html-keyboard-response","58","357667","0.0-58.0","6C2F6152D39B4D5CBFF0A1F81394A800","019ce76a-ab3c-7ad8-8e40-28a1b41e4ecb","019ce768-b048-7627-b827-888248f65c31","","null","
                    <div class=""stimulus-container"">
                        <img src=""images/causal_sequence/dog_causal/dog_causal_3.png"" class=""exp-image"">
                        <div class=""question-area""></div> 
                    </div>","null","","","","","","",""
"","","","","","html-button-response","59","359410","0.0-59.0","6C2F6152D39B4D5CBFF0A1F81394A800","019ce76a-ab3c-7ad8-8e40-28a1b41e4ecb","019ce768-b048-7627-b827-888248f65c31","","1742","
                    <div class=""stimulus-container"">
                        <img src=""images/causal_sequence/dog_causal/dog_causal_3.png"" class=""exp-image"">
                        <div class=""question-area"">
                            <p style=""font-size: 20px; font-weight: bold; margin: 0;"">Is there a person in this image?</p>
                        </div>
                    </div>","0","main_causal_task","3","dog_causal","","","",""
"","","","","","html-keyboard-response","60","364418","0.0-60.0","6C2F6152D39B4D5CBFF0A1F81394A800","019ce76a-ab3c-7ad8-8e40-28a1b41e4ecb","019ce768-b048-7627-b827-888248f65c31","","null","
                    <div class=""stimulus-container"">
                        <img src=""images/causal_sequence/dog_causal/dog_causal_4.png"" class=""exp-image"">
                        <div class=""question-area""></div> 
                    </div>","null","","","","","","",""
"","","","","","html-button-response","61","367429","0.0-61.0","6C2F6152D39B4D5CBFF0A1F81394A800","019ce76a-ab3c-7ad8-8e40-28a1b41e4ecb","019ce768-b048-7627-b827-888248f65c31","","null","
                    <div class=""stimulus-container"">
                        <img src=""images/causal_sequence/dog_causal/dog_causal_4.png"" class=""exp-image"">
                        <div class=""question-area"">
                            <p style=""font-size: 20px; font-weight: bold; margin: 0;"">Is there a person in this image?</p>
                        </div>
                    </div>","null","main_causal_task","4","dog_causal","","","",""
"","","","","","html-keyboard-response","62","372439","0.0-62.0","6C2F6152D39B4D5CBFF0A1F81394A800","019ce76a-ab3c-7ad8-8e40-28a1b41e4ecb","019ce768-b048-7627-b827-888248f65c31","","null","
                    <div class=""stimulus-container"">
                        <img src=""images/causal_sequence/dog_causal/dog_causal_5.png"" class=""exp-image"">
                        <div class=""question-area""></div> 
                    </div>","null","","","","","","",""
"","","","","","html-button-response","63","373619","0.0-63.0","6C2F6152D39B4D5CBFF0A1F81394A800","019ce76a-ab3c-7ad8-8e40-28a1b41e4ecb","019ce768-b048-7627-b827-888248f65c31","","1179","
                    <div class=""stimulus-container"">
                        <img src=""images/causal_sequence/dog_causal/dog_causal_5.png"" class=""exp-image"">
                        <div class=""question-area"">
                            <p style=""font-size: 20px; font-weight: bold; margin: 0;"">Is there a person in this image?</p>
                        </div>
                    </div>","0","main_causal_task","5","dog_causal","","","",""
"","","","","","html-keyboard-response","64","378631","0.0-64.0","6C2F6152D39B4D5CBFF0A1F81394A800","019ce76a-ab3c-7ad8-8e40-28a1b41e4ecb","019ce768-b048-7627-b827-888248f65c31","","null","
                    <div class=""stimulus-container"">
                        <img src=""images/causal_sequence/dog_causal/dog_causal_6.png"" class=""exp-image"">
                        <div class=""question-area""></div> 
                    </div>","null","","","","","","",""
"","","","","","html-button-response","65","380437","0.0-65.0","6C2F6152D39B4D5CBFF0A1F81394A800","019ce76a-ab3c-7ad8-8e40-28a1b41e4ecb","019ce768-b048-7627-b827-888248f65c31","","1804","
                    <div class=""stimulus-container"">
                        <img src=""images/causal_sequence/dog_causal/dog_causal_6.png"" class=""exp-image"">
                        <div class=""question-area"">
                            <p style=""font-size: 20px; font-weight: bold; margin: 0;"">Is there a person in this image?</p>
                        </div>
                    </div>","0","main_causal_task","6","dog_causal","","","",""
"","","","","","html-keyboard-response","66","385439","0.0-66.0","6C2F6152D39B4D5CBFF0A1F81394A800","019ce76a-ab3c-7ad8-8e40-28a1b41e4ecb","019ce768-b048-7627-b827-888248f65c31","","null","
                    <div class=""stimulus-container"">
                        <img src=""images/causal_sequence/dog_causal/dog_causal_7.png"" class=""exp-image"">
                        <div class=""question-area""></div> 
                    </div>","null","","","","","","",""
"","","","","","html-button-response","67","388054","0.0-67.0","6C2F6152D39B4D5CBFF0A1F81394A800","019ce76a-ab3c-7ad8-8e40-28a1b41e4ecb","019ce768-b048-7627-b827-888248f65c31","","2614","
                    <div class=""stimulus-container"">
                        <img src=""images/causal_sequence/dog_causal/dog_causal_7.png"" class=""exp-image"">
                        <div class=""question-area"">
                            <p style=""font-size: 20px; font-weight: bold; margin: 0;"">Is there a person in this image?</p>
                        </div>
                    </div>","0","main_causal_task","7","dog_causal","","","",""
"","","","","","html-keyboard-response","68","393068","0.0-68.0","6C2F6152D39B4D5CBFF0A1F81394A800","019ce76a-ab3c-7ad8-8e40-28a1b41e4ecb","019ce768-b048-7627-b827-888248f65c31","","null","
                    <div class=""stimulus-container"">
                        <img src=""images/causal_sequence/dog_causal/dog_causal_8.png"" class=""exp-image"">
                        <div class=""question-area""></div> 
                    </div>","null","","","","","","",""
"","","","","","html-button-response","69","394642","0.0-69.0","6C2F6152D39B4D5CBFF0A1F81394A800","019ce76a-ab3c-7ad8-8e40-28a1b41e4ecb","019ce768-b048-7627-b827-888248f65c31","","1572","
                    <div class=""stimulus-container"">
                        <img src=""images/causal_sequence/dog_causal/dog_causal_8.png"" class=""exp-image"">
                        <div class=""question-area"">
                            <p style=""font-size: 20px; font-weight: bold; margin: 0;"">Is there a person in this image?</p>
                        </div>
                    </div>","0","main_causal_task","8","dog_causal","","","",""
"","","","","","html-keyboard-response","70","399655","0.0-70.0","6C2F6152D39B4D5CBFF0A1F81394A800","019ce76a-ab3c-7ad8-8e40-28a1b41e4ecb","019ce768-b048-7627-b827-888248f65c31","","null","
                    <div class=""stimulus-container"">
                        <img src=""images/causal_sequence/dog_causal/dog_causal_9.png"" class=""exp-image"">
                        <div class=""question-area""></div> 
                    </div>","null","","","","","","",""
"","","","","","html-button-response","71","401735","0.0-71.0","6C2F6152D39B4D5CBFF0A1F81394A800","019ce76a-ab3c-7ad8-8e40-28a1b41e4ecb","019ce768-b048-7627-b827-888248f65c31","","2078","
                    <div class=""stimulus-container"">
                        <img src=""images/causal_sequence/dog_causal/dog_causal_9.png"" class=""exp-image"">
                        <div class=""question-area"">
                            <p style=""font-size: 20px; font-weight: bold; margin: 0;"">Is there a person in this image?</p>
                        </div>
                    </div>","0","main_causal_task","9","dog_causal","","","",""
"","","","","","html-keyboard-response","72","402742","0.0-72.0","6C2F6152D39B4D5CBFF0A1F81394A800","019ce76a-ab3c-7ad8-8e40-28a1b41e4ecb","019ce768-b048-7627-b827-888248f65c31","","null","<div style=""background-color: gray; width: 100vw; height: 100vh;""></div>","null","","","","","","",""
"","","","","","html-keyboard-response","73","407754","0.0-73.0","6C2F6152D39B4D5CBFF0A1F81394A800","019ce76a-ab3c-7ad8-8e40-28a1b41e4ecb","019ce768-b048-7627-b827-888248f65c31","","null","
                    <div class=""stimulus-container"">
                        <img src=""images/causal_sequence/the_performance_causal/the_performance_causal_1.png"" class=""exp-image"">
                        <div class=""question-area""></div> 
                    </div>","null","","","","","","",""
"","","","","","html-button-response","74","410386","0.0-74.0","6C2F6152D39B4D5CBFF0A1F81394A800","019ce76a-ab3c-7ad8-8e40-28a1b41e4ecb","019ce768-b048-7627-b827-888248f65c31","","2631","
                    <div class=""stimulus-container"">
                        <img src=""images/causal_sequence/the_performance_causal/the_performance_causal_1.png"" class=""exp-image"">
                        <div class=""question-area"">
                            <p style=""font-size: 20px; font-weight: bold; margin: 0;"">Is there a person in this image?</p>
                        </div>
                    </div>","0","main_causal_task","1","the_performance_causal","","","",""
"","","","","","html-keyboard-response","75","415388","0.0-75.0","6C2F6152D39B4D5CBFF0A1F81394A800","019ce76a-ab3c-7ad8-8e40-28a1b41e4ecb","019ce768-b048-7627-b827-888248f65c31","","null","
                    <div class=""stimulus-container"">
                        <img src=""images/causal_sequence/the_performance_causal/the_performance_causal_2.png"" class=""exp-image"">
                        <div class=""question-area""></div> 
                    </div>","null","","","","","","",""
"","","","","","html-button-response","76","418404","0.0-76.0","6C2F6152D39B4D5CBFF0A1F81394A800","019ce76a-ab3c-7ad8-8e40-28a1b41e4ecb","019ce768-b048-7627-b827-888248f65c31","","null","
                    <div class=""stimulus-container"">
                        <img src=""images/causal_sequence/the_performance_causal/the_performance_causal_2.png"" class=""exp-image"">
                        <div class=""question-area"">
                            <p style=""font-size: 20px; font-weight: bold; margin: 0;"">Is there a person in this image?</p>
                        </div>
                    </div>","null","main_causal_task","2","the_performance_causal","","","",""
"","","","","","html-keyboard-response","77","423413","0.0-77.0","6C2F6152D39B4D5CBFF0A1F81394A800","019ce76a-ab3c-7ad8-8e40-28a1b41e4ecb","019ce768-b048-7627-b827-888248f65c31","","null","
                    <div class=""stimulus-container"">
                        <img src=""images/causal_sequence/the_performance_causal/the_performance_causal_3.png"" class=""exp-image"">
                        <div class=""question-area""></div> 
                    </div>","null","","","","","","",""
"","","","","","html-button-response","78","424861","0.0-78.0","6C2F6152D39B4D5CBFF0A1F81394A800","019ce76a-ab3c-7ad8-8e40-28a1b41e4ecb","019ce768-b048-7627-b827-888248f65c31","","1447","
                    <div class=""stimulus-container"">
                        <img src=""images/causal_sequence/the_performance_causal/the_performance_causal_3.png"" class=""exp-image"">
                        <div class=""question-area"">
                            <p style=""font-size: 20px; font-weight: bold; margin: 0;"">Is there a person in this image?</p>
                        </div>
                    </div>","0","main_causal_task","3","the_performance_causal","","","",""
"","","","","","html-keyboard-response","79","429874","0.0-79.0","6C2F6152D39B4D5CBFF0A1F81394A800","019ce76a-ab3c-7ad8-8e40-28a1b41e4ecb","019ce768-b048-7627-b827-888248f65c31","","null","
                    <div class=""stimulus-container"">
                        <img src=""images/causal_sequence/the_performance_causal/the_performance_causal_4.png"" class=""exp-image"">
                        <div class=""question-area""></div> 
                    </div>","null","","","","","","",""
"","","","","","html-button-response","80","431891","0.0-80.0","6C2F6152D39B4D5CBFF0A1F81394A800","019ce76a-ab3c-7ad8-8e40-28a1b41e4ecb","019ce768-b048-7627-b827-888248f65c31","","2015","
                    <div class=""stimulus-container"">
                        <img src=""images/causal_sequence/the_performance_causal/the_performance_causal_4.png"" class=""exp-image"">
                        <div class=""question-area"">
                            <p style=""font-size: 20px; font-weight: bold; margin: 0;"">Is there a person in this image?</p>
                        </div>
                    </div>","0","main_causal_task","4","the_performance_causal","","","",""
"","","","","","html-keyboard-response","81","436906","0.0-81.0","6C2F6152D39B4D5CBFF0A1F81394A800","019ce76a-ab3c-7ad8-8e40-28a1b41e4ecb","019ce768-b048-7627-b827-888248f65c31","","null","
                    <div class=""stimulus-container"">
                        <img src=""images/causal_sequence/the_performance_causal/the_performance_causal_5.png"" class=""exp-image"">
                        <div class=""question-area""></div> 
                    </div>","null","","","","","","",""
"","","","","","html-button-response","82","439912","0.0-82.0","6C2F6152D39B4D5CBFF0A1F81394A800","019ce76a-ab3c-7ad8-8e40-28a1b41e4ecb","019ce768-b048-7627-b827-888248f65c31","","null","
                    <div class=""stimulus-container"">
                        <img src=""images/causal_sequence/the_performance_causal/the_performance_causal_5.png"" class=""exp-image"">
                        <div class=""question-area"">
                            <p style=""font-size: 20px; font-weight: bold; margin: 0;"">Is there a person in this image?</p>
                        </div>
                    </div>","null","main_causal_task","5","the_performance_causal","","","",""
"","","","","","html-keyboard-response","83","444922","0.0-83.0","6C2F6152D39B4D5CBFF0A1F81394A800","019ce76a-ab3c-7ad8-8e40-28a1b41e4ecb","019ce768-b048-7627-b827-888248f65c31","","null","
                    <div class=""stimulus-container"">
                        <img src=""images/causal_sequence/the_performance_causal/the_performance_causal_6.png"" class=""exp-image"">
                        <div class=""question-area""></div> 
                    </div>","null","","","","","","",""
"","","","","","html-button-response","84","446151","0.0-84.0","6C2F6152D39B4D5CBFF0A1F81394A800","019ce76a-ab3c-7ad8-8e40-28a1b41e4ecb","019ce768-b048-7627-b827-888248f65c31","","1227","
                    <div class=""stimulus-container"">
                        <img src=""images/causal_sequence/the_performance_causal/the_performance_causal_6.png"" class=""exp-image"">
                        <div class=""question-area"">
                            <p style=""font-size: 20px; font-weight: bold; margin: 0;"">Is there a person in this image?</p>
                        </div>
                    </div>","0","main_causal_task","6","the_performance_causal","","","",""
"","","","","","html-keyboard-response","85","451157","0.0-85.0","6C2F6152D39B4D5CBFF0A1F81394A800","019ce76a-ab3c-7ad8-8e40-28a1b41e4ecb","019ce768-b048-7627-b827-888248f65c31","","null","
                    <div class=""stimulus-container"">
                        <img src=""images/causal_sequence/the_performance_causal/the_performance_causal_7.png"" class=""exp-image"">
                        <div class=""question-area""></div> 
                    </div>","null","","","","","","",""
"","","","","","html-button-response","86","452495","0.0-86.0","6C2F6152D39B4D5CBFF0A1F81394A800","019ce76a-ab3c-7ad8-8e40-28a1b41e4ecb","019ce768-b048-7627-b827-888248f65c31","","1336","
                    <div class=""stimulus-container"">
                        <img src=""images/causal_sequence/the_performance_causal/the_performance_causal_7.png"" class=""exp-image"">
                        <div class=""question-area"">
                            <p style=""font-size: 20px; font-weight: bold; margin: 0;"">Is there a person in this image?</p>
                        </div>
                    </div>","0","main_causal_task","7","the_performance_causal","","","",""
"","","","","","html-keyboard-response","87","457511","0.0-87.0","6C2F6152D39B4D5CBFF0A1F81394A800","019ce76a-ab3c-7ad8-8e40-28a1b41e4ecb","019ce768-b048-7627-b827-888248f65c31","","null","
                    <div class=""stimulus-container"">
                        <img src=""images/causal_sequence/the_performance_causal/the_performance_causal_8.png"" class=""exp-image"">
                        <div class=""question-area""></div> 
                    </div>","null","","","","","","",""
"","","","","","html-button-response","88","459684","0.0-88.0","6C2F6152D39B4D5CBFF0A1F81394A800","019ce76a-ab3c-7ad8-8e40-28a1b41e4ecb","019ce768-b048-7627-b827-888248f65c31","","2171","
                    <div class=""stimulus-container"">
                        <img src=""images/causal_sequence/the_performance_causal/the_performance_causal_8.png"" class=""exp-image"">
                        <div class=""question-area"">
                            <p style=""font-size: 20px; font-weight: bold; margin: 0;"">Is there a person in this image?</p>
                        </div>
                    </div>","0","main_causal_task","8","the_performance_causal","","","",""
"","","","","","html-keyboard-response","89","464689","0.0-89.0","6C2F6152D39B4D5CBFF0A1F81394A800","019ce76a-ab3c-7ad8-8e40-28a1b41e4ecb","019ce768-b048-7627-b827-888248f65c31","","null","
                    <div class=""stimulus-container"">
                        <img src=""images/causal_sequence/the_performance_causal/the_performance_causal_9.png"" class=""exp-image"">
                        <div class=""question-area""></div> 
                    </div>","null","","","","","","",""
"","","","","","html-button-response","90","465748","0.0-90.0","6C2F6152D39B4D5CBFF0A1F81394A800","019ce76a-ab3c-7ad8-8e40-28a1b41e4ecb","019ce768-b048-7627-b827-888248f65c31","","1057","
                    <div class=""stimulus-container"">
                        <img src=""images/causal_sequence/the_performance_causal/the_performance_causal_9.png"" class=""exp-image"">
                        <div class=""question-area"">
                            <p style=""font-size: 20px; font-weight: bold; margin: 0;"">Is there a person in this image?</p>
                        </div>
                    </div>","0","main_causal_task","9","the_performance_causal","","","",""
"","","","","","html-keyboard-response","91","466754","0.0-91.0","6C2F6152D39B4D5CBFF0A1F81394A800","019ce76a-ab3c-7ad8-8e40-28a1b41e4ecb","019ce768-b048-7627-b827-888248f65c31","","null","<div style=""background-color: gray; width: 100vw; height: 100vh;""></div>","null","","","","","","",""
"","","","","","html-keyboard-response","92","471762","0.0-92.0","6C2F6152D39B4D5CBFF0A1F81394A800","019ce76a-ab3c-7ad8-8e40-28a1b41e4ecb","019ce768-b048-7627-b827-888248f65c31","","null","
                    <div class=""stimulus-container"">
                        <img src=""images/causal_sequence/museum_causal/museum_causal_1.png"" class=""exp-image"">
                        <div class=""question-area""></div> 
                    </div>","null","","","","","","",""
"","","","","","html-button-response","93","474770","0.0-93.0","6C2F6152D39B4D5CBFF0A1F81394A800","019ce76a-ab3c-7ad8-8e40-28a1b41e4ecb","019ce768-b048-7627-b827-888248f65c31","","null","
                    <div class=""stimulus-container"">
                        <img src=""images/causal_sequence/museum_causal/museum_causal_1.png"" class=""exp-image"">
                        <div class=""question-area"">
                            <p style=""font-size: 20px; font-weight: bold; margin: 0;"">Is there a person in this image?</p>
                        </div>
                    </div>","null","main_causal_task","1","museum_causal","","","",""
"","","","","","html-keyboard-response","94","479778","0.0-94.0","6C2F6152D39B4D5CBFF0A1F81394A800","019ce76a-ab3c-7ad8-8e40-28a1b41e4ecb","019ce768-b048-7627-b827-888248f65c31","","null","
                    <div class=""stimulus-container"">
                        <img src=""images/causal_sequence/museum_causal/museum_causal_2.png"" class=""exp-image"">
                        <div class=""question-area""></div> 
                    </div>","null","","","","","","",""
"","","","","","html-button-response","95","482783","0.0-95.0","6C2F6152D39B4D5CBFF0A1F81394A800","019ce76a-ab3c-7ad8-8e40-28a1b41e4ecb","019ce768-b048-7627-b827-888248f65c31","","null","
                    <div class=""stimulus-container"">
                        <img src=""images/causal_sequence/museum_causal/museum_causal_2.png"" class=""exp-image"">
                        <div class=""question-area"">
                            <p style=""font-size: 20px; font-weight: bold; margin: 0;"">Is there a person in this image?</p>
                        </div>
                    </div>","null","main_causal_task","2","museum_causal","","","",""
"","","","","","html-keyboard-response","96","487784","0.0-96.0","6C2F6152D39B4D5CBFF0A1F81394A800","019ce76a-ab3c-7ad8-8e40-28a1b41e4ecb","019ce768-b048-7627-b827-888248f65c31","","null","
                    <div class=""stimulus-container"">
                        <img src=""images/causal_sequence/museum_causal/museum_causal_3.png"" class=""exp-image"">
                        <div class=""question-area""></div> 
                    </div>","null","","","","","","",""
"","","","","","html-button-response","97","489432","0.0-97.0","6C2F6152D39B4D5CBFF0A1F81394A800","019ce76a-ab3c-7ad8-8e40-28a1b41e4ecb","019ce768-b048-7627-b827-888248f65c31","","1646","
                    <div class=""stimulus-container"">
                        <img src=""images/causal_sequence/museum_causal/museum_causal_3.png"" class=""exp-image"">
                        <div class=""question-area"">
                            <p style=""font-size: 20px; font-weight: bold; margin: 0;"">Is there a person in this image?</p>
                        </div>
                    </div>","0","main_causal_task","3","museum_causal","","","",""
"","","","","","html-keyboard-response","98","494443","0.0-98.0","6C2F6152D39B4D5CBFF0A1F81394A800","019ce76a-ab3c-7ad8-8e40-28a1b41e4ecb","019ce768-b048-7627-b827-888248f65c31","","null","
                    <div class=""stimulus-container"">
                        <img src=""images/causal_sequence/museum_causal/museum_causal_4.png"" class=""exp-image"">
                        <div class=""question-area""></div> 
                    </div>","null","","","","","","",""
"","","","","","html-button-response","99","495757","0.0-99.0","6C2F6152D39B4D5CBFF0A1F81394A800","019ce76a-ab3c-7ad8-8e40-28a1b41e4ecb","019ce768-b048-7627-b827-888248f65c31","","1311","
                    <div class=""stimulus-container"">
                        <img src=""images/causal_sequence/museum_causal/museum_causal_4.png"" class=""exp-image"">
                        <div class=""question-area"">
                            <p style=""font-size: 20px; font-weight: bold; margin: 0;"">Is there a person in this image?</p>
                        </div>
                    </div>","1","main_causal_task","4","museum_causal","","","",""
"","","","","","html-keyboard-response","100","500765","0.0-100.0","6C2F6152D39B4D5CBFF0A1F81394A800","019ce76a-ab3c-7ad8-8e40-28a1b41e4ecb","019ce768-b048-7627-b827-888248f65c31","","null","
                    <div class=""stimulus-container"">
                        <img src=""images/causal_sequence/museum_causal/museum_causal_5.png"" class=""exp-image"">
                        <div class=""question-area""></div> 
                    </div>","null","","","","","","",""
"","","","","","html-button-response","101","502545","0.0-101.0","6C2F6152D39B4D5CBFF0A1F81394A800","019ce76a-ab3c-7ad8-8e40-28a1b41e4ecb","019ce768-b048-7627-b827-888248f65c31","","1779","
                    <div class=""stimulus-container"">
                        <img src=""images/causal_sequence/museum_causal/museum_causal_5.png"" class=""exp-image"">
                        <div class=""question-area"">
                            <p style=""font-size: 20px; font-weight: bold; margin: 0;"">Is there a person in this image?</p>
                        </div>
                    </div>","0","main_causal_task","5","museum_causal","","","",""
"","","","","","html-keyboard-response","102","507552","0.0-102.0","6C2F6152D39B4D5CBFF0A1F81394A800","019ce76a-ab3c-7ad8-8e40-28a1b41e4ecb","019ce768-b048-7627-b827-888248f65c31","","null","
                    <div class=""stimulus-container"">
                        <img src=""images/causal_sequence/museum_causal/museum_causal_6.png"" class=""exp-image"">
                        <div class=""question-area""></div> 
                    </div>","null","","","","","","",""
"","","","","","html-button-response","103","509250","0.0-103.0","6C2F6152D39B4D5CBFF0A1F81394A800","019ce76a-ab3c-7ad8-8e40-28a1b41e4ecb","019ce768-b048-7627-b827-888248f65c31","","1697","
                    <div class=""stimulus-container"">
                        <img src=""images/causal_sequence/museum_causal/museum_causal_6.png"" class=""exp-image"">
                        <div class=""question-area"">
                            <p style=""font-size: 20px; font-weight: bold; margin: 0;"">Is there a person in this image?</p>
                        </div>
                    </div>","0","main_causal_task","6","museum_causal","","","",""
"","","","","","html-keyboard-response","104","514258","0.0-104.0","6C2F6152D39B4D5CBFF0A1F81394A800","019ce76a-ab3c-7ad8-8e40-28a1b41e4ecb","019ce768-b048-7627-b827-888248f65c31","","null","
                    <div class=""stimulus-container"">
                        <img src=""images/causal_sequence/museum_causal/museum_causal_7.png"" class=""exp-image"">
                        <div class=""question-area""></div> 
                    </div>","null","","","","","","",""
"","","","","","html-button-response","105","515907","0.0-105.0","6C2F6152D39B4D5CBFF0A1F81394A800","019ce76a-ab3c-7ad8-8e40-28a1b41e4ecb","019ce768-b048-7627-b827-888248f65c31","","1646","
                    <div class=""stimulus-container"">
                        <img src=""images/causal_sequence/museum_causal/museum_causal_7.png"" class=""exp-image"">
                        <div class=""question-area"">
                            <p style=""font-size: 20px; font-weight: bold; margin: 0;"">Is there a person in this image?</p>
                        </div>
                    </div>","1","main_causal_task","7","museum_causal","","","",""
"","","","","","html-keyboard-response","106","520921","0.0-106.0","6C2F6152D39B4D5CBFF0A1F81394A800","019ce76a-ab3c-7ad8-8e40-28a1b41e4ecb","019ce768-b048-7627-b827-888248f65c31","","null","
                    <div class=""stimulus-container"">
                        <img src=""images/causal_sequence/museum_causal/museum_causal_8.png"" class=""exp-image"">
                        <div class=""question-area""></div> 
                    </div>","null","","","","","","",""
"","","","","","html-button-response","107","522898","0.0-107.0","6C2F6152D39B4D5CBFF0A1F81394A800","019ce76a-ab3c-7ad8-8e40-28a1b41e4ecb","019ce768-b048-7627-b827-888248f65c31","","1975","
                    <div class=""stimulus-container"">
                        <img src=""images/causal_sequence/museum_causal/museum_causal_8.png"" class=""exp-image"">
                        <div class=""question-area"">
                            <p style=""font-size: 20px; font-weight: bold; margin: 0;"">Is there a person in this image?</p>
                        </div>
                    </div>","0","main_causal_task","8","museum_causal","","","",""
"","","","","","html-keyboard-response","108","527905","0.0-108.0","6C2F6152D39B4D5CBFF0A1F81394A800","019ce76a-ab3c-7ad8-8e40-28a1b41e4ecb","019ce768-b048-7627-b827-888248f65c31","","null","
                    <div class=""stimulus-container"">
                        <img src=""images/causal_sequence/museum_causal/museum_causal_9.png"" class=""exp-image"">
                        <div class=""question-area""></div> 
                    </div>","null","","","","","","",""
"","","","","","html-button-response","109","529366","0.0-109.0","6C2F6152D39B4D5CBFF0A1F81394A800","019ce76a-ab3c-7ad8-8e40-28a1b41e4ecb","019ce768-b048-7627-b827-888248f65c31","","1459","
                    <div class=""stimulus-container"">
                        <img src=""images/causal_sequence/museum_causal/museum_causal_9.png"" class=""exp-image"">
                        <div class=""question-area"">
                            <p style=""font-size: 20px; font-weight: bold; margin: 0;"">Is there a person in this image?</p>
                        </div>
                    </div>","1","main_causal_task","9","museum_causal","","","",""
"","","","","","html-keyboard-response","110","530368","0.0-110.0","6C2F6152D39B4D5CBFF0A1F81394A800","019ce76a-ab3c-7ad8-8e40-28a1b41e4ecb","019ce768-b048-7627-b827-888248f65c31","","null","<div style=""background-color: gray; width: 100vw; height: 100vh;""></div>","null","","","","","","",""
"","","","","","html-keyboard-response","111","535370","0.0-111.0","6C2F6152D39B4D5CBFF0A1F81394A800","019ce76a-ab3c-7ad8-8e40-28a1b41e4ecb","019ce768-b048-7627-b827-888248f65c31","","null","
                    <div class=""stimulus-container"">
                        <img src=""images/causal_sequence/package_causal/package_causal_1.png"" class=""exp-image"">
                        <div class=""question-area""></div> 
                    </div>","null","","","","","","",""
"","","","","","html-button-response","112","536993","0.0-112.0","6C2F6152D39B4D5CBFF0A1F81394A800","019ce76a-ab3c-7ad8-8e40-28a1b41e4ecb","019ce768-b048-7627-b827-888248f65c31","","1621","
                    <div class=""stimulus-container"">
                        <img src=""images/causal_sequence/package_causal/package_causal_1.png"" class=""exp-image"">
                        <div class=""question-area"">
                            <p style=""font-size: 20px; font-weight: bold; margin: 0;"">Is there a person in this image?</p>
                        </div>
                    </div>","0","main_causal_task","1","package_causal","","","",""
"","","","","","html-keyboard-response","113","541999","0.0-113.0","6C2F6152D39B4D5CBFF0A1F81394A800","019ce76a-ab3c-7ad8-8e40-28a1b41e4ecb","019ce768-b048-7627-b827-888248f65c31","","null","
                    <div class=""stimulus-container"">
                        <img src=""images/causal_sequence/package_causal/package_causal_2.png"" class=""exp-image"">
                        <div class=""question-area""></div> 
                    </div>","null","","","","","","",""
"","","","","","html-button-response","114","545015","0.0-114.0","6C2F6152D39B4D5CBFF0A1F81394A800","019ce76a-ab3c-7ad8-8e40-28a1b41e4ecb","019ce768-b048-7627-b827-888248f65c31","","null","
                    <div class=""stimulus-container"">
                        <img src=""images/causal_sequence/package_causal/package_causal_2.png"" class=""exp-image"">
                        <div class=""question-area"">
                            <p style=""font-size: 20px; font-weight: bold; margin: 0;"">Is there a person in this image?</p>
                        </div>
                    </div>","null","main_causal_task","2","package_causal","","","",""
"","","","","","html-keyboard-response","115","550030","0.0-115.0","6C2F6152D39B4D5CBFF0A1F81394A800","019ce76a-ab3c-7ad8-8e40-28a1b41e4ecb","019ce768-b048-7627-b827-888248f65c31","","null","
                    <div class=""stimulus-container"">
                        <img src=""images/causal_sequence/package_causal/package_causal_3.png"" class=""exp-image"">
                        <div class=""question-area""></div> 
                    </div>","null","","","","","","",""
"","","","","","html-button-response","116","552026","0.0-116.0","6C2F6152D39B4D5CBFF0A1F81394A800","019ce76a-ab3c-7ad8-8e40-28a1b41e4ecb","019ce768-b048-7627-b827-888248f65c31","","1995","
                    <div class=""stimulus-container"">
                        <img src=""images/causal_sequence/package_causal/package_causal_3.png"" class=""exp-image"">
                        <div class=""question-area"">
                            <p style=""font-size: 20px; font-weight: bold; margin: 0;"">Is there a person in this image?</p>
                        </div>
                    </div>","0","main_causal_task","3","package_causal","","","",""
"","","","","","html-keyboard-response","117","557036","0.0-117.0","6C2F6152D39B4D5CBFF0A1F81394A800","019ce76a-ab3c-7ad8-8e40-28a1b41e4ecb","019ce768-b048-7627-b827-888248f65c31","","null","
                    <div class=""stimulus-container"">
                        <img src=""images/causal_sequence/package_causal/package_causal_4.png"" class=""exp-image"">
                        <div class=""question-area""></div> 
                    </div>","null","","","","","","",""
"","","","","","html-button-response","118","559333","0.0-118.0","6C2F6152D39B4D5CBFF0A1F81394A800","019ce76a-ab3c-7ad8-8e40-28a1b41e4ecb","019ce768-b048-7627-b827-888248f65c31","","2295","
                    <div class=""stimulus-container"">
                        <img src=""images/causal_sequence/package_causal/package_causal_4.png"" class=""exp-image"">
                        <div class=""question-area"">
                            <p style=""font-size: 20px; font-weight: bold; margin: 0;"">Is there a person in this image?</p>
                        </div>
                    </div>","0","main_causal_task","4","package_causal","","","",""
"","","","","","html-keyboard-response","119","564342","0.0-119.0","6C2F6152D39B4D5CBFF0A1F81394A800","019ce76a-ab3c-7ad8-8e40-28a1b41e4ecb","019ce768-b048-7627-b827-888248f65c31","","null","
                    <div class=""stimulus-container"">
                        <img src=""images/causal_sequence/package_causal/package_causal_5.png"" class=""exp-image"">
                        <div class=""question-area""></div> 
                    </div>","null","","","","","","",""
"","","","","","html-button-response","120","565271","0.0-120.0","6C2F6152D39B4D5CBFF0A1F81394A800","019ce76a-ab3c-7ad8-8e40-28a1b41e4ecb","019ce768-b048-7627-b827-888248f65c31","","927","
                    <div class=""stimulus-container"">
                        <img src=""images/causal_sequence/package_causal/package_causal_5.png"" class=""exp-image"">
                        <div class=""question-area"">
                            <p style=""font-size: 20px; font-weight: bold; margin: 0;"">Is there a person in this image?</p>
                        </div>
                    </div>","0","main_causal_task","5","package_causal","","","",""
"","","","","","html-keyboard-response","121","570280","0.0-121.0","6C2F6152D39B4D5CBFF0A1F81394A800","019ce76a-ab3c-7ad8-8e40-28a1b41e4ecb","019ce768-b048-7627-b827-888248f65c31","","null","
                    <div class=""stimulus-container"">
                        <img src=""images/causal_sequence/package_causal/package_causal_6.png"" class=""exp-image"">
                        <div class=""question-area""></div> 
                    </div>","null","","","","","","",""
"","","","","","html-button-response","122","571791","0.0-122.0","6C2F6152D39B4D5CBFF0A1F81394A800","019ce76a-ab3c-7ad8-8e40-28a1b41e4ecb","019ce768-b048-7627-b827-888248f65c31","","1510","
                    <div class=""stimulus-container"">
                        <img src=""images/causal_sequence/package_causal/package_causal_6.png"" class=""exp-image"">
                        <div class=""question-area"">
                            <p style=""font-size: 20px; font-weight: bold; margin: 0;"">Is there a person in this image?</p>
                        </div>
                    </div>","0","main_causal_task","6","package_causal","","","",""
"","","","","","html-keyboard-response","123","576806","0.0-123.0","6C2F6152D39B4D5CBFF0A1F81394A800","019ce76a-ab3c-7ad8-8e40-28a1b41e4ecb","019ce768-b048-7627-b827-888248f65c31","","null","
                    <div class=""stimulus-container"">
                        <img src=""images/causal_sequence/package_causal/package_causal_7.png"" class=""exp-image"">
                        <div class=""question-area""></div> 
                    </div>","null","","","","","","",""
"","","","","","html-button-response","124","579013","0.0-124.0","6C2F6152D39B4D5CBFF0A1F81394A800","019ce76a-ab3c-7ad8-8e40-28a1b41e4ecb","019ce768-b048-7627-b827-888248f65c31","","2206","
                    <div class=""stimulus-container"">
                        <img src=""images/causal_sequence/package_causal/package_causal_7.png"" class=""exp-image"">
                        <div class=""question-area"">
                            <p style=""font-size: 20px; font-weight: bold; margin: 0;"">Is there a person in this image?</p>
                        </div>
                    </div>","0","main_causal_task","7","package_causal","","","",""
"","","","","","html-keyboard-response","125","584019","0.0-125.0","6C2F6152D39B4D5CBFF0A1F81394A800","019ce76a-ab3c-7ad8-8e40-28a1b41e4ecb","019ce768-b048-7627-b827-888248f65c31","","null","
                    <div class=""stimulus-container"">
                        <img src=""images/causal_sequence/package_causal/package_causal_8.png"" class=""exp-image"">
                        <div class=""question-area""></div> 
                    </div>","null","","","","","","",""
"","","","","","html-button-response","126","585854","0.0-126.0","6C2F6152D39B4D5CBFF0A1F81394A800","019ce76a-ab3c-7ad8-8e40-28a1b41e4ecb","019ce768-b048-7627-b827-888248f65c31","","1832","
                    <div class=""stimulus-container"">
                        <img src=""images/causal_sequence/package_causal/package_causal_8.png"" class=""exp-image"">
                        <div class=""question-area"">
                            <p style=""font-size: 20px; font-weight: bold; margin: 0;"">Is there a person in this image?</p>
                        </div>
                    </div>","0","main_causal_task","8","package_causal","","","",""
"","","","","","html-keyboard-response","127","590864","0.0-127.0","6C2F6152D39B4D5CBFF0A1F81394A800","019ce76a-ab3c-7ad8-8e40-28a1b41e4ecb","019ce768-b048-7627-b827-888248f65c31","","null","
                    <div class=""stimulus-container"">
                        <img src=""images/causal_sequence/package_causal/package_causal_9.png"" class=""exp-image"">
                        <div class=""question-area""></div> 
                    </div>","null","","","","","","",""
"","","","","","html-button-response","128","592252","0.0-128.0","6C2F6152D39B4D5CBFF0A1F81394A800","019ce76a-ab3c-7ad8-8e40-28a1b41e4ecb","019ce768-b048-7627-b827-888248f65c31","","1387","
                    <div class=""stimulus-container"">
                        <img src=""images/causal_sequence/package_causal/package_causal_9.png"" class=""exp-image"">
                        <div class=""question-area"">
                            <p style=""font-size: 20px; font-weight: bold; margin: 0;"">Is there a person in this image?</p>
                        </div>
                    </div>","0","main_causal_task","9","package_causal","","","",""
"","","","","","instructions","129","597807","0.0-129.0","6C2F6152D39B4D5CBFF0A1F81394A800","019ce76a-ab3c-7ad8-8e40-28a1b41e4ecb","019ce768-b048-7627-b827-888248f65c31","[{""page_index"":0,""viewing_time"":5553}]","5553","","","","","","","","",""
"","","","","","instructions","130","602799","0.0-130.0","6C2F6152D39B4D5CBFF0A1F81394A800","019ce76a-ab3c-7ad8-8e40-28a1b41e4ecb","019ce768-b048-7627-b827-888248f65c31","[{""page_index"":0,""viewing_time"":4991}]","4991","","","","","","","","",""
"","","","","","html-keyboard-response","131","603811","0.0-131.0","6C2F6152D39B4D5CBFF0A1F81394A800","019ce76a-ab3c-7ad8-8e40-28a1b41e4ecb","019ce768-b048-7627-b827-888248f65c31","","null","
        <div class=""stimulus-container"" style=""display: flex; align-items: center; justify-content: center; gap: 30px;"">
            <img src=""images/instructions/movie_1.png"" class=""exp-image"">
            <div style=""font-size: 40px; font-weight: bold; color: green; border: 5px solid green; padding: 25px; border-radius: 15px; background-color: #f0fff0;"">
                WORTH<br>$1
            </div>
        </div>
        <div class=""question-area""></div>","null","","","","","","",""
"","","","","","html-button-response","132","606027","0.0-132.0","6C2F6152D39B4D5CBFF0A1F81394A800","019ce76a-ab3c-7ad8-8e40-28a1b41e4ecb","019ce768-b048-7627-b827-888248f65c31","","2215","
        <div class=""stimulus-container"" style=""display: flex; align-items: center; justify-content: center; gap: 30px;"">
            <img src=""images/instructions/movie_1.png"" class=""exp-image"">
            <div style=""font-size: 40px; font-weight: bold; color: green; border: 5px solid green; padding: 25px; border-radius: 15px; background-color: #f0fff0;"">
                WORTH<br>$1
            </div>
        </div>
        <div class=""question-area"">
            <p style=""font-size: 20px; font-weight: bold; margin: 0;"">Was there a person in this image?</p>
        </div>","0","","","","","","",""
"","","","","","instructions","133","607901","0.0-133.0","6C2F6152D39B4D5CBFF0A1F81394A800","019ce76a-ab3c-7ad8-8e40-28a1b41e4ecb","019ce768-b048-7627-b827-888248f65c31","[{""page_index"":0,""viewing_time"":1872}]","1873","","","","","","","","",""
"","","","","","html-keyboard-response","134","617902","0.0-134.0","6C2F6152D39B4D5CBFF0A1F81394A800","019ce76a-ab3c-7ad8-8e40-28a1b41e4ecb","019ce768-b048-7627-b827-888248f65c31","","null","
            <div class=""stimulus-container"" style=""display: flex; align-items: center; justify-content: center; gap: 30px;"">
                <img src=""images/causal_sequence/coin_causal/coin_causal_4.png"" class=""exp-image"">
                <div style=""font-size: 40px; font-weight: bold; color: green; border: 5px solid green; padding: 25px; border-radius: 15px; background-color: #f0fff0;"">
                    WORTH<br>$1
                </div>
            </div>
            <div class=""question-area""></div>","null","","","","","","",""
"","","","","","html-button-response","135","619784","0.0-135.0","6C2F6152D39B4D5CBFF0A1F81394A800","019ce76a-ab3c-7ad8-8e40-28a1b41e4ecb","019ce768-b048-7627-b827-888248f65c31","","1879","
            <div class=""stimulus-container"" style=""display: flex; align-items: center; justify-content: center; gap: 30px;"">
                <img src=""images/causal_sequence/coin_causal/coin_causal_4.png"" class=""exp-image"">
                <div style=""font-size: 40px; font-weight: bold; color: green; border: 5px solid green; padding: 25px; border-radius: 15px; background-color: #f0fff0;"">
                    WORTH<br>$1
                </div>
            </div>
            <div class=""question-area"">
                <p style=""font-size: 20px; font-weight: bold; margin: 0;"">Was there a person in this image?</p>
            </div>","0","part2_value_learning","","coin_causal","4","","",""
"","","","","","html-keyboard-response","136","629786","0.0-136.0","6C2F6152D39B4D5CBFF0A1F81394A800","019ce76a-ab3c-7ad8-8e40-28a1b41e4ecb","019ce768-b048-7627-b827-888248f65c31","","null","
            <div class=""stimulus-container"" style=""display: flex; align-items: center; justify-content: center; gap: 30px;"">
                <img src=""images/causal_sequence/the_performance_causal/the_performance_causal_6.png"" class=""exp-image"">
                <div style=""font-size: 40px; font-weight: bold; color: green; border: 5px solid green; padding: 25px; border-radius: 15px; background-color: #f0fff0;"">
                    WORTH<br>$1
                </div>
            </div>
            <div class=""question-area""></div>","null","","","","","","",""
"","","","","","html-button-response","137","631182","0.0-137.0","6C2F6152D39B4D5CBFF0A1F81394A800","019ce76a-ab3c-7ad8-8e40-28a1b41e4ecb","019ce768-b048-7627-b827-888248f65c31","","1394","
            <div class=""stimulus-container"" style=""display: flex; align-items: center; justify-content: center; gap: 30px;"">
                <img src=""images/causal_sequence/the_performance_causal/the_performance_causal_6.png"" class=""exp-image"">
                <div style=""font-size: 40px; font-weight: bold; color: green; border: 5px solid green; padding: 25px; border-radius: 15px; background-color: #f0fff0;"">
                    WORTH<br>$1
                </div>
            </div>
            <div class=""question-area"">
                <p style=""font-size: 20px; font-weight: bold; margin: 0;"">Was there a person in this image?</p>
            </div>","0","part2_value_learning","","the_performance_causal","6","","",""
"","","","","","html-keyboard-response","138","641184","0.0-138.0","6C2F6152D39B4D5CBFF0A1F81394A800","019ce76a-ab3c-7ad8-8e40-28a1b41e4ecb","019ce768-b048-7627-b827-888248f65c31","","null","
            <div class=""stimulus-container"" style=""display: flex; align-items: center; justify-content: center; gap: 30px;"">
                <img src=""images/causal_sequence/saving_a_cat_causal/saving_a_cat_causal_6.png"" class=""exp-image"">
                <div style=""font-size: 40px; font-weight: bold; color: green; border: 5px solid green; padding: 25px; border-radius: 15px; background-color: #f0fff0;"">
                    WORTH<br>$1
                </div>
            </div>
            <div class=""question-area""></div>","null","","","","","","",""
"","","","","","html-button-response","139","644191","0.0-139.0","6C2F6152D39B4D5CBFF0A1F81394A800","019ce76a-ab3c-7ad8-8e40-28a1b41e4ecb","019ce768-b048-7627-b827-888248f65c31","","null","
            <div class=""stimulus-container"" style=""display: flex; align-items: center; justify-content: center; gap: 30px;"">
                <img src=""images/causal_sequence/saving_a_cat_causal/saving_a_cat_causal_6.png"" class=""exp-image"">
                <div style=""font-size: 40px; font-weight: bold; color: green; border: 5px solid green; padding: 25px; border-radius: 15px; background-color: #f0fff0;"">
                    WORTH<br>$1
                </div>
            </div>
            <div class=""question-area"">
                <p style=""font-size: 20px; font-weight: bold; margin: 0;"">Was there a person in this image?</p>
            </div>","null","part2_value_learning","","saving_a_cat_causal","6","","",""
"","","","","","html-keyboard-response","140","654205","0.0-140.0","6C2F6152D39B4D5CBFF0A1F81394A800","019ce76a-ab3c-7ad8-8e40-28a1b41e4ecb","019ce768-b048-7627-b827-888248f65c31","","null","
            <div class=""stimulus-container"" style=""display: flex; align-items: center; justify-content: center; gap: 30px;"">
                <img src=""images/causal_sequence/package_causal/package_causal_6.png"" class=""exp-image"">
                <div style=""font-size: 40px; font-weight: bold; color: green; border: 5px solid green; padding: 25px; border-radius: 15px; background-color: #f0fff0;"">
                    WORTH<br>$1
                </div>
            </div>
            <div class=""question-area""></div>","null","","","","","","",""
"","","","","","html-button-response","141","655656","0.0-141.0","6C2F6152D39B4D5CBFF0A1F81394A800","019ce76a-ab3c-7ad8-8e40-28a1b41e4ecb","019ce768-b048-7627-b827-888248f65c31","","1450","
            <div class=""stimulus-container"" style=""display: flex; align-items: center; justify-content: center; gap: 30px;"">
                <img src=""images/causal_sequence/package_causal/package_causal_6.png"" class=""exp-image"">
                <div style=""font-size: 40px; font-weight: bold; color: green; border: 5px solid green; padding: 25px; border-radius: 15px; background-color: #f0fff0;"">
                    WORTH<br>$1
                </div>
            </div>
            <div class=""question-area"">
                <p style=""font-size: 20px; font-weight: bold; margin: 0;"">Was there a person in this image?</p>
            </div>","0","part2_value_learning","","package_causal","6","","",""
"","","","","","html-keyboard-response","142","665670","0.0-142.0","6C2F6152D39B4D5CBFF0A1F81394A800","019ce76a-ab3c-7ad8-8e40-28a1b41e4ecb","019ce768-b048-7627-b827-888248f65c31","","null","
            <div class=""stimulus-container"" style=""display: flex; align-items: center; justify-content: center; gap: 30px;"">
                <img src=""images/causal_sequence/museum_causal/museum_causal_6.png"" class=""exp-image"">
                <div style=""font-size: 40px; font-weight: bold; color: green; border: 5px solid green; padding: 25px; border-radius: 15px; background-color: #f0fff0;"">
                    WORTH<br>$1
                </div>
            </div>
            <div class=""question-area""></div>","null","","","","","","",""
"","","","","","html-button-response","143","667165","0.0-143.0","6C2F6152D39B4D5CBFF0A1F81394A800","019ce76a-ab3c-7ad8-8e40-28a1b41e4ecb","019ce768-b048-7627-b827-888248f65c31","","1494","
            <div class=""stimulus-container"" style=""display: flex; align-items: center; justify-content: center; gap: 30px;"">
                <img src=""images/causal_sequence/museum_causal/museum_causal_6.png"" class=""exp-image"">
                <div style=""font-size: 40px; font-weight: bold; color: green; border: 5px solid green; padding: 25px; border-radius: 15px; background-color: #f0fff0;"">
                    WORTH<br>$1
                </div>
            </div>
            <div class=""question-area"">
                <p style=""font-size: 20px; font-weight: bold; margin: 0;"">Was there a person in this image?</p>
            </div>","0","part2_value_learning","","museum_causal","6","","",""
"","","","","","html-keyboard-response","144","677169","0.0-144.0","6C2F6152D39B4D5CBFF0A1F81394A800","019ce76a-ab3c-7ad8-8e40-28a1b41e4ecb","019ce768-b048-7627-b827-888248f65c31","","null","
            <div class=""stimulus-container"" style=""display: flex; align-items: center; justify-content: center; gap: 30px;"">
                <img src=""images/causal_sequence/dog_causal/dog_causal_7.png"" class=""exp-image"">
                <div style=""font-size: 40px; font-weight: bold; color: green; border: 5px solid green; padding: 25px; border-radius: 15px; background-color: #f0fff0;"">
                    WORTH<br>$1
                </div>
            </div>
            <div class=""question-area""></div>","null","","","","","","",""
"","","","","","html-button-response","145","679423","0.0-145.0","6C2F6152D39B4D5CBFF0A1F81394A800","019ce76a-ab3c-7ad8-8e40-28a1b41e4ecb","019ce768-b048-7627-b827-888248f65c31","","2252","
            <div class=""stimulus-container"" style=""display: flex; align-items: center; justify-content: center; gap: 30px;"">
                <img src=""images/causal_sequence/dog_causal/dog_causal_7.png"" class=""exp-image"">
                <div style=""font-size: 40px; font-weight: bold; color: green; border: 5px solid green; padding: 25px; border-radius: 15px; background-color: #f0fff0;"">
                    WORTH<br>$1
                </div>
            </div>
            <div class=""question-area"">
                <p style=""font-size: 20px; font-weight: bold; margin: 0;"">Was there a person in this image?</p>
            </div>","0","part2_value_learning","","dog_causal","7","","",""
"","","","","","instructions","146","681247","0.0-146.0","6C2F6152D39B4D5CBFF0A1F81394A800","019ce76a-ab3c-7ad8-8e40-28a1b41e4ecb","019ce768-b048-7627-b827-888248f65c31","[{""page_index"":0,""viewing_time"":1823}]","1823","","","","","","","","",""
"","","","","","instructions","147","683024","0.0-147.0","6C2F6152D39B4D5CBFF0A1F81394A800","019ce76a-ab3c-7ad8-8e40-28a1b41e4ecb","019ce768-b048-7627-b827-888248f65c31","[{""page_index"":0,""viewing_time"":1776}]","1776","","","","","","","","",""
"","","","","","html-keyboard-response","148","693028","0.0-148.0-0.0","6C2F6152D39B4D5CBFF0A1F81394A800","019ce76a-ab3c-7ad8-8e40-28a1b41e4ecb","019ce768-b048-7627-b827-888248f65c31","","null","
                        <div style=""font-family: Arial; margin-bottom: 20px;""><h3>Which image is more valuable?</h3></div>
                        <div class=""stimulus-container"" style=""display: flex; width: 1100px; justify-content: center; gap: 50px;"">
                            <img src=""images/causal_sequence/museum_causal/museum_causal_8.png"" class=""exp-image"">
                            <img src=""images/causal_sequence/museum_causal/museum_causal_4.png"" class=""exp-image"">
                        </div>","null","","","","","","",""
"","","","","","html-button-response","149","695526","0.0-148.0-1.0","6C2F6152D39B4D5CBFF0A1F81394A800","019ce76a-ab3c-7ad8-8e40-28a1b41e4ecb","019ce768-b048-7627-b827-888248f65c31","","2496","
                        <div style=""font-family: Arial; margin-bottom: 20px;""><h3>Which image is more valuable?</h3></div>
                        <div class=""stimulus-container"" style=""display: flex; width: 1100px; justify-content: center; gap: 50px;"">
                            <img src=""images/causal_sequence/museum_causal/museum_causal_8.png"" class=""exp-image"">
                            <img src=""images/causal_sequence/museum_causal/museum_causal_4.png"" class=""exp-image"">
                        </div>","0","part3_final_choice","","museum_causal","","6","8","2"
"","","","","","html-keyboard-response","150","705531","0.0-149.0-0.0","6C2F6152D39B4D5CBFF0A1F81394A800","019ce76a-ab3c-7ad8-8e40-28a1b41e4ecb","019ce768-b048-7627-b827-888248f65c31","","null","
                        <div style=""font-family: Arial; margin-bottom: 20px;""><h3>Which image is more valuable?</h3></div>
                        <div class=""stimulus-container"" style=""display: flex; width: 1100px; justify-content: center; gap: 50px;"">
                            <img src=""images/causal_sequence/saving_a_cat_causal/saving_a_cat_causal_8.png"" class=""exp-image"">
                            <img src=""images/causal_sequence/saving_a_cat_causal/saving_a_cat_causal_4.png"" class=""exp-image"">
                        </div>","null","","","","","","",""
"","","","","","html-button-response","151","706619","0.0-149.0-1.0","6C2F6152D39B4D5CBFF0A1F81394A800","019ce76a-ab3c-7ad8-8e40-28a1b41e4ecb","019ce768-b048-7627-b827-888248f65c31","","1086","
                        <div style=""font-family: Arial; margin-bottom: 20px;""><h3>Which image is more valuable?</h3></div>
                        <div class=""stimulus-container"" style=""display: flex; width: 1100px; justify-content: center; gap: 50px;"">
                            <img src=""images/causal_sequence/saving_a_cat_causal/saving_a_cat_causal_8.png"" class=""exp-image"">
                            <img src=""images/causal_sequence/saving_a_cat_causal/saving_a_cat_causal_4.png"" class=""exp-image"">
                        </div>","0","part3_final_choice","","saving_a_cat_causal","","6","8","2"
"","","","","","html-keyboard-response","152","716622","0.0-150.0-0.0","6C2F6152D39B4D5CBFF0A1F81394A800","019ce76a-ab3c-7ad8-8e40-28a1b41e4ecb","019ce768-b048-7627-b827-888248f65c31","","null","
                        <div style=""font-family: Arial; margin-bottom: 20px;""><h3>Which image is more valuable?</h3></div>
                        <div class=""stimulus-container"" style=""display: flex; width: 1100px; justify-content: center; gap: 50px;"">
                            <img src=""images/causal_sequence/package_causal/package_causal_4.png"" class=""exp-image"">
                            <img src=""images/causal_sequence/package_causal/package_causal_8.png"" class=""exp-image"">
                        </div>","null","","","","","","",""
"","","","","","html-button-response","153","717881","0.0-150.0-1.0","6C2F6152D39B4D5CBFF0A1F81394A800","019ce76a-ab3c-7ad8-8e40-28a1b41e4ecb","019ce768-b048-7627-b827-888248f65c31","","1257","
                        <div style=""font-family: Arial; margin-bottom: 20px;""><h3>Which image is more valuable?</h3></div>
                        <div class=""stimulus-container"" style=""display: flex; width: 1100px; justify-content: center; gap: 50px;"">
                            <img src=""images/causal_sequence/package_causal/package_causal_4.png"" class=""exp-image"">
                            <img src=""images/causal_sequence/package_causal/package_causal_8.png"" class=""exp-image"">
                        </div>","1","part3_final_choice","","package_causal","","6","8","2"
"","","","","","html-keyboard-response","154","727898","0.0-151.0-0.0","6C2F6152D39B4D5CBFF0A1F81394A800","019ce76a-ab3c-7ad8-8e40-28a1b41e4ecb","019ce768-b048-7627-b827-888248f65c31","","null","
                        <div style=""font-family: Arial; margin-bottom: 20px;""><h3>Which image is more valuable?</h3></div>
                        <div class=""stimulus-container"" style=""display: flex; width: 1100px; justify-content: center; gap: 50px;"">
                            <img src=""images/causal_sequence/coin_causal/coin_causal_6.png"" class=""exp-image"">
                            <img src=""images/causal_sequence/coin_causal/coin_causal_2.png"" class=""exp-image"">
                        </div>","null","","","","","","",""
"","","","","","html-button-response","155","729504","0.0-151.0-1.0","6C2F6152D39B4D5CBFF0A1F81394A800","019ce76a-ab3c-7ad8-8e40-28a1b41e4ecb","019ce768-b048-7627-b827-888248f65c31","","1604","
                        <div style=""font-family: Arial; margin-bottom: 20px;""><h3>Which image is more valuable?</h3></div>
                        <div class=""stimulus-container"" style=""display: flex; width: 1100px; justify-content: center; gap: 50px;"">
                            <img src=""images/causal_sequence/coin_causal/coin_causal_6.png"" class=""exp-image"">
                            <img src=""images/causal_sequence/coin_causal/coin_causal_2.png"" class=""exp-image"">
                        </div>","0","part3_final_choice","","coin_causal","","4","6","2"
"","","","","","html-keyboard-response","156","739511","0.0-152.0-0.0","6C2F6152D39B4D5CBFF0A1F81394A800","019ce76a-ab3c-7ad8-8e40-28a1b41e4ecb","019ce768-b048-7627-b827-888248f65c31","","null","
                        <div style=""font-family: Arial; margin-bottom: 20px;""><h3>Which image is more valuable?</h3></div>
                        <div class=""stimulus-container"" style=""display: flex; width: 1100px; justify-content: center; gap: 50px;"">
                            <img src=""images/causal_sequence/the_performance_causal/the_performance_causal_4.png"" class=""exp-image"">
                            <img src=""images/causal_sequence/the_performance_causal/the_performance_causal_8.png"" class=""exp-image"">
                        </div>","null","","","","","","",""
"","","","","","html-button-response","157","741024","0.0-152.0-1.0","6C2F6152D39B4D5CBFF0A1F81394A800","019ce76a-ab3c-7ad8-8e40-28a1b41e4ecb","019ce768-b048-7627-b827-888248f65c31","","1511","
                        <div style=""font-family: Arial; margin-bottom: 20px;""><h3>Which image is more valuable?</h3></div>
                        <div class=""stimulus-container"" style=""display: flex; width: 1100px; justify-content: center; gap: 50px;"">
                            <img src=""images/causal_sequence/the_performance_causal/the_performance_causal_4.png"" class=""exp-image"">
                            <img src=""images/causal_sequence/the_performance_causal/the_performance_causal_8.png"" class=""exp-image"">
                        </div>","0","part3_final_choice","","the_performance_causal","","6","4","-2"
"","","","","","html-keyboard-response","158","751031","0.0-153.0-0.0","6C2F6152D39B4D5CBFF0A1F81394A800","019ce76a-ab3c-7ad8-8e40-28a1b41e4ecb","019ce768-b048-7627-b827-888248f65c31","","null","
                        <div style=""font-family: Arial; margin-bottom: 20px;""><h3>Which image is more valuable?</h3></div>
                        <div class=""stimulus-container"" style=""display: flex; width: 1100px; justify-content: center; gap: 50px;"">
                            <img src=""images/causal_sequence/dog_causal/dog_causal_5.png"" class=""exp-image"">
                            <img src=""images/causal_sequence/dog_causal/dog_causal_9.png"" class=""exp-image"">
                        </div>","null","","","","","","",""
"","","","","","html-button-response","159","752466","0.0-153.0-1.0","6C2F6152D39B4D5CBFF0A1F81394A800","019ce76a-ab3c-7ad8-8e40-28a1b41e4ecb","019ce768-b048-7627-b827-888248f65c31","","1433","
                        <div style=""font-family: Arial; margin-bottom: 20px;""><h3>Which image is more valuable?</h3></div>
                        <div class=""stimulus-container"" style=""display: flex; width: 1100px; justify-content: center; gap: 50px;"">
                            <img src=""images/causal_sequence/dog_causal/dog_causal_5.png"" class=""exp-image"">
                            <img src=""images/causal_sequence/dog_causal/dog_causal_9.png"" class=""exp-image"">
                        </div>","1","part3_final_choice","","dog_causal","","7","9","2"
"","","","","","survey-text","160","799053","0.0-154.0","6C2F6152D39B4D5CBFF0A1F81394A800","019ce76a-ab3c-7ad8-8e40-28a1b41e4ecb","019ce768-b048-7627-b827-888248f65c31","","46575","","{""gender"":""male"",""age"":""33"",""decision_strategy"":""There was no reason to believe any image was more valuable than another so I chose randomly."",""consistency_check"":""Yes""}","demographics_and_strategy","","","","","",""
"","","","","","instructions","161","814641","0.0-155.0","6C2F6152D39B4D5CBFF0A1F81394A800","019ce76a-ab3c-7ad8-8e40-28a1b41e4ecb","019ce768-b048-7627-b827-888248f65c31","[{""page_index"":0,""viewing_time"":15587}]","15588","","","","","","","","",""
