"success","timeout","failed_images","failed_audio","failed_video","trial_type","trial_index","time_elapsed","internal_node_id","subject_id","study_id","session_id","view_history","rt","stimulus","response","task","image_index","folder","sequence_type","valuable_image_index","reward_type","chosen_image_index","correct_choice"
"true","false","[]","[]","[]","preload","0","9526","0.0-0.0","A3929828C3B24640BD190C33EED450C0","019cee71-b820-7af9-a58d-a11a258cd8ed","019cee5f-9f1f-7e58-80c1-9ba679249cc3","","","","","","","","","","","",""
"","","","","","instructions","1","27515","0.0-1.0","A3929828C3B24640BD190C33EED450C0","019cee71-b820-7af9-a58d-a11a258cd8ed","019cee5f-9f1f-7e58-80c1-9ba679249cc3","[{""page_index"":0,""viewing_time"":17991}]","17992","","","","","","","","","",""
"","","","","","instructions","2","42049","0.0-2.0","A3929828C3B24640BD190C33EED450C0","019cee71-b820-7af9-a58d-a11a258cd8ed","019cee5f-9f1f-7e58-80c1-9ba679249cc3","[{""page_index"":0,""viewing_time"":14534}]","14534","","","","","","","","","",""
"true","","","","","fullscreen","3","46844","0.0-3.0","A3929828C3B24640BD190C33EED450C0","019cee71-b820-7af9-a58d-a11a258cd8ed","019cee5f-9f1f-7e58-80c1-9ba679249cc3","","3793","","","","","","","","","",""
"","","","","","instructions","4","81219","0.0-4.0","A3929828C3B24640BD190C33EED450C0","019cee71-b820-7af9-a58d-a11a258cd8ed","019cee5f-9f1f-7e58-80c1-9ba679249cc3","[{""page_index"":0,""viewing_time"":34374}]","34374","","","","","","","","","",""
"","","","","","instructions","5","92039","0.0-5.0","A3929828C3B24640BD190C33EED450C0","019cee71-b820-7af9-a58d-a11a258cd8ed","019cee5f-9f1f-7e58-80c1-9ba679249cc3","[{""page_index"":0,""viewing_time"":10820}]","10820","","","","","","","","","",""
"","","","","","html-keyboard-response","6","96042","0.0-6.0","A3929828C3B24640BD190C33EED450C0","019cee71-b820-7af9-a58d-a11a258cd8ed","019cee5f-9f1f-7e58-80c1-9ba679249cc3","","null","
                <div class=""stimulus-container"">
                    <img src=""images/instructions/movie_1.png"" class=""exp-image"">
                    <div class=""question-area""></div> 
                </div>","null","","","","","","","",""
"","","","","","html-button-response","7","98241","0.0-7.0","A3929828C3B24640BD190C33EED450C0","019cee71-b820-7af9-a58d-a11a258cd8ed","019cee5f-9f1f-7e58-80c1-9ba679249cc3","","2197","
                <div class=""stimulus-container"">
                    <img src=""images/instructions/movie_1.png"" class=""exp-image"">
                    <div class=""question-area"">
                        <p style=""font-size: 20px; font-weight: bold; margin: 0;"">Was there a person in this image?</p>
                    </div>
                </div>","0","example_question","1","","","","","",""
"","","","","","html-keyboard-response","8","102243","0.0-8.0","A3929828C3B24640BD190C33EED450C0","019cee71-b820-7af9-a58d-a11a258cd8ed","019cee5f-9f1f-7e58-80c1-9ba679249cc3","","null","
                <div class=""stimulus-container"">
                    <img src=""images/instructions/movie_2.png"" class=""exp-image"">
                    <div class=""question-area""></div> 
                </div>","null","","","","","","","",""
"","","","","","html-button-response","9","105247","0.0-9.0","A3929828C3B24640BD190C33EED450C0","019cee71-b820-7af9-a58d-a11a258cd8ed","019cee5f-9f1f-7e58-80c1-9ba679249cc3","","null","
                <div class=""stimulus-container"">
                    <img src=""images/instructions/movie_2.png"" class=""exp-image"">
                    <div class=""question-area"">
                        <p style=""font-size: 20px; font-weight: bold; margin: 0;"">Was there a person in this image?</p>
                    </div>
                </div>","null","example_question","2","","","","","",""
"","","","","","html-keyboard-response","10","109249","0.0-10.0","A3929828C3B24640BD190C33EED450C0","019cee71-b820-7af9-a58d-a11a258cd8ed","019cee5f-9f1f-7e58-80c1-9ba679249cc3","","null","
                <div class=""stimulus-container"">
                    <img src=""images/instructions/movie_3.png"" class=""exp-image"">
                    <div class=""question-area""></div> 
                </div>","null","","","","","","","",""
"","","","","","html-button-response","11","110106","0.0-11.0","A3929828C3B24640BD190C33EED450C0","019cee71-b820-7af9-a58d-a11a258cd8ed","019cee5f-9f1f-7e58-80c1-9ba679249cc3","","856","
                <div class=""stimulus-container"">
                    <img src=""images/instructions/movie_3.png"" class=""exp-image"">
                    <div class=""question-area"">
                        <p style=""font-size: 20px; font-weight: bold; margin: 0;"">Was there a person in this image?</p>
                    </div>
                </div>","0","example_question","3","","","","","",""
"","","","","","html-keyboard-response","12","114108","0.0-12.0","A3929828C3B24640BD190C33EED450C0","019cee71-b820-7af9-a58d-a11a258cd8ed","019cee5f-9f1f-7e58-80c1-9ba679249cc3","","null","
                <div class=""stimulus-container"">
                    <img src=""images/instructions/movie_4.png"" class=""exp-image"">
                    <div class=""question-area""></div> 
                </div>","null","","","","","","","",""
"","","","","","html-button-response","13","114666","0.0-13.0","A3929828C3B24640BD190C33EED450C0","019cee71-b820-7af9-a58d-a11a258cd8ed","019cee5f-9f1f-7e58-80c1-9ba679249cc3","","557","
                <div class=""stimulus-container"">
                    <img src=""images/instructions/movie_4.png"" class=""exp-image"">
                    <div class=""question-area"">
                        <p style=""font-size: 20px; font-weight: bold; margin: 0;"">Was there a person in this image?</p>
                    </div>
                </div>","0","example_question","4","","","","","",""
"","","","","","instructions","14","116458","0.0-14.0","A3929828C3B24640BD190C33EED450C0","019cee71-b820-7af9-a58d-a11a258cd8ed","019cee5f-9f1f-7e58-80c1-9ba679249cc3","[{""page_index"":0,""viewing_time"":1791}]","1792","","","","","","","","","",""
"","","","","","instructions","15","135048","0.0-15.0","A3929828C3B24640BD190C33EED450C0","019cee71-b820-7af9-a58d-a11a258cd8ed","019cee5f-9f1f-7e58-80c1-9ba679249cc3","[{""page_index"":0,""viewing_time"":18590}]","18590","","","","","","","","","",""
"","","","","","html-keyboard-response","16","136050","0.0-16.0","A3929828C3B24640BD190C33EED450C0","019cee71-b820-7af9-a58d-a11a258cd8ed","019cee5f-9f1f-7e58-80c1-9ba679249cc3","","null","<div style=""background-color: white; width: 100vw; height: 100vh;""></div>","null","","","","","","","",""
"","","","","","html-keyboard-response","17","141052","0.0-17.0","A3929828C3B24640BD190C33EED450C0","019cee71-b820-7af9-a58d-a11a258cd8ed","019cee5f-9f1f-7e58-80c1-9ba679249cc3","","null","
                <div class=""stimulus-container"">
                    <img src=""images/causal_sequence/museum_causal/museum_causal_1.png"" class=""exp-image"">
                    <div class=""question-area""></div> 
                </div>","null","","","","","","","",""
"","","","","","html-button-response","18","141875","0.0-18.0","A3929828C3B24640BD190C33EED450C0","019cee71-b820-7af9-a58d-a11a258cd8ed","019cee5f-9f1f-7e58-80c1-9ba679249cc3","","821","
                <div class=""stimulus-container"">
                    <img src=""images/causal_sequence/museum_causal/museum_causal_1.png"" class=""exp-image"">
                    <div class=""question-area"">
                        <p style=""font-size: 20px; font-weight: bold; margin: 0;"">Is there a person in this image?</p>
                    </div>
                </div>","0","main_experiment_trial","1","museum_causal","causal_sequence","","","",""
"","","","","","html-keyboard-response","19","146877","0.0-19.0","A3929828C3B24640BD190C33EED450C0","019cee71-b820-7af9-a58d-a11a258cd8ed","019cee5f-9f1f-7e58-80c1-9ba679249cc3","","null","
                <div class=""stimulus-container"">
                    <img src=""images/causal_sequence/museum_causal/museum_causal_2.png"" class=""exp-image"">
                    <div class=""question-area""></div> 
                </div>","null","","","","","","","",""
"","","","","","html-button-response","20","147363","0.0-20.0","A3929828C3B24640BD190C33EED450C0","019cee71-b820-7af9-a58d-a11a258cd8ed","019cee5f-9f1f-7e58-80c1-9ba679249cc3","","484","
                <div class=""stimulus-container"">
                    <img src=""images/causal_sequence/museum_causal/museum_causal_2.png"" class=""exp-image"">
                    <div class=""question-area"">
                        <p style=""font-size: 20px; font-weight: bold; margin: 0;"">Is there a person in this image?</p>
                    </div>
                </div>","0","main_experiment_trial","2","museum_causal","causal_sequence","","","",""
"","","","","","html-keyboard-response","21","152365","0.0-21.0","A3929828C3B24640BD190C33EED450C0","019cee71-b820-7af9-a58d-a11a258cd8ed","019cee5f-9f1f-7e58-80c1-9ba679249cc3","","null","
                <div class=""stimulus-container"">
                    <img src=""images/causal_sequence/museum_causal/museum_causal_3.png"" class=""exp-image"">
                    <div class=""question-area""></div> 
                </div>","null","","","","","","","",""
"","","","","","html-button-response","22","152848","0.0-22.0","A3929828C3B24640BD190C33EED450C0","019cee71-b820-7af9-a58d-a11a258cd8ed","019cee5f-9f1f-7e58-80c1-9ba679249cc3","","482","
                <div class=""stimulus-container"">
                    <img src=""images/causal_sequence/museum_causal/museum_causal_3.png"" class=""exp-image"">
                    <div class=""question-area"">
                        <p style=""font-size: 20px; font-weight: bold; margin: 0;"">Is there a person in this image?</p>
                    </div>
                </div>","0","main_experiment_trial","3","museum_causal","causal_sequence","","","",""
"","","","","","html-keyboard-response","23","157850","0.0-23.0","A3929828C3B24640BD190C33EED450C0","019cee71-b820-7af9-a58d-a11a258cd8ed","019cee5f-9f1f-7e58-80c1-9ba679249cc3","","null","
                <div class=""stimulus-container"">
                    <img src=""images/causal_sequence/museum_causal/museum_causal_4.png"" class=""exp-image"">
                    <div class=""question-area""></div> 
                </div>","null","","","","","","","",""
"","","","","","html-button-response","24","158534","0.0-24.0","A3929828C3B24640BD190C33EED450C0","019cee71-b820-7af9-a58d-a11a258cd8ed","019cee5f-9f1f-7e58-80c1-9ba679249cc3","","681","
                <div class=""stimulus-container"">
                    <img src=""images/causal_sequence/museum_causal/museum_causal_4.png"" class=""exp-image"">
                    <div class=""question-area"">
                        <p style=""font-size: 20px; font-weight: bold; margin: 0;"">Is there a person in this image?</p>
                    </div>
                </div>","1","main_experiment_trial","4","museum_causal","causal_sequence","","","",""
"","","","","","html-keyboard-response","25","163536","0.0-25.0","A3929828C3B24640BD190C33EED450C0","019cee71-b820-7af9-a58d-a11a258cd8ed","019cee5f-9f1f-7e58-80c1-9ba679249cc3","","null","
                <div class=""stimulus-container"">
                    <img src=""images/causal_sequence/museum_causal/museum_causal_5.png"" class=""exp-image"">
                    <div class=""question-area""></div> 
                </div>","null","","","","","","","",""
"","","","","","html-button-response","26","164109","0.0-26.0","A3929828C3B24640BD190C33EED450C0","019cee71-b820-7af9-a58d-a11a258cd8ed","019cee5f-9f1f-7e58-80c1-9ba679249cc3","","571","
                <div class=""stimulus-container"">
                    <img src=""images/causal_sequence/museum_causal/museum_causal_5.png"" class=""exp-image"">
                    <div class=""question-area"">
                        <p style=""font-size: 20px; font-weight: bold; margin: 0;"">Is there a person in this image?</p>
                    </div>
                </div>","0","main_experiment_trial","5","museum_causal","causal_sequence","","","",""
"","","","","","html-keyboard-response","27","169111","0.0-27.0","A3929828C3B24640BD190C33EED450C0","019cee71-b820-7af9-a58d-a11a258cd8ed","019cee5f-9f1f-7e58-80c1-9ba679249cc3","","null","
                <div class=""stimulus-container"">
                    <img src=""images/causal_sequence/museum_causal/museum_causal_6.png"" class=""exp-image"">
                    <div class=""question-area""></div> 
                </div>","null","","","","","","","",""
"","","","","","html-button-response","28","169675","0.0-28.0","A3929828C3B24640BD190C33EED450C0","019cee71-b820-7af9-a58d-a11a258cd8ed","019cee5f-9f1f-7e58-80c1-9ba679249cc3","","563","
                <div class=""stimulus-container"">
                    <img src=""images/causal_sequence/museum_causal/museum_causal_6.png"" class=""exp-image"">
                    <div class=""question-area"">
                        <p style=""font-size: 20px; font-weight: bold; margin: 0;"">Is there a person in this image?</p>
                    </div>
                </div>","0","main_experiment_trial","6","museum_causal","causal_sequence","","","",""
"","","","","","html-keyboard-response","29","174677","0.0-29.0","A3929828C3B24640BD190C33EED450C0","019cee71-b820-7af9-a58d-a11a258cd8ed","019cee5f-9f1f-7e58-80c1-9ba679249cc3","","null","
                <div class=""stimulus-container"">
                    <img src=""images/causal_sequence/museum_causal/museum_causal_7.png"" class=""exp-image"">
                    <div class=""question-area""></div> 
                </div>","null","","","","","","","",""
"","","","","","html-button-response","30","175733","0.0-30.0","A3929828C3B24640BD190C33EED450C0","019cee71-b820-7af9-a58d-a11a258cd8ed","019cee5f-9f1f-7e58-80c1-9ba679249cc3","","1055","
                <div class=""stimulus-container"">
                    <img src=""images/causal_sequence/museum_causal/museum_causal_7.png"" class=""exp-image"">
                    <div class=""question-area"">
                        <p style=""font-size: 20px; font-weight: bold; margin: 0;"">Is there a person in this image?</p>
                    </div>
                </div>","1","main_experiment_trial","7","museum_causal","causal_sequence","","","",""
"","","","","","html-keyboard-response","31","180736","0.0-31.0","A3929828C3B24640BD190C33EED450C0","019cee71-b820-7af9-a58d-a11a258cd8ed","019cee5f-9f1f-7e58-80c1-9ba679249cc3","","null","
                <div class=""stimulus-container"">
                    <img src=""images/causal_sequence/museum_causal/museum_causal_8.png"" class=""exp-image"">
                    <div class=""question-area""></div> 
                </div>","null","","","","","","","",""
"","","","","","html-button-response","32","181542","0.0-32.0","A3929828C3B24640BD190C33EED450C0","019cee71-b820-7af9-a58d-a11a258cd8ed","019cee5f-9f1f-7e58-80c1-9ba679249cc3","","804","
                <div class=""stimulus-container"">
                    <img src=""images/causal_sequence/museum_causal/museum_causal_8.png"" class=""exp-image"">
                    <div class=""question-area"">
                        <p style=""font-size: 20px; font-weight: bold; margin: 0;"">Is there a person in this image?</p>
                    </div>
                </div>","0","main_experiment_trial","8","museum_causal","causal_sequence","","","",""
"","","","","","html-keyboard-response","33","186544","0.0-33.0","A3929828C3B24640BD190C33EED450C0","019cee71-b820-7af9-a58d-a11a258cd8ed","019cee5f-9f1f-7e58-80c1-9ba679249cc3","","null","
                <div class=""stimulus-container"">
                    <img src=""images/causal_sequence/museum_causal/museum_causal_9.png"" class=""exp-image"">
                    <div class=""question-area""></div> 
                </div>","null","","","","","","","",""
"","","","","","html-button-response","34","187174","0.0-34.0","A3929828C3B24640BD190C33EED450C0","019cee71-b820-7af9-a58d-a11a258cd8ed","019cee5f-9f1f-7e58-80c1-9ba679249cc3","","628","
                <div class=""stimulus-container"">
                    <img src=""images/causal_sequence/museum_causal/museum_causal_9.png"" class=""exp-image"">
                    <div class=""question-area"">
                        <p style=""font-size: 20px; font-weight: bold; margin: 0;"">Is there a person in this image?</p>
                    </div>
                </div>","1","main_experiment_trial","9","museum_causal","causal_sequence","","","",""
"","","","","","html-keyboard-response","35","192177","0.0-35.0","A3929828C3B24640BD190C33EED450C0","019cee71-b820-7af9-a58d-a11a258cd8ed","019cee5f-9f1f-7e58-80c1-9ba679249cc3","","null","
                <div class=""stimulus-container"">
                    <img src=""images/causal_sequence/museum_causal/museum_causal_ten.png"" class=""exp-image"">
                    <div class=""question-area""></div> 
                </div>","null","","","","","","","",""
"","","","","","html-button-response","36","193063","0.0-36.0","A3929828C3B24640BD190C33EED450C0","019cee71-b820-7af9-a58d-a11a258cd8ed","019cee5f-9f1f-7e58-80c1-9ba679249cc3","","885","
                <div class=""stimulus-container"">
                    <img src=""images/causal_sequence/museum_causal/museum_causal_ten.png"" class=""exp-image"">
                    <div class=""question-area"">
                        <p style=""font-size: 20px; font-weight: bold; margin: 0;"">Is there a person in this image?</p>
                    </div>
                </div>","0","main_experiment_trial","ten","museum_causal","causal_sequence","","","",""
"","","","","","html-keyboard-response","37","194065","0.0-37.0","A3929828C3B24640BD190C33EED450C0","019cee71-b820-7af9-a58d-a11a258cd8ed","019cee5f-9f1f-7e58-80c1-9ba679249cc3","","null","<div style=""background-color: white; width: 100vw; height: 100vh;""></div>","null","","","","","","","",""
"","","","","","html-keyboard-response","38","199068","0.0-38.0","A3929828C3B24640BD190C33EED450C0","019cee71-b820-7af9-a58d-a11a258cd8ed","019cee5f-9f1f-7e58-80c1-9ba679249cc3","","null","
                <div class=""stimulus-container"">
                    <img src=""images/schematic_sequence/hotel_scheme/hotel_scheme_1.png"" class=""exp-image"">
                    <div class=""question-area""></div> 
                </div>","null","","","","","","","",""
"","","","","","html-button-response","39","200055","0.0-39.0","A3929828C3B24640BD190C33EED450C0","019cee71-b820-7af9-a58d-a11a258cd8ed","019cee5f-9f1f-7e58-80c1-9ba679249cc3","","986","
                <div class=""stimulus-container"">
                    <img src=""images/schematic_sequence/hotel_scheme/hotel_scheme_1.png"" class=""exp-image"">
                    <div class=""question-area"">
                        <p style=""font-size: 20px; font-weight: bold; margin: 0;"">Is there a person in this image?</p>
                    </div>
                </div>","1","main_experiment_trial","1","hotel_scheme","schematic_sequence","","","",""
"","","","","","html-keyboard-response","40","205057","0.0-40.0","A3929828C3B24640BD190C33EED450C0","019cee71-b820-7af9-a58d-a11a258cd8ed","019cee5f-9f1f-7e58-80c1-9ba679249cc3","","null","
                <div class=""stimulus-container"">
                    <img src=""images/schematic_sequence/hotel_scheme/hotel_scheme_2.png"" class=""exp-image"">
                    <div class=""question-area""></div> 
                </div>","null","","","","","","","",""
"","","","","","html-button-response","41","205943","0.0-41.0","A3929828C3B24640BD190C33EED450C0","019cee71-b820-7af9-a58d-a11a258cd8ed","019cee5f-9f1f-7e58-80c1-9ba679249cc3","","884","
                <div class=""stimulus-container"">
                    <img src=""images/schematic_sequence/hotel_scheme/hotel_scheme_2.png"" class=""exp-image"">
                    <div class=""question-area"">
                        <p style=""font-size: 20px; font-weight: bold; margin: 0;"">Is there a person in this image?</p>
                    </div>
                </div>","0","main_experiment_trial","2","hotel_scheme","schematic_sequence","","","",""
"","","","","","html-keyboard-response","42","210946","0.0-42.0","A3929828C3B24640BD190C33EED450C0","019cee71-b820-7af9-a58d-a11a258cd8ed","019cee5f-9f1f-7e58-80c1-9ba679249cc3","","null","
                <div class=""stimulus-container"">
                    <img src=""images/schematic_sequence/hotel_scheme/hotel_scheme_3.png"" class=""exp-image"">
                    <div class=""question-area""></div> 
                </div>","null","","","","","","","",""
"","","","","","html-button-response","43","211401","0.0-43.0","A3929828C3B24640BD190C33EED450C0","019cee71-b820-7af9-a58d-a11a258cd8ed","019cee5f-9f1f-7e58-80c1-9ba679249cc3","","454","
                <div class=""stimulus-container"">
                    <img src=""images/schematic_sequence/hotel_scheme/hotel_scheme_3.png"" class=""exp-image"">
                    <div class=""question-area"">
                        <p style=""font-size: 20px; font-weight: bold; margin: 0;"">Is there a person in this image?</p>
                    </div>
                </div>","0","main_experiment_trial","3","hotel_scheme","schematic_sequence","","","",""
"","","","","","html-keyboard-response","44","216403","0.0-44.0","A3929828C3B24640BD190C33EED450C0","019cee71-b820-7af9-a58d-a11a258cd8ed","019cee5f-9f1f-7e58-80c1-9ba679249cc3","","null","
                <div class=""stimulus-container"">
                    <img src=""images/schematic_sequence/hotel_scheme/hotel_scheme_4.png"" class=""exp-image"">
                    <div class=""question-area""></div> 
                </div>","null","","","","","","","",""
"","","","","","html-button-response","45","218199","0.0-45.0","A3929828C3B24640BD190C33EED450C0","019cee71-b820-7af9-a58d-a11a258cd8ed","019cee5f-9f1f-7e58-80c1-9ba679249cc3","","1794","
                <div class=""stimulus-container"">
                    <img src=""images/schematic_sequence/hotel_scheme/hotel_scheme_4.png"" class=""exp-image"">
                    <div class=""question-area"">
                        <p style=""font-size: 20px; font-weight: bold; margin: 0;"">Is there a person in this image?</p>
                    </div>
                </div>","1","main_experiment_trial","4","hotel_scheme","schematic_sequence","","","",""
"","","","","","html-keyboard-response","46","223200","0.0-46.0","A3929828C3B24640BD190C33EED450C0","019cee71-b820-7af9-a58d-a11a258cd8ed","019cee5f-9f1f-7e58-80c1-9ba679249cc3","","null","
                <div class=""stimulus-container"">
                    <img src=""images/schematic_sequence/hotel_scheme/hotel_scheme_5.png"" class=""exp-image"">
                    <div class=""question-area""></div> 
                </div>","null","","","","","","","",""
"","","","","","html-button-response","47","224166","0.0-47.0","A3929828C3B24640BD190C33EED450C0","019cee71-b820-7af9-a58d-a11a258cd8ed","019cee5f-9f1f-7e58-80c1-9ba679249cc3","","966","
                <div class=""stimulus-container"">
                    <img src=""images/schematic_sequence/hotel_scheme/hotel_scheme_5.png"" class=""exp-image"">
                    <div class=""question-area"">
                        <p style=""font-size: 20px; font-weight: bold; margin: 0;"">Is there a person in this image?</p>
                    </div>
                </div>","0","main_experiment_trial","5","hotel_scheme","schematic_sequence","","","",""
"","","","","","html-keyboard-response","48","229168","0.0-48.0","A3929828C3B24640BD190C33EED450C0","019cee71-b820-7af9-a58d-a11a258cd8ed","019cee5f-9f1f-7e58-80c1-9ba679249cc3","","null","
                <div class=""stimulus-container"">
                    <img src=""images/schematic_sequence/hotel_scheme/hotel_scheme_6.png"" class=""exp-image"">
                    <div class=""question-area""></div> 
                </div>","null","","","","","","","",""
"","","","","","html-button-response","49","230189","0.0-49.0","A3929828C3B24640BD190C33EED450C0","019cee71-b820-7af9-a58d-a11a258cd8ed","019cee5f-9f1f-7e58-80c1-9ba679249cc3","","1020","
                <div class=""stimulus-container"">
                    <img src=""images/schematic_sequence/hotel_scheme/hotel_scheme_6.png"" class=""exp-image"">
                    <div class=""question-area"">
                        <p style=""font-size: 20px; font-weight: bold; margin: 0;"">Is there a person in this image?</p>
                    </div>
                </div>","0","main_experiment_trial","6","hotel_scheme","schematic_sequence","","","",""
"","","","","","html-keyboard-response","50","235192","0.0-50.0","A3929828C3B24640BD190C33EED450C0","019cee71-b820-7af9-a58d-a11a258cd8ed","019cee5f-9f1f-7e58-80c1-9ba679249cc3","","null","
                <div class=""stimulus-container"">
                    <img src=""images/schematic_sequence/hotel_scheme/hotel_scheme_7.png"" class=""exp-image"">
                    <div class=""question-area""></div> 
                </div>","null","","","","","","","",""
"","","","","","html-button-response","51","236391","0.0-51.0","A3929828C3B24640BD190C33EED450C0","019cee71-b820-7af9-a58d-a11a258cd8ed","019cee5f-9f1f-7e58-80c1-9ba679249cc3","","1198","
                <div class=""stimulus-container"">
                    <img src=""images/schematic_sequence/hotel_scheme/hotel_scheme_7.png"" class=""exp-image"">
                    <div class=""question-area"">
                        <p style=""font-size: 20px; font-weight: bold; margin: 0;"">Is there a person in this image?</p>
                    </div>
                </div>","0","main_experiment_trial","7","hotel_scheme","schematic_sequence","","","",""
"","","","","","html-keyboard-response","52","241393","0.0-52.0","A3929828C3B24640BD190C33EED450C0","019cee71-b820-7af9-a58d-a11a258cd8ed","019cee5f-9f1f-7e58-80c1-9ba679249cc3","","null","
                <div class=""stimulus-container"">
                    <img src=""images/schematic_sequence/hotel_scheme/hotel_scheme_8.png"" class=""exp-image"">
                    <div class=""question-area""></div> 
                </div>","null","","","","","","","",""
"","","","","","html-button-response","53","242617","0.0-53.0","A3929828C3B24640BD190C33EED450C0","019cee71-b820-7af9-a58d-a11a258cd8ed","019cee5f-9f1f-7e58-80c1-9ba679249cc3","","1223","
                <div class=""stimulus-container"">
                    <img src=""images/schematic_sequence/hotel_scheme/hotel_scheme_8.png"" class=""exp-image"">
                    <div class=""question-area"">
                        <p style=""font-size: 20px; font-weight: bold; margin: 0;"">Is there a person in this image?</p>
                    </div>
                </div>","0","main_experiment_trial","8","hotel_scheme","schematic_sequence","","","",""
"","","","","","html-keyboard-response","54","247619","0.0-54.0","A3929828C3B24640BD190C33EED450C0","019cee71-b820-7af9-a58d-a11a258cd8ed","019cee5f-9f1f-7e58-80c1-9ba679249cc3","","null","
                <div class=""stimulus-container"">
                    <img src=""images/schematic_sequence/hotel_scheme/hotel_scheme_9.png"" class=""exp-image"">
                    <div class=""question-area""></div> 
                </div>","null","","","","","","","",""
"","","","","","html-button-response","55","248233","0.0-55.0","A3929828C3B24640BD190C33EED450C0","019cee71-b820-7af9-a58d-a11a258cd8ed","019cee5f-9f1f-7e58-80c1-9ba679249cc3","","612","
                <div class=""stimulus-container"">
                    <img src=""images/schematic_sequence/hotel_scheme/hotel_scheme_9.png"" class=""exp-image"">
                    <div class=""question-area"">
                        <p style=""font-size: 20px; font-weight: bold; margin: 0;"">Is there a person in this image?</p>
                    </div>
                </div>","0","main_experiment_trial","9","hotel_scheme","schematic_sequence","","","",""
"","","","","","html-keyboard-response","56","253236","0.0-56.0","A3929828C3B24640BD190C33EED450C0","019cee71-b820-7af9-a58d-a11a258cd8ed","019cee5f-9f1f-7e58-80c1-9ba679249cc3","","null","
                <div class=""stimulus-container"">
                    <img src=""images/schematic_sequence/hotel_scheme/hotel_scheme_ten.png"" class=""exp-image"">
                    <div class=""question-area""></div> 
                </div>","null","","","","","","","",""
"","","","","","html-button-response","57","255150","0.0-57.0","A3929828C3B24640BD190C33EED450C0","019cee71-b820-7af9-a58d-a11a258cd8ed","019cee5f-9f1f-7e58-80c1-9ba679249cc3","","1913","
                <div class=""stimulus-container"">
                    <img src=""images/schematic_sequence/hotel_scheme/hotel_scheme_ten.png"" class=""exp-image"">
                    <div class=""question-area"">
                        <p style=""font-size: 20px; font-weight: bold; margin: 0;"">Is there a person in this image?</p>
                    </div>
                </div>","0","main_experiment_trial","ten","hotel_scheme","schematic_sequence","","","",""
"","","","","","html-keyboard-response","58","256152","0.0-58.0","A3929828C3B24640BD190C33EED450C0","019cee71-b820-7af9-a58d-a11a258cd8ed","019cee5f-9f1f-7e58-80c1-9ba679249cc3","","null","<div style=""background-color: white; width: 100vw; height: 100vh;""></div>","null","","","","","","","",""
"","","","","","html-keyboard-response","59","261155","0.0-59.0","A3929828C3B24640BD190C33EED450C0","019cee71-b820-7af9-a58d-a11a258cd8ed","019cee5f-9f1f-7e58-80c1-9ba679249cc3","","null","
                <div class=""stimulus-container"">
                    <img src=""images/causal_sequence/dog_causal/dog_causal_1.png"" class=""exp-image"">
                    <div class=""question-area""></div> 
                </div>","null","","","","","","","",""
"","","","","","html-button-response","60","261765","0.0-60.0","A3929828C3B24640BD190C33EED450C0","019cee71-b820-7af9-a58d-a11a258cd8ed","019cee5f-9f1f-7e58-80c1-9ba679249cc3","","608","
                <div class=""stimulus-container"">
                    <img src=""images/causal_sequence/dog_causal/dog_causal_1.png"" class=""exp-image"">
                    <div class=""question-area"">
                        <p style=""font-size: 20px; font-weight: bold; margin: 0;"">Is there a person in this image?</p>
                    </div>
                </div>","0","main_experiment_trial","1","dog_causal","causal_sequence","","","",""
"","","","","","html-keyboard-response","61","266767","0.0-61.0","A3929828C3B24640BD190C33EED450C0","019cee71-b820-7af9-a58d-a11a258cd8ed","019cee5f-9f1f-7e58-80c1-9ba679249cc3","","null","
                <div class=""stimulus-container"">
                    <img src=""images/causal_sequence/dog_causal/dog_causal_2.png"" class=""exp-image"">
                    <div class=""question-area""></div> 
                </div>","null","","","","","","","",""
"","","","","","html-button-response","62","267434","0.0-62.0","A3929828C3B24640BD190C33EED450C0","019cee71-b820-7af9-a58d-a11a258cd8ed","019cee5f-9f1f-7e58-80c1-9ba679249cc3","","665","
                <div class=""stimulus-container"">
                    <img src=""images/causal_sequence/dog_causal/dog_causal_2.png"" class=""exp-image"">
                    <div class=""question-area"">
                        <p style=""font-size: 20px; font-weight: bold; margin: 0;"">Is there a person in this image?</p>
                    </div>
                </div>","0","main_experiment_trial","2","dog_causal","causal_sequence","","","",""
"","","","","","html-keyboard-response","63","272436","0.0-63.0","A3929828C3B24640BD190C33EED450C0","019cee71-b820-7af9-a58d-a11a258cd8ed","019cee5f-9f1f-7e58-80c1-9ba679249cc3","","null","
                <div class=""stimulus-container"">
                    <img src=""images/causal_sequence/dog_causal/dog_causal_3.png"" class=""exp-image"">
                    <div class=""question-area""></div> 
                </div>","null","","","","","","","",""
"","","","","","html-button-response","64","274094","0.0-64.0","A3929828C3B24640BD190C33EED450C0","019cee71-b820-7af9-a58d-a11a258cd8ed","019cee5f-9f1f-7e58-80c1-9ba679249cc3","","1657","
                <div class=""stimulus-container"">
                    <img src=""images/causal_sequence/dog_causal/dog_causal_3.png"" class=""exp-image"">
                    <div class=""question-area"">
                        <p style=""font-size: 20px; font-weight: bold; margin: 0;"">Is there a person in this image?</p>
                    </div>
                </div>","0","main_experiment_trial","3","dog_causal","causal_sequence","","","",""
"","","","","","html-keyboard-response","65","279097","0.0-65.0","A3929828C3B24640BD190C33EED450C0","019cee71-b820-7af9-a58d-a11a258cd8ed","019cee5f-9f1f-7e58-80c1-9ba679249cc3","","null","
                <div class=""stimulus-container"">
                    <img src=""images/causal_sequence/dog_causal/dog_causal_4.png"" class=""exp-image"">
                    <div class=""question-area""></div> 
                </div>","null","","","","","","","",""
"","","","","","html-button-response","66","279807","0.0-66.0","A3929828C3B24640BD190C33EED450C0","019cee71-b820-7af9-a58d-a11a258cd8ed","019cee5f-9f1f-7e58-80c1-9ba679249cc3","","709","
                <div class=""stimulus-container"">
                    <img src=""images/causal_sequence/dog_causal/dog_causal_4.png"" class=""exp-image"">
                    <div class=""question-area"">
                        <p style=""font-size: 20px; font-weight: bold; margin: 0;"">Is there a person in this image?</p>
                    </div>
                </div>","0","main_experiment_trial","4","dog_causal","causal_sequence","","","",""
"","","","","","html-keyboard-response","67","284809","0.0-67.0","A3929828C3B24640BD190C33EED450C0","019cee71-b820-7af9-a58d-a11a258cd8ed","019cee5f-9f1f-7e58-80c1-9ba679249cc3","","null","
                <div class=""stimulus-container"">
                    <img src=""images/causal_sequence/dog_causal/dog_causal_5.png"" class=""exp-image"">
                    <div class=""question-area""></div> 
                </div>","null","","","","","","","",""
"","","","","","html-button-response","68","285592","0.0-68.0","A3929828C3B24640BD190C33EED450C0","019cee71-b820-7af9-a58d-a11a258cd8ed","019cee5f-9f1f-7e58-80c1-9ba679249cc3","","781","
                <div class=""stimulus-container"">
                    <img src=""images/causal_sequence/dog_causal/dog_causal_5.png"" class=""exp-image"">
                    <div class=""question-area"">
                        <p style=""font-size: 20px; font-weight: bold; margin: 0;"">Is there a person in this image?</p>
                    </div>
                </div>","0","main_experiment_trial","5","dog_causal","causal_sequence","","","",""
"","","","","","html-keyboard-response","69","290594","0.0-69.0","A3929828C3B24640BD190C33EED450C0","019cee71-b820-7af9-a58d-a11a258cd8ed","019cee5f-9f1f-7e58-80c1-9ba679249cc3","","null","
                <div class=""stimulus-container"">
                    <img src=""images/causal_sequence/dog_causal/dog_causal_6.png"" class=""exp-image"">
                    <div class=""question-area""></div> 
                </div>","null","","","","","","","",""
"","","","","","html-button-response","70","291325","0.0-70.0","A3929828C3B24640BD190C33EED450C0","019cee71-b820-7af9-a58d-a11a258cd8ed","019cee5f-9f1f-7e58-80c1-9ba679249cc3","","730","
                <div class=""stimulus-container"">
                    <img src=""images/causal_sequence/dog_causal/dog_causal_6.png"" class=""exp-image"">
                    <div class=""question-area"">
                        <p style=""font-size: 20px; font-weight: bold; margin: 0;"">Is there a person in this image?</p>
                    </div>
                </div>","0","main_experiment_trial","6","dog_causal","causal_sequence","","","",""
"","","","","","html-keyboard-response","71","296327","0.0-71.0","A3929828C3B24640BD190C33EED450C0","019cee71-b820-7af9-a58d-a11a258cd8ed","019cee5f-9f1f-7e58-80c1-9ba679249cc3","","null","
                <div class=""stimulus-container"">
                    <img src=""images/causal_sequence/dog_causal/dog_causal_7.png"" class=""exp-image"">
                    <div class=""question-area""></div> 
                </div>","null","","","","","","","",""
"","","","","","html-button-response","72","296812","0.0-72.0","A3929828C3B24640BD190C33EED450C0","019cee71-b820-7af9-a58d-a11a258cd8ed","019cee5f-9f1f-7e58-80c1-9ba679249cc3","","484","
                <div class=""stimulus-container"">
                    <img src=""images/causal_sequence/dog_causal/dog_causal_7.png"" class=""exp-image"">
                    <div class=""question-area"">
                        <p style=""font-size: 20px; font-weight: bold; margin: 0;"">Is there a person in this image?</p>
                    </div>
                </div>","0","main_experiment_trial","7","dog_causal","causal_sequence","","","",""
"","","","","","html-keyboard-response","73","301814","0.0-73.0","A3929828C3B24640BD190C33EED450C0","019cee71-b820-7af9-a58d-a11a258cd8ed","019cee5f-9f1f-7e58-80c1-9ba679249cc3","","null","
                <div class=""stimulus-container"">
                    <img src=""images/causal_sequence/dog_causal/dog_causal_8.png"" class=""exp-image"">
                    <div class=""question-area""></div> 
                </div>","null","","","","","","","",""
"","","","","","html-button-response","74","302628","0.0-74.0","A3929828C3B24640BD190C33EED450C0","019cee71-b820-7af9-a58d-a11a258cd8ed","019cee5f-9f1f-7e58-80c1-9ba679249cc3","","813","
                <div class=""stimulus-container"">
                    <img src=""images/causal_sequence/dog_causal/dog_causal_8.png"" class=""exp-image"">
                    <div class=""question-area"">
                        <p style=""font-size: 20px; font-weight: bold; margin: 0;"">Is there a person in this image?</p>
                    </div>
                </div>","0","main_experiment_trial","8","dog_causal","causal_sequence","","","",""
"","","","","","html-keyboard-response","75","307630","0.0-75.0","A3929828C3B24640BD190C33EED450C0","019cee71-b820-7af9-a58d-a11a258cd8ed","019cee5f-9f1f-7e58-80c1-9ba679249cc3","","null","
                <div class=""stimulus-container"">
                    <img src=""images/causal_sequence/dog_causal/dog_causal_9.png"" class=""exp-image"">
                    <div class=""question-area""></div> 
                </div>","null","","","","","","","",""
"","","","","","html-button-response","76","308859","0.0-76.0","A3929828C3B24640BD190C33EED450C0","019cee71-b820-7af9-a58d-a11a258cd8ed","019cee5f-9f1f-7e58-80c1-9ba679249cc3","","1227","
                <div class=""stimulus-container"">
                    <img src=""images/causal_sequence/dog_causal/dog_causal_9.png"" class=""exp-image"">
                    <div class=""question-area"">
                        <p style=""font-size: 20px; font-weight: bold; margin: 0;"">Is there a person in this image?</p>
                    </div>
                </div>","0","main_experiment_trial","9","dog_causal","causal_sequence","","","",""
"","","","","","html-keyboard-response","77","313861","0.0-77.0","A3929828C3B24640BD190C33EED450C0","019cee71-b820-7af9-a58d-a11a258cd8ed","019cee5f-9f1f-7e58-80c1-9ba679249cc3","","null","
                <div class=""stimulus-container"">
                    <img src=""images/causal_sequence/dog_causal/dog_causal_ten.png"" class=""exp-image"">
                    <div class=""question-area""></div> 
                </div>","null","","","","","","","",""
"","","","","","html-button-response","78","314478","0.0-78.0","A3929828C3B24640BD190C33EED450C0","019cee71-b820-7af9-a58d-a11a258cd8ed","019cee5f-9f1f-7e58-80c1-9ba679249cc3","","616","
                <div class=""stimulus-container"">
                    <img src=""images/causal_sequence/dog_causal/dog_causal_ten.png"" class=""exp-image"">
                    <div class=""question-area"">
                        <p style=""font-size: 20px; font-weight: bold; margin: 0;"">Is there a person in this image?</p>
                    </div>
                </div>","0","main_experiment_trial","ten","dog_causal","causal_sequence","","","",""
"","","","","","html-keyboard-response","79","315480","0.0-79.0","A3929828C3B24640BD190C33EED450C0","019cee71-b820-7af9-a58d-a11a258cd8ed","019cee5f-9f1f-7e58-80c1-9ba679249cc3","","null","<div style=""background-color: white; width: 100vw; height: 100vh;""></div>","null","","","","","","","",""
"","","","","","html-keyboard-response","80","320483","0.0-80.0","A3929828C3B24640BD190C33EED450C0","019cee71-b820-7af9-a58d-a11a258cd8ed","019cee5f-9f1f-7e58-80c1-9ba679249cc3","","null","
                <div class=""stimulus-container"">
                    <img src=""images/schematic_sequence/interview_scheme/interview_scheme_1.png"" class=""exp-image"">
                    <div class=""question-area""></div> 
                </div>","null","","","","","","","",""
"","","","","","html-button-response","81","321333","0.0-81.0","A3929828C3B24640BD190C33EED450C0","019cee71-b820-7af9-a58d-a11a258cd8ed","019cee5f-9f1f-7e58-80c1-9ba679249cc3","","849","
                <div class=""stimulus-container"">
                    <img src=""images/schematic_sequence/interview_scheme/interview_scheme_1.png"" class=""exp-image"">
                    <div class=""question-area"">
                        <p style=""font-size: 20px; font-weight: bold; margin: 0;"">Is there a person in this image?</p>
                    </div>
                </div>","1","main_experiment_trial","1","interview_scheme","schematic_sequence","","","",""
"","","","","","html-keyboard-response","82","326335","0.0-82.0","A3929828C3B24640BD190C33EED450C0","019cee71-b820-7af9-a58d-a11a258cd8ed","019cee5f-9f1f-7e58-80c1-9ba679249cc3","","null","
                <div class=""stimulus-container"">
                    <img src=""images/schematic_sequence/interview_scheme/interview_scheme_2.png"" class=""exp-image"">
                    <div class=""question-area""></div> 
                </div>","null","","","","","","","",""
"","","","","","html-button-response","83","327074","0.0-83.0","A3929828C3B24640BD190C33EED450C0","019cee71-b820-7af9-a58d-a11a258cd8ed","019cee5f-9f1f-7e58-80c1-9ba679249cc3","","737","
                <div class=""stimulus-container"">
                    <img src=""images/schematic_sequence/interview_scheme/interview_scheme_2.png"" class=""exp-image"">
                    <div class=""question-area"">
                        <p style=""font-size: 20px; font-weight: bold; margin: 0;"">Is there a person in this image?</p>
                    </div>
                </div>","0","main_experiment_trial","2","interview_scheme","schematic_sequence","","","",""
"","","","","","html-keyboard-response","84","332076","0.0-84.0","A3929828C3B24640BD190C33EED450C0","019cee71-b820-7af9-a58d-a11a258cd8ed","019cee5f-9f1f-7e58-80c1-9ba679249cc3","","null","
                <div class=""stimulus-container"">
                    <img src=""images/schematic_sequence/interview_scheme/interview_scheme_3.png"" class=""exp-image"">
                    <div class=""question-area""></div> 
                </div>","null","","","","","","","",""
"","","","","","html-button-response","85","332803","0.0-85.0","A3929828C3B24640BD190C33EED450C0","019cee71-b820-7af9-a58d-a11a258cd8ed","019cee5f-9f1f-7e58-80c1-9ba679249cc3","","727","
                <div class=""stimulus-container"">
                    <img src=""images/schematic_sequence/interview_scheme/interview_scheme_3.png"" class=""exp-image"">
                    <div class=""question-area"">
                        <p style=""font-size: 20px; font-weight: bold; margin: 0;"">Is there a person in this image?</p>
                    </div>
                </div>","1","main_experiment_trial","3","interview_scheme","schematic_sequence","","","",""
"","","","","","html-keyboard-response","86","337806","0.0-86.0","A3929828C3B24640BD190C33EED450C0","019cee71-b820-7af9-a58d-a11a258cd8ed","019cee5f-9f1f-7e58-80c1-9ba679249cc3","","null","
                <div class=""stimulus-container"">
                    <img src=""images/schematic_sequence/interview_scheme/interview_scheme_4.png"" class=""exp-image"">
                    <div class=""question-area""></div> 
                </div>","null","","","","","","","",""
"","","","","","html-button-response","87","339046","0.0-87.0","A3929828C3B24640BD190C33EED450C0","019cee71-b820-7af9-a58d-a11a258cd8ed","019cee5f-9f1f-7e58-80c1-9ba679249cc3","","1239","
                <div class=""stimulus-container"">
                    <img src=""images/schematic_sequence/interview_scheme/interview_scheme_4.png"" class=""exp-image"">
                    <div class=""question-area"">
                        <p style=""font-size: 20px; font-weight: bold; margin: 0;"">Is there a person in this image?</p>
                    </div>
                </div>","1","main_experiment_trial","4","interview_scheme","schematic_sequence","","","",""
"","","","","","html-keyboard-response","88","344048","0.0-88.0","A3929828C3B24640BD190C33EED450C0","019cee71-b820-7af9-a58d-a11a258cd8ed","019cee5f-9f1f-7e58-80c1-9ba679249cc3","","null","
                <div class=""stimulus-container"">
                    <img src=""images/schematic_sequence/interview_scheme/interview_scheme_5.png"" class=""exp-image"">
                    <div class=""question-area""></div> 
                </div>","null","","","","","","","",""
"","","","","","html-button-response","89","345121","0.0-89.0","A3929828C3B24640BD190C33EED450C0","019cee71-b820-7af9-a58d-a11a258cd8ed","019cee5f-9f1f-7e58-80c1-9ba679249cc3","","1072","
                <div class=""stimulus-container"">
                    <img src=""images/schematic_sequence/interview_scheme/interview_scheme_5.png"" class=""exp-image"">
                    <div class=""question-area"">
                        <p style=""font-size: 20px; font-weight: bold; margin: 0;"">Is there a person in this image?</p>
                    </div>
                </div>","0","main_experiment_trial","5","interview_scheme","schematic_sequence","","","",""
"","","","","","html-keyboard-response","90","350124","0.0-90.0","A3929828C3B24640BD190C33EED450C0","019cee71-b820-7af9-a58d-a11a258cd8ed","019cee5f-9f1f-7e58-80c1-9ba679249cc3","","null","
                <div class=""stimulus-container"">
                    <img src=""images/schematic_sequence/interview_scheme/interview_scheme_6.png"" class=""exp-image"">
                    <div class=""question-area""></div> 
                </div>","null","","","","","","","",""
"","","","","","html-button-response","91","351107","0.0-91.0","A3929828C3B24640BD190C33EED450C0","019cee71-b820-7af9-a58d-a11a258cd8ed","019cee5f-9f1f-7e58-80c1-9ba679249cc3","","982","
                <div class=""stimulus-container"">
                    <img src=""images/schematic_sequence/interview_scheme/interview_scheme_6.png"" class=""exp-image"">
                    <div class=""question-area"">
                        <p style=""font-size: 20px; font-weight: bold; margin: 0;"">Is there a person in this image?</p>
                    </div>
                </div>","0","main_experiment_trial","6","interview_scheme","schematic_sequence","","","",""
"","","","","","html-keyboard-response","92","356109","0.0-92.0","A3929828C3B24640BD190C33EED450C0","019cee71-b820-7af9-a58d-a11a258cd8ed","019cee5f-9f1f-7e58-80c1-9ba679249cc3","","null","
                <div class=""stimulus-container"">
                    <img src=""images/schematic_sequence/interview_scheme/interview_scheme_7.png"" class=""exp-image"">
                    <div class=""question-area""></div> 
                </div>","null","","","","","","","",""
"","","","","","html-button-response","93","356691","0.0-93.0","A3929828C3B24640BD190C33EED450C0","019cee71-b820-7af9-a58d-a11a258cd8ed","019cee5f-9f1f-7e58-80c1-9ba679249cc3","","580","
                <div class=""stimulus-container"">
                    <img src=""images/schematic_sequence/interview_scheme/interview_scheme_7.png"" class=""exp-image"">
                    <div class=""question-area"">
                        <p style=""font-size: 20px; font-weight: bold; margin: 0;"">Is there a person in this image?</p>
                    </div>
                </div>","0","main_experiment_trial","7","interview_scheme","schematic_sequence","","","",""
"","","","","","html-keyboard-response","94","361694","0.0-94.0","A3929828C3B24640BD190C33EED450C0","019cee71-b820-7af9-a58d-a11a258cd8ed","019cee5f-9f1f-7e58-80c1-9ba679249cc3","","null","
                <div class=""stimulus-container"">
                    <img src=""images/schematic_sequence/interview_scheme/interview_scheme_8.png"" class=""exp-image"">
                    <div class=""question-area""></div> 
                </div>","null","","","","","","","",""
"","","","","","html-button-response","95","362524","0.0-95.0","A3929828C3B24640BD190C33EED450C0","019cee71-b820-7af9-a58d-a11a258cd8ed","019cee5f-9f1f-7e58-80c1-9ba679249cc3","","829","
                <div class=""stimulus-container"">
                    <img src=""images/schematic_sequence/interview_scheme/interview_scheme_8.png"" class=""exp-image"">
                    <div class=""question-area"">
                        <p style=""font-size: 20px; font-weight: bold; margin: 0;"">Is there a person in this image?</p>
                    </div>
                </div>","0","main_experiment_trial","8","interview_scheme","schematic_sequence","","","",""
"","","","","","html-keyboard-response","96","367526","0.0-96.0","A3929828C3B24640BD190C33EED450C0","019cee71-b820-7af9-a58d-a11a258cd8ed","019cee5f-9f1f-7e58-80c1-9ba679249cc3","","null","
                <div class=""stimulus-container"">
                    <img src=""images/schematic_sequence/interview_scheme/interview_scheme_9.png"" class=""exp-image"">
                    <div class=""question-area""></div> 
                </div>","null","","","","","","","",""
"","","","","","html-button-response","97","368094","0.0-97.0","A3929828C3B24640BD190C33EED450C0","019cee71-b820-7af9-a58d-a11a258cd8ed","019cee5f-9f1f-7e58-80c1-9ba679249cc3","","567","
                <div class=""stimulus-container"">
                    <img src=""images/schematic_sequence/interview_scheme/interview_scheme_9.png"" class=""exp-image"">
                    <div class=""question-area"">
                        <p style=""font-size: 20px; font-weight: bold; margin: 0;"">Is there a person in this image?</p>
                    </div>
                </div>","0","main_experiment_trial","9","interview_scheme","schematic_sequence","","","",""
"","","","","","html-keyboard-response","98","373096","0.0-98.0","A3929828C3B24640BD190C33EED450C0","019cee71-b820-7af9-a58d-a11a258cd8ed","019cee5f-9f1f-7e58-80c1-9ba679249cc3","","null","
                <div class=""stimulus-container"">
                    <img src=""images/schematic_sequence/interview_scheme/interview_scheme_ten.png"" class=""exp-image"">
                    <div class=""question-area""></div> 
                </div>","null","","","","","","","",""
"","","","","","html-button-response","99","373932","0.0-99.0","A3929828C3B24640BD190C33EED450C0","019cee71-b820-7af9-a58d-a11a258cd8ed","019cee5f-9f1f-7e58-80c1-9ba679249cc3","","835","
                <div class=""stimulus-container"">
                    <img src=""images/schematic_sequence/interview_scheme/interview_scheme_ten.png"" class=""exp-image"">
                    <div class=""question-area"">
                        <p style=""font-size: 20px; font-weight: bold; margin: 0;"">Is there a person in this image?</p>
                    </div>
                </div>","0","main_experiment_trial","ten","interview_scheme","schematic_sequence","","","",""
"","","","","","html-keyboard-response","100","374934","0.0-100.0","A3929828C3B24640BD190C33EED450C0","019cee71-b820-7af9-a58d-a11a258cd8ed","019cee5f-9f1f-7e58-80c1-9ba679249cc3","","null","<div style=""background-color: white; width: 100vw; height: 100vh;""></div>","null","","","","","","","",""
"","","","","","html-keyboard-response","101","379937","0.0-101.0","A3929828C3B24640BD190C33EED450C0","019cee71-b820-7af9-a58d-a11a258cd8ed","019cee5f-9f1f-7e58-80c1-9ba679249cc3","","null","
                <div class=""stimulus-container"">
                    <img src=""images/schematic_sequence/restaurant_scheme/restaurant_scheme_1.png"" class=""exp-image"">
                    <div class=""question-area""></div> 
                </div>","null","","","","","","","",""
"","","","","","html-button-response","102","381577","0.0-102.0","A3929828C3B24640BD190C33EED450C0","019cee71-b820-7af9-a58d-a11a258cd8ed","019cee5f-9f1f-7e58-80c1-9ba679249cc3","","1639","
                <div class=""stimulus-container"">
                    <img src=""images/schematic_sequence/restaurant_scheme/restaurant_scheme_1.png"" class=""exp-image"">
                    <div class=""question-area"">
                        <p style=""font-size: 20px; font-weight: bold; margin: 0;"">Is there a person in this image?</p>
                    </div>
                </div>","0","main_experiment_trial","1","restaurant_scheme","schematic_sequence","","","",""
"","","","","","html-keyboard-response","103","386580","0.0-103.0","A3929828C3B24640BD190C33EED450C0","019cee71-b820-7af9-a58d-a11a258cd8ed","019cee5f-9f1f-7e58-80c1-9ba679249cc3","","null","
                <div class=""stimulus-container"">
                    <img src=""images/schematic_sequence/restaurant_scheme/restaurant_scheme_2.png"" class=""exp-image"">
                    <div class=""question-area""></div> 
                </div>","null","","","","","","","",""
"","","","","","html-button-response","104","387803","0.0-104.0","A3929828C3B24640BD190C33EED450C0","019cee71-b820-7af9-a58d-a11a258cd8ed","019cee5f-9f1f-7e58-80c1-9ba679249cc3","","1222","
                <div class=""stimulus-container"">
                    <img src=""images/schematic_sequence/restaurant_scheme/restaurant_scheme_2.png"" class=""exp-image"">
                    <div class=""question-area"">
                        <p style=""font-size: 20px; font-weight: bold; margin: 0;"">Is there a person in this image?</p>
                    </div>
                </div>","1","main_experiment_trial","2","restaurant_scheme","schematic_sequence","","","",""
"","","","","","html-keyboard-response","105","392805","0.0-105.0","A3929828C3B24640BD190C33EED450C0","019cee71-b820-7af9-a58d-a11a258cd8ed","019cee5f-9f1f-7e58-80c1-9ba679249cc3","","null","
                <div class=""stimulus-container"">
                    <img src=""images/schematic_sequence/restaurant_scheme/restaurant_scheme_3.png"" class=""exp-image"">
                    <div class=""question-area""></div> 
                </div>","null","","","","","","","",""
"","","","","","html-button-response","106","393375","0.0-106.0","A3929828C3B24640BD190C33EED450C0","019cee71-b820-7af9-a58d-a11a258cd8ed","019cee5f-9f1f-7e58-80c1-9ba679249cc3","","569","
                <div class=""stimulus-container"">
                    <img src=""images/schematic_sequence/restaurant_scheme/restaurant_scheme_3.png"" class=""exp-image"">
                    <div class=""question-area"">
                        <p style=""font-size: 20px; font-weight: bold; margin: 0;"">Is there a person in this image?</p>
                    </div>
                </div>","1","main_experiment_trial","3","restaurant_scheme","schematic_sequence","","","",""
"","","","","","html-keyboard-response","107","398377","0.0-107.0","A3929828C3B24640BD190C33EED450C0","019cee71-b820-7af9-a58d-a11a258cd8ed","019cee5f-9f1f-7e58-80c1-9ba679249cc3","","null","
                <div class=""stimulus-container"">
                    <img src=""images/schematic_sequence/restaurant_scheme/restaurant_scheme_4.png"" class=""exp-image"">
                    <div class=""question-area""></div> 
                </div>","null","","","","","","","",""
"","","","","","html-button-response","108","399218","0.0-108.0","A3929828C3B24640BD190C33EED450C0","019cee71-b820-7af9-a58d-a11a258cd8ed","019cee5f-9f1f-7e58-80c1-9ba679249cc3","","840","
                <div class=""stimulus-container"">
                    <img src=""images/schematic_sequence/restaurant_scheme/restaurant_scheme_4.png"" class=""exp-image"">
                    <div class=""question-area"">
                        <p style=""font-size: 20px; font-weight: bold; margin: 0;"">Is there a person in this image?</p>
                    </div>
                </div>","0","main_experiment_trial","4","restaurant_scheme","schematic_sequence","","","",""
"","","","","","html-keyboard-response","109","404220","0.0-109.0","A3929828C3B24640BD190C33EED450C0","019cee71-b820-7af9-a58d-a11a258cd8ed","019cee5f-9f1f-7e58-80c1-9ba679249cc3","","null","
                <div class=""stimulus-container"">
                    <img src=""images/schematic_sequence/restaurant_scheme/restaurant_scheme_5.png"" class=""exp-image"">
                    <div class=""question-area""></div> 
                </div>","null","","","","","","","",""
"","","","","","html-button-response","110","404810","0.0-110.0","A3929828C3B24640BD190C33EED450C0","019cee71-b820-7af9-a58d-a11a258cd8ed","019cee5f-9f1f-7e58-80c1-9ba679249cc3","","589","
                <div class=""stimulus-container"">
                    <img src=""images/schematic_sequence/restaurant_scheme/restaurant_scheme_5.png"" class=""exp-image"">
                    <div class=""question-area"">
                        <p style=""font-size: 20px; font-weight: bold; margin: 0;"">Is there a person in this image?</p>
                    </div>
                </div>","0","main_experiment_trial","5","restaurant_scheme","schematic_sequence","","","",""
"","","","","","html-keyboard-response","111","409811","0.0-111.0","A3929828C3B24640BD190C33EED450C0","019cee71-b820-7af9-a58d-a11a258cd8ed","019cee5f-9f1f-7e58-80c1-9ba679249cc3","","null","
                <div class=""stimulus-container"">
                    <img src=""images/schematic_sequence/restaurant_scheme/restaurant_scheme_6.png"" class=""exp-image"">
                    <div class=""question-area""></div> 
                </div>","null","","","","","","","",""
"","","","","","html-button-response","112","410359","0.0-112.0","A3929828C3B24640BD190C33EED450C0","019cee71-b820-7af9-a58d-a11a258cd8ed","019cee5f-9f1f-7e58-80c1-9ba679249cc3","","546","
                <div class=""stimulus-container"">
                    <img src=""images/schematic_sequence/restaurant_scheme/restaurant_scheme_6.png"" class=""exp-image"">
                    <div class=""question-area"">
                        <p style=""font-size: 20px; font-weight: bold; margin: 0;"">Is there a person in this image?</p>
                    </div>
                </div>","0","main_experiment_trial","6","restaurant_scheme","schematic_sequence","","","",""
"","","","","","html-keyboard-response","113","415362","0.0-113.0","A3929828C3B24640BD190C33EED450C0","019cee71-b820-7af9-a58d-a11a258cd8ed","019cee5f-9f1f-7e58-80c1-9ba679249cc3","","null","
                <div class=""stimulus-container"">
                    <img src=""images/schematic_sequence/restaurant_scheme/restaurant_scheme_7.png"" class=""exp-image"">
                    <div class=""question-area""></div> 
                </div>","null","","","","","","","",""
"","","","","","html-button-response","114","416777","0.0-114.0","A3929828C3B24640BD190C33EED450C0","019cee71-b820-7af9-a58d-a11a258cd8ed","019cee5f-9f1f-7e58-80c1-9ba679249cc3","","1414","
                <div class=""stimulus-container"">
                    <img src=""images/schematic_sequence/restaurant_scheme/restaurant_scheme_7.png"" class=""exp-image"">
                    <div class=""question-area"">
                        <p style=""font-size: 20px; font-weight: bold; margin: 0;"">Is there a person in this image?</p>
                    </div>
                </div>","1","main_experiment_trial","7","restaurant_scheme","schematic_sequence","","","",""
"","","","","","html-keyboard-response","115","421779","0.0-115.0","A3929828C3B24640BD190C33EED450C0","019cee71-b820-7af9-a58d-a11a258cd8ed","019cee5f-9f1f-7e58-80c1-9ba679249cc3","","null","
                <div class=""stimulus-container"">
                    <img src=""images/schematic_sequence/restaurant_scheme/restaurant_scheme_8.png"" class=""exp-image"">
                    <div class=""question-area""></div> 
                </div>","null","","","","","","","",""
"","","","","","html-button-response","116","422436","0.0-116.0","A3929828C3B24640BD190C33EED450C0","019cee71-b820-7af9-a58d-a11a258cd8ed","019cee5f-9f1f-7e58-80c1-9ba679249cc3","","656","
                <div class=""stimulus-container"">
                    <img src=""images/schematic_sequence/restaurant_scheme/restaurant_scheme_8.png"" class=""exp-image"">
                    <div class=""question-area"">
                        <p style=""font-size: 20px; font-weight: bold; margin: 0;"">Is there a person in this image?</p>
                    </div>
                </div>","0","main_experiment_trial","8","restaurant_scheme","schematic_sequence","","","",""
"","","","","","html-keyboard-response","117","427438","0.0-117.0","A3929828C3B24640BD190C33EED450C0","019cee71-b820-7af9-a58d-a11a258cd8ed","019cee5f-9f1f-7e58-80c1-9ba679249cc3","","null","
                <div class=""stimulus-container"">
                    <img src=""images/schematic_sequence/restaurant_scheme/restaurant_scheme_9.png"" class=""exp-image"">
                    <div class=""question-area""></div> 
                </div>","null","","","","","","","",""
"","","","","","html-button-response","118","427910","0.0-118.0","A3929828C3B24640BD190C33EED450C0","019cee71-b820-7af9-a58d-a11a258cd8ed","019cee5f-9f1f-7e58-80c1-9ba679249cc3","","471","
                <div class=""stimulus-container"">
                    <img src=""images/schematic_sequence/restaurant_scheme/restaurant_scheme_9.png"" class=""exp-image"">
                    <div class=""question-area"">
                        <p style=""font-size: 20px; font-weight: bold; margin: 0;"">Is there a person in this image?</p>
                    </div>
                </div>","0","main_experiment_trial","9","restaurant_scheme","schematic_sequence","","","",""
"","","","","","html-keyboard-response","119","432913","0.0-119.0","A3929828C3B24640BD190C33EED450C0","019cee71-b820-7af9-a58d-a11a258cd8ed","019cee5f-9f1f-7e58-80c1-9ba679249cc3","","null","
                <div class=""stimulus-container"">
                    <img src=""images/schematic_sequence/restaurant_scheme/restaurant_scheme_ten.png"" class=""exp-image"">
                    <div class=""question-area""></div> 
                </div>","null","","","","","","","",""
"","","","","","html-button-response","120","434316","0.0-120.0","A3929828C3B24640BD190C33EED450C0","019cee71-b820-7af9-a58d-a11a258cd8ed","019cee5f-9f1f-7e58-80c1-9ba679249cc3","","1402","
                <div class=""stimulus-container"">
                    <img src=""images/schematic_sequence/restaurant_scheme/restaurant_scheme_ten.png"" class=""exp-image"">
                    <div class=""question-area"">
                        <p style=""font-size: 20px; font-weight: bold; margin: 0;"">Is there a person in this image?</p>
                    </div>
                </div>","0","main_experiment_trial","ten","restaurant_scheme","schematic_sequence","","","",""
"","","","","","html-keyboard-response","121","435318","0.0-121.0","A3929828C3B24640BD190C33EED450C0","019cee71-b820-7af9-a58d-a11a258cd8ed","019cee5f-9f1f-7e58-80c1-9ba679249cc3","","null","<div style=""background-color: white; width: 100vw; height: 100vh;""></div>","null","","","","","","","",""
"","","","","","html-keyboard-response","122","440321","0.0-122.0","A3929828C3B24640BD190C33EED450C0","019cee71-b820-7af9-a58d-a11a258cd8ed","019cee5f-9f1f-7e58-80c1-9ba679249cc3","","null","
                <div class=""stimulus-container"">
                    <img src=""images/causal_sequence/saving_a_cat_causal/saving_a_cat_causal_1.png"" class=""exp-image"">
                    <div class=""question-area""></div> 
                </div>","null","","","","","","","",""
"","","","","","html-button-response","123","440910","0.0-123.0","A3929828C3B24640BD190C33EED450C0","019cee71-b820-7af9-a58d-a11a258cd8ed","019cee5f-9f1f-7e58-80c1-9ba679249cc3","","588","
                <div class=""stimulus-container"">
                    <img src=""images/causal_sequence/saving_a_cat_causal/saving_a_cat_causal_1.png"" class=""exp-image"">
                    <div class=""question-area"">
                        <p style=""font-size: 20px; font-weight: bold; margin: 0;"">Is there a person in this image?</p>
                    </div>
                </div>","0","main_experiment_trial","1","saving_a_cat_causal","causal_sequence","","","",""
"","","","","","html-keyboard-response","124","445913","0.0-124.0","A3929828C3B24640BD190C33EED450C0","019cee71-b820-7af9-a58d-a11a258cd8ed","019cee5f-9f1f-7e58-80c1-9ba679249cc3","","null","
                <div class=""stimulus-container"">
                    <img src=""images/causal_sequence/saving_a_cat_causal/saving_a_cat_causal_2.png"" class=""exp-image"">
                    <div class=""question-area""></div> 
                </div>","null","","","","","","","",""
"","","","","","html-button-response","125","446816","0.0-125.0","A3929828C3B24640BD190C33EED450C0","019cee71-b820-7af9-a58d-a11a258cd8ed","019cee5f-9f1f-7e58-80c1-9ba679249cc3","","902","
                <div class=""stimulus-container"">
                    <img src=""images/causal_sequence/saving_a_cat_causal/saving_a_cat_causal_2.png"" class=""exp-image"">
                    <div class=""question-area"">
                        <p style=""font-size: 20px; font-weight: bold; margin: 0;"">Is there a person in this image?</p>
                    </div>
                </div>","1","main_experiment_trial","2","saving_a_cat_causal","causal_sequence","","","",""
"","","","","","html-keyboard-response","126","451819","0.0-126.0","A3929828C3B24640BD190C33EED450C0","019cee71-b820-7af9-a58d-a11a258cd8ed","019cee5f-9f1f-7e58-80c1-9ba679249cc3","","null","
                <div class=""stimulus-container"">
                    <img src=""images/causal_sequence/saving_a_cat_causal/saving_a_cat_causal_3.png"" class=""exp-image"">
                    <div class=""question-area""></div> 
                </div>","null","","","","","","","",""
"","","","","","html-button-response","127","452424","0.0-127.0","A3929828C3B24640BD190C33EED450C0","019cee71-b820-7af9-a58d-a11a258cd8ed","019cee5f-9f1f-7e58-80c1-9ba679249cc3","","604","
                <div class=""stimulus-container"">
                    <img src=""images/causal_sequence/saving_a_cat_causal/saving_a_cat_causal_3.png"" class=""exp-image"">
                    <div class=""question-area"">
                        <p style=""font-size: 20px; font-weight: bold; margin: 0;"">Is there a person in this image?</p>
                    </div>
                </div>","1","main_experiment_trial","3","saving_a_cat_causal","causal_sequence","","","",""
"","","","","","html-keyboard-response","128","457426","0.0-128.0","A3929828C3B24640BD190C33EED450C0","019cee71-b820-7af9-a58d-a11a258cd8ed","019cee5f-9f1f-7e58-80c1-9ba679249cc3","","null","
                <div class=""stimulus-container"">
                    <img src=""images/causal_sequence/saving_a_cat_causal/saving_a_cat_causal_4.png"" class=""exp-image"">
                    <div class=""question-area""></div> 
                </div>","null","","","","","","","",""
"","","","","","html-button-response","129","458635","0.0-129.0","A3929828C3B24640BD190C33EED450C0","019cee71-b820-7af9-a58d-a11a258cd8ed","019cee5f-9f1f-7e58-80c1-9ba679249cc3","","1208","
                <div class=""stimulus-container"">
                    <img src=""images/causal_sequence/saving_a_cat_causal/saving_a_cat_causal_4.png"" class=""exp-image"">
                    <div class=""question-area"">
                        <p style=""font-size: 20px; font-weight: bold; margin: 0;"">Is there a person in this image?</p>
                    </div>
                </div>","0","main_experiment_trial","4","saving_a_cat_causal","causal_sequence","","","",""
"","","","","","html-keyboard-response","130","463638","0.0-130.0","A3929828C3B24640BD190C33EED450C0","019cee71-b820-7af9-a58d-a11a258cd8ed","019cee5f-9f1f-7e58-80c1-9ba679249cc3","","null","
                <div class=""stimulus-container"">
                    <img src=""images/causal_sequence/saving_a_cat_causal/saving_a_cat_causal_5.png"" class=""exp-image"">
                    <div class=""question-area""></div> 
                </div>","null","","","","","","","",""
"","","","","","html-button-response","131","464988","0.0-131.0","A3929828C3B24640BD190C33EED450C0","019cee71-b820-7af9-a58d-a11a258cd8ed","019cee5f-9f1f-7e58-80c1-9ba679249cc3","","1349","
                <div class=""stimulus-container"">
                    <img src=""images/causal_sequence/saving_a_cat_causal/saving_a_cat_causal_5.png"" class=""exp-image"">
                    <div class=""question-area"">
                        <p style=""font-size: 20px; font-weight: bold; margin: 0;"">Is there a person in this image?</p>
                    </div>
                </div>","0","main_experiment_trial","5","saving_a_cat_causal","causal_sequence","","","",""
"","","","","","html-keyboard-response","132","469991","0.0-132.0","A3929828C3B24640BD190C33EED450C0","019cee71-b820-7af9-a58d-a11a258cd8ed","019cee5f-9f1f-7e58-80c1-9ba679249cc3","","null","
                <div class=""stimulus-container"">
                    <img src=""images/causal_sequence/saving_a_cat_causal/saving_a_cat_causal_6.png"" class=""exp-image"">
                    <div class=""question-area""></div> 
                </div>","null","","","","","","","",""
"","","","","","html-button-response","133","470861","0.0-133.0","A3929828C3B24640BD190C33EED450C0","019cee71-b820-7af9-a58d-a11a258cd8ed","019cee5f-9f1f-7e58-80c1-9ba679249cc3","","869","
                <div class=""stimulus-container"">
                    <img src=""images/causal_sequence/saving_a_cat_causal/saving_a_cat_causal_6.png"" class=""exp-image"">
                    <div class=""question-area"">
                        <p style=""font-size: 20px; font-weight: bold; margin: 0;"">Is there a person in this image?</p>
                    </div>
                </div>","0","main_experiment_trial","6","saving_a_cat_causal","causal_sequence","","","",""
"","","","","","html-keyboard-response","134","475863","0.0-134.0","A3929828C3B24640BD190C33EED450C0","019cee71-b820-7af9-a58d-a11a258cd8ed","019cee5f-9f1f-7e58-80c1-9ba679249cc3","","null","
                <div class=""stimulus-container"">
                    <img src=""images/causal_sequence/saving_a_cat_causal/saving_a_cat_causal_7.png"" class=""exp-image"">
                    <div class=""question-area""></div> 
                </div>","null","","","","","","","",""
"","","","","","html-button-response","135","476430","0.0-135.0","A3929828C3B24640BD190C33EED450C0","019cee71-b820-7af9-a58d-a11a258cd8ed","019cee5f-9f1f-7e58-80c1-9ba679249cc3","","566","
                <div class=""stimulus-container"">
                    <img src=""images/causal_sequence/saving_a_cat_causal/saving_a_cat_causal_7.png"" class=""exp-image"">
                    <div class=""question-area"">
                        <p style=""font-size: 20px; font-weight: bold; margin: 0;"">Is there a person in this image?</p>
                    </div>
                </div>","0","main_experiment_trial","7","saving_a_cat_causal","causal_sequence","","","",""
"","","","","","html-keyboard-response","136","481433","0.0-136.0","A3929828C3B24640BD190C33EED450C0","019cee71-b820-7af9-a58d-a11a258cd8ed","019cee5f-9f1f-7e58-80c1-9ba679249cc3","","null","
                <div class=""stimulus-container"">
                    <img src=""images/causal_sequence/saving_a_cat_causal/saving_a_cat_causal_8.png"" class=""exp-image"">
                    <div class=""question-area""></div> 
                </div>","null","","","","","","","",""
"","","","","","html-button-response","137","482460","0.0-137.0","A3929828C3B24640BD190C33EED450C0","019cee71-b820-7af9-a58d-a11a258cd8ed","019cee5f-9f1f-7e58-80c1-9ba679249cc3","","1026","
                <div class=""stimulus-container"">
                    <img src=""images/causal_sequence/saving_a_cat_causal/saving_a_cat_causal_8.png"" class=""exp-image"">
                    <div class=""question-area"">
                        <p style=""font-size: 20px; font-weight: bold; margin: 0;"">Is there a person in this image?</p>
                    </div>
                </div>","0","main_experiment_trial","8","saving_a_cat_causal","causal_sequence","","","",""
"","","","","","html-keyboard-response","138","487462","0.0-138.0","A3929828C3B24640BD190C33EED450C0","019cee71-b820-7af9-a58d-a11a258cd8ed","019cee5f-9f1f-7e58-80c1-9ba679249cc3","","null","
                <div class=""stimulus-container"">
                    <img src=""images/causal_sequence/saving_a_cat_causal/saving_a_cat_causal_9.png"" class=""exp-image"">
                    <div class=""question-area""></div> 
                </div>","null","","","","","","","",""
"","","","","","html-button-response","139","488024","0.0-139.0","A3929828C3B24640BD190C33EED450C0","019cee71-b820-7af9-a58d-a11a258cd8ed","019cee5f-9f1f-7e58-80c1-9ba679249cc3","","560","
                <div class=""stimulus-container"">
                    <img src=""images/causal_sequence/saving_a_cat_causal/saving_a_cat_causal_9.png"" class=""exp-image"">
                    <div class=""question-area"">
                        <p style=""font-size: 20px; font-weight: bold; margin: 0;"">Is there a person in this image?</p>
                    </div>
                </div>","0","main_experiment_trial","9","saving_a_cat_causal","causal_sequence","","","",""
"","","","","","html-keyboard-response","140","493027","0.0-140.0","A3929828C3B24640BD190C33EED450C0","019cee71-b820-7af9-a58d-a11a258cd8ed","019cee5f-9f1f-7e58-80c1-9ba679249cc3","","null","
                <div class=""stimulus-container"">
                    <img src=""images/causal_sequence/saving_a_cat_causal/saving_a_cat_causal_ten.png"" class=""exp-image"">
                    <div class=""question-area""></div> 
                </div>","null","","","","","","","",""
"","","","","","html-button-response","141","493510","0.0-141.0","A3929828C3B24640BD190C33EED450C0","019cee71-b820-7af9-a58d-a11a258cd8ed","019cee5f-9f1f-7e58-80c1-9ba679249cc3","","482","
                <div class=""stimulus-container"">
                    <img src=""images/causal_sequence/saving_a_cat_causal/saving_a_cat_causal_ten.png"" class=""exp-image"">
                    <div class=""question-area"">
                        <p style=""font-size: 20px; font-weight: bold; margin: 0;"">Is there a person in this image?</p>
                    </div>
                </div>","0","main_experiment_trial","ten","saving_a_cat_causal","causal_sequence","","","",""
"","","","","","html-keyboard-response","142","494512","0.0-142.0","A3929828C3B24640BD190C33EED450C0","019cee71-b820-7af9-a58d-a11a258cd8ed","019cee5f-9f1f-7e58-80c1-9ba679249cc3","","null","<div style=""background-color: white; width: 100vw; height: 100vh;""></div>","null","","","","","","","",""
"","","","","","html-keyboard-response","143","499514","0.0-143.0","A3929828C3B24640BD190C33EED450C0","019cee71-b820-7af9-a58d-a11a258cd8ed","019cee5f-9f1f-7e58-80c1-9ba679249cc3","","null","
                <div class=""stimulus-container"">
                    <img src=""images/schematic_sequence/dinner_party_scheme/dinner_party_scheme_1.png"" class=""exp-image"">
                    <div class=""question-area""></div> 
                </div>","null","","","","","","","",""
"","","","","","html-button-response","144","500024","0.0-144.0","A3929828C3B24640BD190C33EED450C0","019cee71-b820-7af9-a58d-a11a258cd8ed","019cee5f-9f1f-7e58-80c1-9ba679249cc3","","509","
                <div class=""stimulus-container"">
                    <img src=""images/schematic_sequence/dinner_party_scheme/dinner_party_scheme_1.png"" class=""exp-image"">
                    <div class=""question-area"">
                        <p style=""font-size: 20px; font-weight: bold; margin: 0;"">Is there a person in this image?</p>
                    </div>
                </div>","0","main_experiment_trial","1","dinner_party_scheme","schematic_sequence","","","",""
"","","","","","html-keyboard-response","145","505026","0.0-145.0","A3929828C3B24640BD190C33EED450C0","019cee71-b820-7af9-a58d-a11a258cd8ed","019cee5f-9f1f-7e58-80c1-9ba679249cc3","","null","
                <div class=""stimulus-container"">
                    <img src=""images/schematic_sequence/dinner_party_scheme/dinner_party_scheme_2.png"" class=""exp-image"">
                    <div class=""question-area""></div> 
                </div>","null","","","","","","","",""
"","","","","","html-button-response","146","506394","0.0-146.0","A3929828C3B24640BD190C33EED450C0","019cee71-b820-7af9-a58d-a11a258cd8ed","019cee5f-9f1f-7e58-80c1-9ba679249cc3","","1367","
                <div class=""stimulus-container"">
                    <img src=""images/schematic_sequence/dinner_party_scheme/dinner_party_scheme_2.png"" class=""exp-image"">
                    <div class=""question-area"">
                        <p style=""font-size: 20px; font-weight: bold; margin: 0;"">Is there a person in this image?</p>
                    </div>
                </div>","0","main_experiment_trial","2","dinner_party_scheme","schematic_sequence","","","",""
"","","","","","html-keyboard-response","147","511397","0.0-147.0","A3929828C3B24640BD190C33EED450C0","019cee71-b820-7af9-a58d-a11a258cd8ed","019cee5f-9f1f-7e58-80c1-9ba679249cc3","","null","
                <div class=""stimulus-container"">
                    <img src=""images/schematic_sequence/dinner_party_scheme/dinner_party_scheme_3.png"" class=""exp-image"">
                    <div class=""question-area""></div> 
                </div>","null","","","","","","","",""
"","","","","","html-button-response","148","512490","0.0-148.0","A3929828C3B24640BD190C33EED450C0","019cee71-b820-7af9-a58d-a11a258cd8ed","019cee5f-9f1f-7e58-80c1-9ba679249cc3","","1092","
                <div class=""stimulus-container"">
                    <img src=""images/schematic_sequence/dinner_party_scheme/dinner_party_scheme_3.png"" class=""exp-image"">
                    <div class=""question-area"">
                        <p style=""font-size: 20px; font-weight: bold; margin: 0;"">Is there a person in this image?</p>
                    </div>
                </div>","0","main_experiment_trial","3","dinner_party_scheme","schematic_sequence","","","",""
"","","","","","html-keyboard-response","149","517493","0.0-149.0","A3929828C3B24640BD190C33EED450C0","019cee71-b820-7af9-a58d-a11a258cd8ed","019cee5f-9f1f-7e58-80c1-9ba679249cc3","","null","
                <div class=""stimulus-container"">
                    <img src=""images/schematic_sequence/dinner_party_scheme/dinner_party_scheme_4.png"" class=""exp-image"">
                    <div class=""question-area""></div> 
                </div>","null","","","","","","","",""
"","","","","","html-button-response","150","518276","0.0-150.0","A3929828C3B24640BD190C33EED450C0","019cee71-b820-7af9-a58d-a11a258cd8ed","019cee5f-9f1f-7e58-80c1-9ba679249cc3","","782","
                <div class=""stimulus-container"">
                    <img src=""images/schematic_sequence/dinner_party_scheme/dinner_party_scheme_4.png"" class=""exp-image"">
                    <div class=""question-area"">
                        <p style=""font-size: 20px; font-weight: bold; margin: 0;"">Is there a person in this image?</p>
                    </div>
                </div>","0","main_experiment_trial","4","dinner_party_scheme","schematic_sequence","","","",""
"","","","","","html-keyboard-response","151","523279","0.0-151.0","A3929828C3B24640BD190C33EED450C0","019cee71-b820-7af9-a58d-a11a258cd8ed","019cee5f-9f1f-7e58-80c1-9ba679249cc3","","null","
                <div class=""stimulus-container"">
                    <img src=""images/schematic_sequence/dinner_party_scheme/dinner_party_scheme_5.png"" class=""exp-image"">
                    <div class=""question-area""></div> 
                </div>","null","","","","","","","",""
"","","","","","html-button-response","152","524957","0.0-152.0","A3929828C3B24640BD190C33EED450C0","019cee71-b820-7af9-a58d-a11a258cd8ed","019cee5f-9f1f-7e58-80c1-9ba679249cc3","","1677","
                <div class=""stimulus-container"">
                    <img src=""images/schematic_sequence/dinner_party_scheme/dinner_party_scheme_5.png"" class=""exp-image"">
                    <div class=""question-area"">
                        <p style=""font-size: 20px; font-weight: bold; margin: 0;"">Is there a person in this image?</p>
                    </div>
                </div>","0","main_experiment_trial","5","dinner_party_scheme","schematic_sequence","","","",""
"","","","","","html-keyboard-response","153","529959","0.0-153.0","A3929828C3B24640BD190C33EED450C0","019cee71-b820-7af9-a58d-a11a258cd8ed","019cee5f-9f1f-7e58-80c1-9ba679249cc3","","null","
                <div class=""stimulus-container"">
                    <img src=""images/schematic_sequence/dinner_party_scheme/dinner_party_scheme_6.png"" class=""exp-image"">
                    <div class=""question-area""></div> 
                </div>","null","","","","","","","",""
"","","","","","html-button-response","154","530923","0.0-154.0","A3929828C3B24640BD190C33EED450C0","019cee71-b820-7af9-a58d-a11a258cd8ed","019cee5f-9f1f-7e58-80c1-9ba679249cc3","","963","
                <div class=""stimulus-container"">
                    <img src=""images/schematic_sequence/dinner_party_scheme/dinner_party_scheme_6.png"" class=""exp-image"">
                    <div class=""question-area"">
                        <p style=""font-size: 20px; font-weight: bold; margin: 0;"">Is there a person in this image?</p>
                    </div>
                </div>","0","main_experiment_trial","6","dinner_party_scheme","schematic_sequence","","","",""
"","","","","","html-keyboard-response","155","535925","0.0-155.0","A3929828C3B24640BD190C33EED450C0","019cee71-b820-7af9-a58d-a11a258cd8ed","019cee5f-9f1f-7e58-80c1-9ba679249cc3","","null","
                <div class=""stimulus-container"">
                    <img src=""images/schematic_sequence/dinner_party_scheme/dinner_party_scheme_7.png"" class=""exp-image"">
                    <div class=""question-area""></div> 
                </div>","null","","","","","","","",""
"","","","","","html-button-response","156","536743","0.0-156.0","A3929828C3B24640BD190C33EED450C0","019cee71-b820-7af9-a58d-a11a258cd8ed","019cee5f-9f1f-7e58-80c1-9ba679249cc3","","816","
                <div class=""stimulus-container"">
                    <img src=""images/schematic_sequence/dinner_party_scheme/dinner_party_scheme_7.png"" class=""exp-image"">
                    <div class=""question-area"">
                        <p style=""font-size: 20px; font-weight: bold; margin: 0;"">Is there a person in this image?</p>
                    </div>
                </div>","0","main_experiment_trial","7","dinner_party_scheme","schematic_sequence","","","",""
"","","","","","html-keyboard-response","157","541744","0.0-157.0","A3929828C3B24640BD190C33EED450C0","019cee71-b820-7af9-a58d-a11a258cd8ed","019cee5f-9f1f-7e58-80c1-9ba679249cc3","","null","
                <div class=""stimulus-container"">
                    <img src=""images/schematic_sequence/dinner_party_scheme/dinner_party_scheme_8.png"" class=""exp-image"">
                    <div class=""question-area""></div> 
                </div>","null","","","","","","","",""
"","","","","","html-button-response","158","542261","0.0-158.0","A3929828C3B24640BD190C33EED450C0","019cee71-b820-7af9-a58d-a11a258cd8ed","019cee5f-9f1f-7e58-80c1-9ba679249cc3","","516","
                <div class=""stimulus-container"">
                    <img src=""images/schematic_sequence/dinner_party_scheme/dinner_party_scheme_8.png"" class=""exp-image"">
                    <div class=""question-area"">
                        <p style=""font-size: 20px; font-weight: bold; margin: 0;"">Is there a person in this image?</p>
                    </div>
                </div>","0","main_experiment_trial","8","dinner_party_scheme","schematic_sequence","","","",""
"","","","","","html-keyboard-response","159","547264","0.0-159.0","A3929828C3B24640BD190C33EED450C0","019cee71-b820-7af9-a58d-a11a258cd8ed","019cee5f-9f1f-7e58-80c1-9ba679249cc3","","null","
                <div class=""stimulus-container"">
                    <img src=""images/schematic_sequence/dinner_party_scheme/dinner_party_scheme_9.png"" class=""exp-image"">
                    <div class=""question-area""></div> 
                </div>","null","","","","","","","",""
"","","","","","html-button-response","160","548590","0.0-160.0","A3929828C3B24640BD190C33EED450C0","019cee71-b820-7af9-a58d-a11a258cd8ed","019cee5f-9f1f-7e58-80c1-9ba679249cc3","","1325","
                <div class=""stimulus-container"">
                    <img src=""images/schematic_sequence/dinner_party_scheme/dinner_party_scheme_9.png"" class=""exp-image"">
                    <div class=""question-area"">
                        <p style=""font-size: 20px; font-weight: bold; margin: 0;"">Is there a person in this image?</p>
                    </div>
                </div>","0","main_experiment_trial","9","dinner_party_scheme","schematic_sequence","","","",""
"","","","","","html-keyboard-response","161","553593","0.0-161.0","A3929828C3B24640BD190C33EED450C0","019cee71-b820-7af9-a58d-a11a258cd8ed","019cee5f-9f1f-7e58-80c1-9ba679249cc3","","null","
                <div class=""stimulus-container"">
                    <img src=""images/schematic_sequence/dinner_party_scheme/dinner_party_scheme_ten.png"" class=""exp-image"">
                    <div class=""question-area""></div> 
                </div>","null","","","","","","","",""
"","","","","","html-button-response","162","554576","0.0-162.0","A3929828C3B24640BD190C33EED450C0","019cee71-b820-7af9-a58d-a11a258cd8ed","019cee5f-9f1f-7e58-80c1-9ba679249cc3","","982","
                <div class=""stimulus-container"">
                    <img src=""images/schematic_sequence/dinner_party_scheme/dinner_party_scheme_ten.png"" class=""exp-image"">
                    <div class=""question-area"">
                        <p style=""font-size: 20px; font-weight: bold; margin: 0;"">Is there a person in this image?</p>
                    </div>
                </div>","0","main_experiment_trial","ten","dinner_party_scheme","schematic_sequence","","","",""
"","","","","","html-keyboard-response","163","555578","0.0-163.0","A3929828C3B24640BD190C33EED450C0","019cee71-b820-7af9-a58d-a11a258cd8ed","019cee5f-9f1f-7e58-80c1-9ba679249cc3","","null","<div style=""background-color: white; width: 100vw; height: 100vh;""></div>","null","","","","","","","",""
"","","","","","html-keyboard-response","164","560581","0.0-164.0","A3929828C3B24640BD190C33EED450C0","019cee71-b820-7af9-a58d-a11a258cd8ed","019cee5f-9f1f-7e58-80c1-9ba679249cc3","","null","
                <div class=""stimulus-container"">
                    <img src=""images/schematic_sequence/supermarket_scheme/supermarket_scheme_1.png"" class=""exp-image"">
                    <div class=""question-area""></div> 
                </div>","null","","","","","","","",""
"","","","","","html-button-response","165","561699","0.0-165.0","A3929828C3B24640BD190C33EED450C0","019cee71-b820-7af9-a58d-a11a258cd8ed","019cee5f-9f1f-7e58-80c1-9ba679249cc3","","1116","
                <div class=""stimulus-container"">
                    <img src=""images/schematic_sequence/supermarket_scheme/supermarket_scheme_1.png"" class=""exp-image"">
                    <div class=""question-area"">
                        <p style=""font-size: 20px; font-weight: bold; margin: 0;"">Is there a person in this image?</p>
                    </div>
                </div>","1","main_experiment_trial","1","supermarket_scheme","schematic_sequence","","","",""
"","","","","","html-keyboard-response","166","566702","0.0-166.0","A3929828C3B24640BD190C33EED450C0","019cee71-b820-7af9-a58d-a11a258cd8ed","019cee5f-9f1f-7e58-80c1-9ba679249cc3","","null","
                <div class=""stimulus-container"">
                    <img src=""images/schematic_sequence/supermarket_scheme/supermarket_scheme_2.png"" class=""exp-image"">
                    <div class=""question-area""></div> 
                </div>","null","","","","","","","",""
"","","","","","html-button-response","167","567543","0.0-167.0","A3929828C3B24640BD190C33EED450C0","019cee71-b820-7af9-a58d-a11a258cd8ed","019cee5f-9f1f-7e58-80c1-9ba679249cc3","","840","
                <div class=""stimulus-container"">
                    <img src=""images/schematic_sequence/supermarket_scheme/supermarket_scheme_2.png"" class=""exp-image"">
                    <div class=""question-area"">
                        <p style=""font-size: 20px; font-weight: bold; margin: 0;"">Is there a person in this image?</p>
                    </div>
                </div>","1","main_experiment_trial","2","supermarket_scheme","schematic_sequence","","","",""
"","","","","","html-keyboard-response","168","572546","0.0-168.0","A3929828C3B24640BD190C33EED450C0","019cee71-b820-7af9-a58d-a11a258cd8ed","019cee5f-9f1f-7e58-80c1-9ba679249cc3","","null","
                <div class=""stimulus-container"">
                    <img src=""images/schematic_sequence/supermarket_scheme/supermarket_scheme_3.png"" class=""exp-image"">
                    <div class=""question-area""></div> 
                </div>","null","","","","","","","",""
"","","","","","html-button-response","169","573210","0.0-169.0","A3929828C3B24640BD190C33EED450C0","019cee71-b820-7af9-a58d-a11a258cd8ed","019cee5f-9f1f-7e58-80c1-9ba679249cc3","","663","
                <div class=""stimulus-container"">
                    <img src=""images/schematic_sequence/supermarket_scheme/supermarket_scheme_3.png"" class=""exp-image"">
                    <div class=""question-area"">
                        <p style=""font-size: 20px; font-weight: bold; margin: 0;"">Is there a person in this image?</p>
                    </div>
                </div>","1","main_experiment_trial","3","supermarket_scheme","schematic_sequence","","","",""
"","","","","","html-keyboard-response","170","578212","0.0-170.0","A3929828C3B24640BD190C33EED450C0","019cee71-b820-7af9-a58d-a11a258cd8ed","019cee5f-9f1f-7e58-80c1-9ba679249cc3","","null","
                <div class=""stimulus-container"">
                    <img src=""images/schematic_sequence/supermarket_scheme/supermarket_scheme_4.png"" class=""exp-image"">
                    <div class=""question-area""></div> 
                </div>","null","","","","","","","",""
"","","","","","html-button-response","171","579001","0.0-171.0","A3929828C3B24640BD190C33EED450C0","019cee71-b820-7af9-a58d-a11a258cd8ed","019cee5f-9f1f-7e58-80c1-9ba679249cc3","","787","
                <div class=""stimulus-container"">
                    <img src=""images/schematic_sequence/supermarket_scheme/supermarket_scheme_4.png"" class=""exp-image"">
                    <div class=""question-area"">
                        <p style=""font-size: 20px; font-weight: bold; margin: 0;"">Is there a person in this image?</p>
                    </div>
                </div>","0","main_experiment_trial","4","supermarket_scheme","schematic_sequence","","","",""
"","","","","","html-keyboard-response","172","584003","0.0-172.0","A3929828C3B24640BD190C33EED450C0","019cee71-b820-7af9-a58d-a11a258cd8ed","019cee5f-9f1f-7e58-80c1-9ba679249cc3","","null","
                <div class=""stimulus-container"">
                    <img src=""images/schematic_sequence/supermarket_scheme/supermarket_scheme_5.png"" class=""exp-image"">
                    <div class=""question-area""></div> 
                </div>","null","","","","","","","",""
"","","","","","html-button-response","173","585367","0.0-173.0","A3929828C3B24640BD190C33EED450C0","019cee71-b820-7af9-a58d-a11a258cd8ed","019cee5f-9f1f-7e58-80c1-9ba679249cc3","","1364","
                <div class=""stimulus-container"">
                    <img src=""images/schematic_sequence/supermarket_scheme/supermarket_scheme_5.png"" class=""exp-image"">
                    <div class=""question-area"">
                        <p style=""font-size: 20px; font-weight: bold; margin: 0;"">Is there a person in this image?</p>
                    </div>
                </div>","1","main_experiment_trial","5","supermarket_scheme","schematic_sequence","","","",""
"","","","","","html-keyboard-response","174","590370","0.0-174.0","A3929828C3B24640BD190C33EED450C0","019cee71-b820-7af9-a58d-a11a258cd8ed","019cee5f-9f1f-7e58-80c1-9ba679249cc3","","null","
                <div class=""stimulus-container"">
                    <img src=""images/schematic_sequence/supermarket_scheme/supermarket_scheme_6.png"" class=""exp-image"">
                    <div class=""question-area""></div> 
                </div>","null","","","","","","","",""
"","","","","","html-button-response","175","591299","0.0-175.0","A3929828C3B24640BD190C33EED450C0","019cee71-b820-7af9-a58d-a11a258cd8ed","019cee5f-9f1f-7e58-80c1-9ba679249cc3","","928","
                <div class=""stimulus-container"">
                    <img src=""images/schematic_sequence/supermarket_scheme/supermarket_scheme_6.png"" class=""exp-image"">
                    <div class=""question-area"">
                        <p style=""font-size: 20px; font-weight: bold; margin: 0;"">Is there a person in this image?</p>
                    </div>
                </div>","0","main_experiment_trial","6","supermarket_scheme","schematic_sequence","","","",""
"","","","","","html-keyboard-response","176","596302","0.0-176.0","A3929828C3B24640BD190C33EED450C0","019cee71-b820-7af9-a58d-a11a258cd8ed","019cee5f-9f1f-7e58-80c1-9ba679249cc3","","null","
                <div class=""stimulus-container"">
                    <img src=""images/schematic_sequence/supermarket_scheme/supermarket_scheme_7.png"" class=""exp-image"">
                    <div class=""question-area""></div> 
                </div>","null","","","","","","","",""
"","","","","","html-button-response","177","597426","0.0-177.0","A3929828C3B24640BD190C33EED450C0","019cee71-b820-7af9-a58d-a11a258cd8ed","019cee5f-9f1f-7e58-80c1-9ba679249cc3","","1123","
                <div class=""stimulus-container"">
                    <img src=""images/schematic_sequence/supermarket_scheme/supermarket_scheme_7.png"" class=""exp-image"">
                    <div class=""question-area"">
                        <p style=""font-size: 20px; font-weight: bold; margin: 0;"">Is there a person in this image?</p>
                    </div>
                </div>","0","main_experiment_trial","7","supermarket_scheme","schematic_sequence","","","",""
"","","","","","html-keyboard-response","178","602429","0.0-178.0","A3929828C3B24640BD190C33EED450C0","019cee71-b820-7af9-a58d-a11a258cd8ed","019cee5f-9f1f-7e58-80c1-9ba679249cc3","","null","
                <div class=""stimulus-container"">
                    <img src=""images/schematic_sequence/supermarket_scheme/supermarket_scheme_8.png"" class=""exp-image"">
                    <div class=""question-area""></div> 
                </div>","null","","","","","","","",""
"","","","","","html-button-response","179","603761","0.0-179.0","A3929828C3B24640BD190C33EED450C0","019cee71-b820-7af9-a58d-a11a258cd8ed","019cee5f-9f1f-7e58-80c1-9ba679249cc3","","1330","
                <div class=""stimulus-container"">
                    <img src=""images/schematic_sequence/supermarket_scheme/supermarket_scheme_8.png"" class=""exp-image"">
                    <div class=""question-area"">
                        <p style=""font-size: 20px; font-weight: bold; margin: 0;"">Is there a person in this image?</p>
                    </div>
                </div>","0","main_experiment_trial","8","supermarket_scheme","schematic_sequence","","","",""
"","","","","","html-keyboard-response","180","608763","0.0-180.0","A3929828C3B24640BD190C33EED450C0","019cee71-b820-7af9-a58d-a11a258cd8ed","019cee5f-9f1f-7e58-80c1-9ba679249cc3","","null","
                <div class=""stimulus-container"">
                    <img src=""images/schematic_sequence/supermarket_scheme/supermarket_scheme_9.png"" class=""exp-image"">
                    <div class=""question-area""></div> 
                </div>","null","","","","","","","",""
"","","","","","html-button-response","181","610772","0.0-181.0","A3929828C3B24640BD190C33EED450C0","019cee71-b820-7af9-a58d-a11a258cd8ed","019cee5f-9f1f-7e58-80c1-9ba679249cc3","","2007","
                <div class=""stimulus-container"">
                    <img src=""images/schematic_sequence/supermarket_scheme/supermarket_scheme_9.png"" class=""exp-image"">
                    <div class=""question-area"">
                        <p style=""font-size: 20px; font-weight: bold; margin: 0;"">Is there a person in this image?</p>
                    </div>
                </div>","0","main_experiment_trial","9","supermarket_scheme","schematic_sequence","","","",""
"","","","","","html-keyboard-response","182","615774","0.0-182.0","A3929828C3B24640BD190C33EED450C0","019cee71-b820-7af9-a58d-a11a258cd8ed","019cee5f-9f1f-7e58-80c1-9ba679249cc3","","null","
                <div class=""stimulus-container"">
                    <img src=""images/schematic_sequence/supermarket_scheme/supermarket_scheme_ten.png"" class=""exp-image"">
                    <div class=""question-area""></div> 
                </div>","null","","","","","","","",""
"","","","","","html-button-response","183","617651","0.0-183.0","A3929828C3B24640BD190C33EED450C0","019cee71-b820-7af9-a58d-a11a258cd8ed","019cee5f-9f1f-7e58-80c1-9ba679249cc3","","1875","
                <div class=""stimulus-container"">
                    <img src=""images/schematic_sequence/supermarket_scheme/supermarket_scheme_ten.png"" class=""exp-image"">
                    <div class=""question-area"">
                        <p style=""font-size: 20px; font-weight: bold; margin: 0;"">Is there a person in this image?</p>
                    </div>
                </div>","1","main_experiment_trial","ten","supermarket_scheme","schematic_sequence","","","",""
"","","","","","html-keyboard-response","184","618653","0.0-184.0","A3929828C3B24640BD190C33EED450C0","019cee71-b820-7af9-a58d-a11a258cd8ed","019cee5f-9f1f-7e58-80c1-9ba679249cc3","","null","<div style=""background-color: white; width: 100vw; height: 100vh;""></div>","null","","","","","","","",""
