"success","timeout","failed_images","failed_audio","failed_video","trial_type","trial_index","time_elapsed","internal_node_id","subject_id","study_id","session_id","view_history","rt","stimulus","response","task","image_index","folder","sequence_type","valuable_image_index","reward_type","correct_choice","chosen_image_index","target_X"
"true","false","[]","[]","[]","preload","0","7837","0.0-0.0","6DFEEE5D622B4162A92B4CAD7B698007","019cf07c-6453-7eaf-8c2f-c33c71cedbf5","019cf037-5203-781a-b900-108ccb1cab86","","","","","","","","","","","","",""
"","","","","","instructions","1","9825","0.0-1.0","6DFEEE5D622B4162A92B4CAD7B698007","019cf07c-6453-7eaf-8c2f-c33c71cedbf5","019cf037-5203-781a-b900-108ccb1cab86","[{""page_index"":0,""viewing_time"":1987}]","1988","","","","","","","","","","",""
"","","","","","instructions","2","18942","0.0-2.0","6DFEEE5D622B4162A92B4CAD7B698007","019cf07c-6453-7eaf-8c2f-c33c71cedbf5","019cf037-5203-781a-b900-108ccb1cab86","[{""page_index"":0,""viewing_time"":9116}]","9116","","","","","","","","","","",""
"true","","","","","fullscreen","3","21877","0.0-3.0","6DFEEE5D622B4162A92B4CAD7B698007","019cf07c-6453-7eaf-8c2f-c33c71cedbf5","019cf037-5203-781a-b900-108ccb1cab86","","1931","","","","","","","","","","",""
"","","","","","instructions","4","36867","0.0-4.0","6DFEEE5D622B4162A92B4CAD7B698007","019cf07c-6453-7eaf-8c2f-c33c71cedbf5","019cf037-5203-781a-b900-108ccb1cab86","[{""page_index"":0,""viewing_time"":14989}]","14989","","","","","","","","","","",""
"","","","","","instructions","5","46543","0.0-5.0","6DFEEE5D622B4162A92B4CAD7B698007","019cf07c-6453-7eaf-8c2f-c33c71cedbf5","019cf037-5203-781a-b900-108ccb1cab86","[{""page_index"":0,""viewing_time"":9676}]","9676","","","","","","","","","","",""
"","","","","","html-keyboard-response","6","50551","0.0-6.0","6DFEEE5D622B4162A92B4CAD7B698007","019cf07c-6453-7eaf-8c2f-c33c71cedbf5","019cf037-5203-781a-b900-108ccb1cab86","","null","
                <div class=""stimulus-container"">
                    <img src=""images/instructions/movie_1.png"" class=""exp-image"">
                    <div class=""question-area""></div> 
                </div>","null","","","","","","","","",""
"","","","","","html-button-response","7","53201","0.0-7.0","6DFEEE5D622B4162A92B4CAD7B698007","019cf07c-6453-7eaf-8c2f-c33c71cedbf5","019cf037-5203-781a-b900-108ccb1cab86","","2649","
                <div class=""stimulus-container"">
                    <img src=""images/instructions/movie_1.png"" class=""exp-image"">
                    <div class=""question-area"">
                        <p style=""font-size: 20px; font-weight: bold; margin: 0;"">Was there a person in this image?</p>
                    </div>
                </div>","0","example_question","1","","","","","","",""
"","","","","","html-keyboard-response","8","57204","0.0-8.0","6DFEEE5D622B4162A92B4CAD7B698007","019cf07c-6453-7eaf-8c2f-c33c71cedbf5","019cf037-5203-781a-b900-108ccb1cab86","","null","
                <div class=""stimulus-container"">
                    <img src=""images/instructions/movie_2.png"" class=""exp-image"">
                    <div class=""question-area""></div> 
                </div>","null","","","","","","","","",""
"","","","","","html-button-response","9","58741","0.0-9.0","6DFEEE5D622B4162A92B4CAD7B698007","019cf07c-6453-7eaf-8c2f-c33c71cedbf5","019cf037-5203-781a-b900-108ccb1cab86","","1535","
                <div class=""stimulus-container"">
                    <img src=""images/instructions/movie_2.png"" class=""exp-image"">
                    <div class=""question-area"">
                        <p style=""font-size: 20px; font-weight: bold; margin: 0;"">Was there a person in this image?</p>
                    </div>
                </div>","0","example_question","2","","","","","","",""
"","","","","","html-keyboard-response","10","62744","0.0-10.0","6DFEEE5D622B4162A92B4CAD7B698007","019cf07c-6453-7eaf-8c2f-c33c71cedbf5","019cf037-5203-781a-b900-108ccb1cab86","","null","
                <div class=""stimulus-container"">
                    <img src=""images/instructions/movie_3.png"" class=""exp-image"">
                    <div class=""question-area""></div> 
                </div>","null","","","","","","","","",""
"","","","","","html-button-response","11","63845","0.0-11.0","6DFEEE5D622B4162A92B4CAD7B698007","019cf07c-6453-7eaf-8c2f-c33c71cedbf5","019cf037-5203-781a-b900-108ccb1cab86","","1099","
                <div class=""stimulus-container"">
                    <img src=""images/instructions/movie_3.png"" class=""exp-image"">
                    <div class=""question-area"">
                        <p style=""font-size: 20px; font-weight: bold; margin: 0;"">Was there a person in this image?</p>
                    </div>
                </div>","0","example_question","3","","","","","","",""
"","","","","","html-keyboard-response","12","67853","0.0-12.0","6DFEEE5D622B4162A92B4CAD7B698007","019cf07c-6453-7eaf-8c2f-c33c71cedbf5","019cf037-5203-781a-b900-108ccb1cab86","","null","
                <div class=""stimulus-container"">
                    <img src=""images/instructions/movie_4.png"" class=""exp-image"">
                    <div class=""question-area""></div> 
                </div>","null","","","","","","","","",""
"","","","","","html-button-response","13","68901","0.0-13.0","6DFEEE5D622B4162A92B4CAD7B698007","019cf07c-6453-7eaf-8c2f-c33c71cedbf5","019cf037-5203-781a-b900-108ccb1cab86","","1046","
                <div class=""stimulus-container"">
                    <img src=""images/instructions/movie_4.png"" class=""exp-image"">
                    <div class=""question-area"">
                        <p style=""font-size: 20px; font-weight: bold; margin: 0;"">Was there a person in this image?</p>
                    </div>
                </div>","0","example_question","4","","","","","","",""
"","","","","","instructions","14","71030","0.0-14.0","6DFEEE5D622B4162A92B4CAD7B698007","019cf07c-6453-7eaf-8c2f-c33c71cedbf5","019cf037-5203-781a-b900-108ccb1cab86","[{""page_index"":0,""viewing_time"":2128}]","2128","","","","","","","","","","",""
"","","","","","instructions","15","82136","0.0-15.0","6DFEEE5D622B4162A92B4CAD7B698007","019cf07c-6453-7eaf-8c2f-c33c71cedbf5","019cf037-5203-781a-b900-108ccb1cab86","[{""page_index"":0,""viewing_time"":11106}]","11106","","","","","","","","","","",""
"","","","","","html-keyboard-response","16","83143","0.0-16.0","6DFEEE5D622B4162A92B4CAD7B698007","019cf07c-6453-7eaf-8c2f-c33c71cedbf5","019cf037-5203-781a-b900-108ccb1cab86","","null","<div style=""background-color: white; width: 100vw; height: 100vh;""></div>","null","","","","","","","","",""
"","","","","","html-keyboard-response","17","88149","0.0-17.0","6DFEEE5D622B4162A92B4CAD7B698007","019cf07c-6453-7eaf-8c2f-c33c71cedbf5","019cf037-5203-781a-b900-108ccb1cab86","","null","
                <div class=""stimulus-container"">
                    <img src=""images/schematic_sequence/flight_scheme/flight_scheme_1.png"" class=""exp-image"">
                    <div class=""question-area""></div> 
                </div>","null","","","","","","","","",""
"","","","","","html-button-response","18","90717","0.0-18.0","6DFEEE5D622B4162A92B4CAD7B698007","019cf07c-6453-7eaf-8c2f-c33c71cedbf5","019cf037-5203-781a-b900-108ccb1cab86","","2566","
                <div class=""stimulus-container"">
                    <img src=""images/schematic_sequence/flight_scheme/flight_scheme_1.png"" class=""exp-image"">
                    <div class=""question-area"">
                        <p style=""font-size: 20px; font-weight: bold; margin: 0;"">Is there a person in this image?</p>
                    </div>
                </div>","1","main_experiment_trial","1","flight_scheme","schematic_sequence","","","","",""
"","","","","","html-keyboard-response","19","95719","0.0-19.0","6DFEEE5D622B4162A92B4CAD7B698007","019cf07c-6453-7eaf-8c2f-c33c71cedbf5","019cf037-5203-781a-b900-108ccb1cab86","","null","
                <div class=""stimulus-container"">
                    <img src=""images/schematic_sequence/flight_scheme/flight_scheme_2.png"" class=""exp-image"">
                    <div class=""question-area""></div> 
                </div>","null","","","","","","","","",""
"","","","","","html-button-response","20","96430","0.0-20.0","6DFEEE5D622B4162A92B4CAD7B698007","019cf07c-6453-7eaf-8c2f-c33c71cedbf5","019cf037-5203-781a-b900-108ccb1cab86","","709","
                <div class=""stimulus-container"">
                    <img src=""images/schematic_sequence/flight_scheme/flight_scheme_2.png"" class=""exp-image"">
                    <div class=""question-area"">
                        <p style=""font-size: 20px; font-weight: bold; margin: 0;"">Is there a person in this image?</p>
                    </div>
                </div>","1","main_experiment_trial","2","flight_scheme","schematic_sequence","","","","",""
"","","","","","html-keyboard-response","21","101432","0.0-21.0","6DFEEE5D622B4162A92B4CAD7B698007","019cf07c-6453-7eaf-8c2f-c33c71cedbf5","019cf037-5203-781a-b900-108ccb1cab86","","null","
                <div class=""stimulus-container"">
                    <img src=""images/schematic_sequence/flight_scheme/flight_scheme_3.png"" class=""exp-image"">
                    <div class=""question-area""></div> 
                </div>","null","","","","","","","","",""
"","","","","","html-button-response","22","102176","0.0-22.0","6DFEEE5D622B4162A92B4CAD7B698007","019cf07c-6453-7eaf-8c2f-c33c71cedbf5","019cf037-5203-781a-b900-108ccb1cab86","","743","
                <div class=""stimulus-container"">
                    <img src=""images/schematic_sequence/flight_scheme/flight_scheme_3.png"" class=""exp-image"">
                    <div class=""question-area"">
                        <p style=""font-size: 20px; font-weight: bold; margin: 0;"">Is there a person in this image?</p>
                    </div>
                </div>","0","main_experiment_trial","3","flight_scheme","schematic_sequence","","","","",""
"","","","","","html-keyboard-response","23","107178","0.0-23.0","6DFEEE5D622B4162A92B4CAD7B698007","019cf07c-6453-7eaf-8c2f-c33c71cedbf5","019cf037-5203-781a-b900-108ccb1cab86","","null","
                <div class=""stimulus-container"">
                    <img src=""images/schematic_sequence/flight_scheme/flight_scheme_4.png"" class=""exp-image"">
                    <div class=""question-area""></div> 
                </div>","null","","","","","","","","",""
"","","","","","html-button-response","24","107815","0.0-24.0","6DFEEE5D622B4162A92B4CAD7B698007","019cf07c-6453-7eaf-8c2f-c33c71cedbf5","019cf037-5203-781a-b900-108ccb1cab86","","635","
                <div class=""stimulus-container"">
                    <img src=""images/schematic_sequence/flight_scheme/flight_scheme_4.png"" class=""exp-image"">
                    <div class=""question-area"">
                        <p style=""font-size: 20px; font-weight: bold; margin: 0;"">Is there a person in this image?</p>
                    </div>
                </div>","0","main_experiment_trial","4","flight_scheme","schematic_sequence","","","","",""
"","","","","","html-keyboard-response","25","112819","0.0-25.0","6DFEEE5D622B4162A92B4CAD7B698007","019cf07c-6453-7eaf-8c2f-c33c71cedbf5","019cf037-5203-781a-b900-108ccb1cab86","","null","
                <div class=""stimulus-container"">
                    <img src=""images/schematic_sequence/flight_scheme/flight_scheme_5.png"" class=""exp-image"">
                    <div class=""question-area""></div> 
                </div>","null","","","","","","","","",""
"","","","","","html-button-response","26","113749","0.0-26.0","6DFEEE5D622B4162A92B4CAD7B698007","019cf07c-6453-7eaf-8c2f-c33c71cedbf5","019cf037-5203-781a-b900-108ccb1cab86","","929","
                <div class=""stimulus-container"">
                    <img src=""images/schematic_sequence/flight_scheme/flight_scheme_5.png"" class=""exp-image"">
                    <div class=""question-area"">
                        <p style=""font-size: 20px; font-weight: bold; margin: 0;"">Is there a person in this image?</p>
                    </div>
                </div>","0","main_experiment_trial","5","flight_scheme","schematic_sequence","","","","",""
"","","","","","html-keyboard-response","27","118761","0.0-27.0","6DFEEE5D622B4162A92B4CAD7B698007","019cf07c-6453-7eaf-8c2f-c33c71cedbf5","019cf037-5203-781a-b900-108ccb1cab86","","null","
                <div class=""stimulus-container"">
                    <img src=""images/schematic_sequence/flight_scheme/flight_scheme_6.png"" class=""exp-image"">
                    <div class=""question-area""></div> 
                </div>","null","","","","","","","","",""
"","","","","","html-button-response","28","119470","0.0-28.0","6DFEEE5D622B4162A92B4CAD7B698007","019cf07c-6453-7eaf-8c2f-c33c71cedbf5","019cf037-5203-781a-b900-108ccb1cab86","","708","
                <div class=""stimulus-container"">
                    <img src=""images/schematic_sequence/flight_scheme/flight_scheme_6.png"" class=""exp-image"">
                    <div class=""question-area"">
                        <p style=""font-size: 20px; font-weight: bold; margin: 0;"">Is there a person in this image?</p>
                    </div>
                </div>","1","main_experiment_trial","6","flight_scheme","schematic_sequence","","","","",""
"","","","","","html-keyboard-response","29","124481","0.0-29.0","6DFEEE5D622B4162A92B4CAD7B698007","019cf07c-6453-7eaf-8c2f-c33c71cedbf5","019cf037-5203-781a-b900-108ccb1cab86","","null","
                <div class=""stimulus-container"">
                    <img src=""images/schematic_sequence/flight_scheme/flight_scheme_7.png"" class=""exp-image"">
                    <div class=""question-area""></div> 
                </div>","null","","","","","","","","",""
"","","","","","html-button-response","30","125281","0.0-30.0","6DFEEE5D622B4162A92B4CAD7B698007","019cf07c-6453-7eaf-8c2f-c33c71cedbf5","019cf037-5203-781a-b900-108ccb1cab86","","799","
                <div class=""stimulus-container"">
                    <img src=""images/schematic_sequence/flight_scheme/flight_scheme_7.png"" class=""exp-image"">
                    <div class=""question-area"">
                        <p style=""font-size: 20px; font-weight: bold; margin: 0;"">Is there a person in this image?</p>
                    </div>
                </div>","1","main_experiment_trial","7","flight_scheme","schematic_sequence","","","","",""
"","","","","","html-keyboard-response","31","130307","0.0-31.0","6DFEEE5D622B4162A92B4CAD7B698007","019cf07c-6453-7eaf-8c2f-c33c71cedbf5","019cf037-5203-781a-b900-108ccb1cab86","","null","
                <div class=""stimulus-container"">
                    <img src=""images/schematic_sequence/flight_scheme/flight_scheme_8.png"" class=""exp-image"">
                    <div class=""question-area""></div> 
                </div>","null","","","","","","","","",""
"","","","","","html-button-response","32","130980","0.0-32.0","6DFEEE5D622B4162A92B4CAD7B698007","019cf07c-6453-7eaf-8c2f-c33c71cedbf5","019cf037-5203-781a-b900-108ccb1cab86","","672","
                <div class=""stimulus-container"">
                    <img src=""images/schematic_sequence/flight_scheme/flight_scheme_8.png"" class=""exp-image"">
                    <div class=""question-area"">
                        <p style=""font-size: 20px; font-weight: bold; margin: 0;"">Is there a person in this image?</p>
                    </div>
                </div>","1","main_experiment_trial","8","flight_scheme","schematic_sequence","","","","",""
"","","","","","html-keyboard-response","33","135995","0.0-33.0","6DFEEE5D622B4162A92B4CAD7B698007","019cf07c-6453-7eaf-8c2f-c33c71cedbf5","019cf037-5203-781a-b900-108ccb1cab86","","null","
                <div class=""stimulus-container"">
                    <img src=""images/schematic_sequence/flight_scheme/flight_scheme_9.png"" class=""exp-image"">
                    <div class=""question-area""></div> 
                </div>","null","","","","","","","","",""
"","","","","","html-button-response","34","136858","0.0-34.0","6DFEEE5D622B4162A92B4CAD7B698007","019cf07c-6453-7eaf-8c2f-c33c71cedbf5","019cf037-5203-781a-b900-108ccb1cab86","","862","
                <div class=""stimulus-container"">
                    <img src=""images/schematic_sequence/flight_scheme/flight_scheme_9.png"" class=""exp-image"">
                    <div class=""question-area"">
                        <p style=""font-size: 20px; font-weight: bold; margin: 0;"">Is there a person in this image?</p>
                    </div>
                </div>","0","main_experiment_trial","9","flight_scheme","schematic_sequence","","","","",""
"","","","","","html-keyboard-response","35","141868","0.0-35.0","6DFEEE5D622B4162A92B4CAD7B698007","019cf07c-6453-7eaf-8c2f-c33c71cedbf5","019cf037-5203-781a-b900-108ccb1cab86","","null","
                <div class=""stimulus-container"">
                    <img src=""images/schematic_sequence/flight_scheme/flight_scheme_ten.png"" class=""exp-image"">
                    <div class=""question-area""></div> 
                </div>","null","","","","","","","","",""
"","","","","","html-button-response","36","142434","0.0-36.0","6DFEEE5D622B4162A92B4CAD7B698007","019cf07c-6453-7eaf-8c2f-c33c71cedbf5","019cf037-5203-781a-b900-108ccb1cab86","","565","
                <div class=""stimulus-container"">
                    <img src=""images/schematic_sequence/flight_scheme/flight_scheme_ten.png"" class=""exp-image"">
                    <div class=""question-area"">
                        <p style=""font-size: 20px; font-weight: bold; margin: 0;"">Is there a person in this image?</p>
                    </div>
                </div>","0","main_experiment_trial","ten","flight_scheme","schematic_sequence","","","","",""
"","","","","","html-keyboard-response","37","143441","0.0-37.0","6DFEEE5D622B4162A92B4CAD7B698007","019cf07c-6453-7eaf-8c2f-c33c71cedbf5","019cf037-5203-781a-b900-108ccb1cab86","","null","<div style=""background-color: white; width: 100vw; height: 100vh;""></div>","null","","","","","","","","",""
"","","","","","html-keyboard-response","38","148450","0.0-38.0","6DFEEE5D622B4162A92B4CAD7B698007","019cf07c-6453-7eaf-8c2f-c33c71cedbf5","019cf037-5203-781a-b900-108ccb1cab86","","null","
                <div class=""stimulus-container"">
                    <img src=""images/schematic_sequence/supermarket_scheme/supermarket_scheme_1.png"" class=""exp-image"">
                    <div class=""question-area""></div> 
                </div>","null","","","","","","","","",""
"","","","","","html-button-response","39","150145","0.0-39.0","6DFEEE5D622B4162A92B4CAD7B698007","019cf07c-6453-7eaf-8c2f-c33c71cedbf5","019cf037-5203-781a-b900-108ccb1cab86","","1694","
                <div class=""stimulus-container"">
                    <img src=""images/schematic_sequence/supermarket_scheme/supermarket_scheme_1.png"" class=""exp-image"">
                    <div class=""question-area"">
                        <p style=""font-size: 20px; font-weight: bold; margin: 0;"">Is there a person in this image?</p>
                    </div>
                </div>","1","main_experiment_trial","1","supermarket_scheme","schematic_sequence","","","","",""
"","","","","","html-keyboard-response","40","155151","0.0-40.0","6DFEEE5D622B4162A92B4CAD7B698007","019cf07c-6453-7eaf-8c2f-c33c71cedbf5","019cf037-5203-781a-b900-108ccb1cab86","","null","
                <div class=""stimulus-container"">
                    <img src=""images/schematic_sequence/supermarket_scheme/supermarket_scheme_2.png"" class=""exp-image"">
                    <div class=""question-area""></div> 
                </div>","null","","","","","","","","",""
"","","","","","html-button-response","41","156134","0.0-41.0","6DFEEE5D622B4162A92B4CAD7B698007","019cf07c-6453-7eaf-8c2f-c33c71cedbf5","019cf037-5203-781a-b900-108ccb1cab86","","982","
                <div class=""stimulus-container"">
                    <img src=""images/schematic_sequence/supermarket_scheme/supermarket_scheme_2.png"" class=""exp-image"">
                    <div class=""question-area"">
                        <p style=""font-size: 20px; font-weight: bold; margin: 0;"">Is there a person in this image?</p>
                    </div>
                </div>","1","main_experiment_trial","2","supermarket_scheme","schematic_sequence","","","","",""
"","","","","","html-keyboard-response","42","161151","0.0-42.0","6DFEEE5D622B4162A92B4CAD7B698007","019cf07c-6453-7eaf-8c2f-c33c71cedbf5","019cf037-5203-781a-b900-108ccb1cab86","","null","
                <div class=""stimulus-container"">
                    <img src=""images/schematic_sequence/supermarket_scheme/supermarket_scheme_3.png"" class=""exp-image"">
                    <div class=""question-area""></div> 
                </div>","null","","","","","","","","",""
"","","","","","html-button-response","43","161882","0.0-43.0","6DFEEE5D622B4162A92B4CAD7B698007","019cf07c-6453-7eaf-8c2f-c33c71cedbf5","019cf037-5203-781a-b900-108ccb1cab86","","730","
                <div class=""stimulus-container"">
                    <img src=""images/schematic_sequence/supermarket_scheme/supermarket_scheme_3.png"" class=""exp-image"">
                    <div class=""question-area"">
                        <p style=""font-size: 20px; font-weight: bold; margin: 0;"">Is there a person in this image?</p>
                    </div>
                </div>","1","main_experiment_trial","3","supermarket_scheme","schematic_sequence","","","","",""
"","","","","","html-keyboard-response","44","166889","0.0-44.0","6DFEEE5D622B4162A92B4CAD7B698007","019cf07c-6453-7eaf-8c2f-c33c71cedbf5","019cf037-5203-781a-b900-108ccb1cab86","","null","
                <div class=""stimulus-container"">
                    <img src=""images/schematic_sequence/supermarket_scheme/supermarket_scheme_4.png"" class=""exp-image"">
                    <div class=""question-area""></div> 
                </div>","null","","","","","","","","",""
"","","","","","html-button-response","45","167764","0.0-45.0","6DFEEE5D622B4162A92B4CAD7B698007","019cf07c-6453-7eaf-8c2f-c33c71cedbf5","019cf037-5203-781a-b900-108ccb1cab86","","874","
                <div class=""stimulus-container"">
                    <img src=""images/schematic_sequence/supermarket_scheme/supermarket_scheme_4.png"" class=""exp-image"">
                    <div class=""question-area"">
                        <p style=""font-size: 20px; font-weight: bold; margin: 0;"">Is there a person in this image?</p>
                    </div>
                </div>","0","main_experiment_trial","4","supermarket_scheme","schematic_sequence","","","","",""
"","","","","","html-keyboard-response","46","172767","0.0-46.0","6DFEEE5D622B4162A92B4CAD7B698007","019cf07c-6453-7eaf-8c2f-c33c71cedbf5","019cf037-5203-781a-b900-108ccb1cab86","","null","
                <div class=""stimulus-container"">
                    <img src=""images/schematic_sequence/supermarket_scheme/supermarket_scheme_5.png"" class=""exp-image"">
                    <div class=""question-area""></div> 
                </div>","null","","","","","","","","",""
"","","","","","html-button-response","47","173446","0.0-47.0","6DFEEE5D622B4162A92B4CAD7B698007","019cf07c-6453-7eaf-8c2f-c33c71cedbf5","019cf037-5203-781a-b900-108ccb1cab86","","677","
                <div class=""stimulus-container"">
                    <img src=""images/schematic_sequence/supermarket_scheme/supermarket_scheme_5.png"" class=""exp-image"">
                    <div class=""question-area"">
                        <p style=""font-size: 20px; font-weight: bold; margin: 0;"">Is there a person in this image?</p>
                    </div>
                </div>","1","main_experiment_trial","5","supermarket_scheme","schematic_sequence","","","","",""
"","","","","","html-keyboard-response","48","178454","0.0-48.0","6DFEEE5D622B4162A92B4CAD7B698007","019cf07c-6453-7eaf-8c2f-c33c71cedbf5","019cf037-5203-781a-b900-108ccb1cab86","","null","
                <div class=""stimulus-container"">
                    <img src=""images/schematic_sequence/supermarket_scheme/supermarket_scheme_6.png"" class=""exp-image"">
                    <div class=""question-area""></div> 
                </div>","null","","","","","","","","",""
"","","","","","html-button-response","49","179749","0.0-49.0","6DFEEE5D622B4162A92B4CAD7B698007","019cf07c-6453-7eaf-8c2f-c33c71cedbf5","019cf037-5203-781a-b900-108ccb1cab86","","1292","
                <div class=""stimulus-container"">
                    <img src=""images/schematic_sequence/supermarket_scheme/supermarket_scheme_6.png"" class=""exp-image"">
                    <div class=""question-area"">
                        <p style=""font-size: 20px; font-weight: bold; margin: 0;"">Is there a person in this image?</p>
                    </div>
                </div>","0","main_experiment_trial","6","supermarket_scheme","schematic_sequence","","","","",""
"","","","","","html-keyboard-response","50","184757","0.0-50.0","6DFEEE5D622B4162A92B4CAD7B698007","019cf07c-6453-7eaf-8c2f-c33c71cedbf5","019cf037-5203-781a-b900-108ccb1cab86","","null","
                <div class=""stimulus-container"">
                    <img src=""images/schematic_sequence/supermarket_scheme/supermarket_scheme_7.png"" class=""exp-image"">
                    <div class=""question-area""></div> 
                </div>","null","","","","","","","","",""
"","","","","","html-button-response","51","185398","0.0-51.0","6DFEEE5D622B4162A92B4CAD7B698007","019cf07c-6453-7eaf-8c2f-c33c71cedbf5","019cf037-5203-781a-b900-108ccb1cab86","","639","
                <div class=""stimulus-container"">
                    <img src=""images/schematic_sequence/supermarket_scheme/supermarket_scheme_7.png"" class=""exp-image"">
                    <div class=""question-area"">
                        <p style=""font-size: 20px; font-weight: bold; margin: 0;"">Is there a person in this image?</p>
                    </div>
                </div>","0","main_experiment_trial","7","supermarket_scheme","schematic_sequence","","","","",""
"","","","","","html-keyboard-response","52","190413","0.0-52.0","6DFEEE5D622B4162A92B4CAD7B698007","019cf07c-6453-7eaf-8c2f-c33c71cedbf5","019cf037-5203-781a-b900-108ccb1cab86","","null","
                <div class=""stimulus-container"">
                    <img src=""images/schematic_sequence/supermarket_scheme/supermarket_scheme_8.png"" class=""exp-image"">
                    <div class=""question-area""></div> 
                </div>","null","","","","","","","","",""
"","","","","","html-button-response","53","191045","0.0-53.0","6DFEEE5D622B4162A92B4CAD7B698007","019cf07c-6453-7eaf-8c2f-c33c71cedbf5","019cf037-5203-781a-b900-108ccb1cab86","","631","
                <div class=""stimulus-container"">
                    <img src=""images/schematic_sequence/supermarket_scheme/supermarket_scheme_8.png"" class=""exp-image"">
                    <div class=""question-area"">
                        <p style=""font-size: 20px; font-weight: bold; margin: 0;"">Is there a person in this image?</p>
                    </div>
                </div>","0","main_experiment_trial","8","supermarket_scheme","schematic_sequence","","","","",""
"","","","","","html-keyboard-response","54","196047","0.0-54.0","6DFEEE5D622B4162A92B4CAD7B698007","019cf07c-6453-7eaf-8c2f-c33c71cedbf5","019cf037-5203-781a-b900-108ccb1cab86","","null","
                <div class=""stimulus-container"">
                    <img src=""images/schematic_sequence/supermarket_scheme/supermarket_scheme_9.png"" class=""exp-image"">
                    <div class=""question-area""></div> 
                </div>","null","","","","","","","","",""
"","","","","","html-button-response","55","196664","0.0-55.0","6DFEEE5D622B4162A92B4CAD7B698007","019cf07c-6453-7eaf-8c2f-c33c71cedbf5","019cf037-5203-781a-b900-108ccb1cab86","","616","
                <div class=""stimulus-container"">
                    <img src=""images/schematic_sequence/supermarket_scheme/supermarket_scheme_9.png"" class=""exp-image"">
                    <div class=""question-area"">
                        <p style=""font-size: 20px; font-weight: bold; margin: 0;"">Is there a person in this image?</p>
                    </div>
                </div>","0","main_experiment_trial","9","supermarket_scheme","schematic_sequence","","","","",""
"","","","","","html-keyboard-response","56","201675","0.0-56.0","6DFEEE5D622B4162A92B4CAD7B698007","019cf07c-6453-7eaf-8c2f-c33c71cedbf5","019cf037-5203-781a-b900-108ccb1cab86","","null","
                <div class=""stimulus-container"">
                    <img src=""images/schematic_sequence/supermarket_scheme/supermarket_scheme_ten.png"" class=""exp-image"">
                    <div class=""question-area""></div> 
                </div>","null","","","","","","","","",""
"","","","","","html-button-response","57","202302","0.0-57.0","6DFEEE5D622B4162A92B4CAD7B698007","019cf07c-6453-7eaf-8c2f-c33c71cedbf5","019cf037-5203-781a-b900-108ccb1cab86","","625","
                <div class=""stimulus-container"">
                    <img src=""images/schematic_sequence/supermarket_scheme/supermarket_scheme_ten.png"" class=""exp-image"">
                    <div class=""question-area"">
                        <p style=""font-size: 20px; font-weight: bold; margin: 0;"">Is there a person in this image?</p>
                    </div>
                </div>","1","main_experiment_trial","ten","supermarket_scheme","schematic_sequence","","","","",""
"","","","","","html-keyboard-response","58","203317","0.0-58.0","6DFEEE5D622B4162A92B4CAD7B698007","019cf07c-6453-7eaf-8c2f-c33c71cedbf5","019cf037-5203-781a-b900-108ccb1cab86","","null","<div style=""background-color: white; width: 100vw; height: 100vh;""></div>","null","","","","","","","","",""
"","","","","","html-keyboard-response","59","208321","0.0-59.0","6DFEEE5D622B4162A92B4CAD7B698007","019cf07c-6453-7eaf-8c2f-c33c71cedbf5","019cf037-5203-781a-b900-108ccb1cab86","","null","
                <div class=""stimulus-container"">
                    <img src=""images/causal_sequence/the_performance_causal/the_performance_causal_1.png"" class=""exp-image"">
                    <div class=""question-area""></div> 
                </div>","null","","","","","","","","",""
"","","","","","html-button-response","60","209791","0.0-60.0","6DFEEE5D622B4162A92B4CAD7B698007","019cf07c-6453-7eaf-8c2f-c33c71cedbf5","019cf037-5203-781a-b900-108ccb1cab86","","1468","
                <div class=""stimulus-container"">
                    <img src=""images/causal_sequence/the_performance_causal/the_performance_causal_1.png"" class=""exp-image"">
                    <div class=""question-area"">
                        <p style=""font-size: 20px; font-weight: bold; margin: 0;"">Is there a person in this image?</p>
                    </div>
                </div>","0","main_experiment_trial","1","the_performance_causal","causal_sequence","","","","",""
"","","","","","html-keyboard-response","61","214805","0.0-61.0","6DFEEE5D622B4162A92B4CAD7B698007","019cf07c-6453-7eaf-8c2f-c33c71cedbf5","019cf037-5203-781a-b900-108ccb1cab86","","null","
                <div class=""stimulus-container"">
                    <img src=""images/causal_sequence/the_performance_causal/the_performance_causal_2.png"" class=""exp-image"">
                    <div class=""question-area""></div> 
                </div>","null","","","","","","","","",""
"","","","","","html-button-response","62","215750","0.0-62.0","6DFEEE5D622B4162A92B4CAD7B698007","019cf07c-6453-7eaf-8c2f-c33c71cedbf5","019cf037-5203-781a-b900-108ccb1cab86","","943","
                <div class=""stimulus-container"">
                    <img src=""images/causal_sequence/the_performance_causal/the_performance_causal_2.png"" class=""exp-image"">
                    <div class=""question-area"">
                        <p style=""font-size: 20px; font-weight: bold; margin: 0;"">Is there a person in this image?</p>
                    </div>
                </div>","0","main_experiment_trial","2","the_performance_causal","causal_sequence","","","","",""
"","","","","","html-keyboard-response","63","220756","0.0-63.0","6DFEEE5D622B4162A92B4CAD7B698007","019cf07c-6453-7eaf-8c2f-c33c71cedbf5","019cf037-5203-781a-b900-108ccb1cab86","","null","
                <div class=""stimulus-container"">
                    <img src=""images/causal_sequence/the_performance_causal/the_performance_causal_3.png"" class=""exp-image"">
                    <div class=""question-area""></div> 
                </div>","null","","","","","","","","",""
"","","","","","html-button-response","64","223099","0.0-64.0","6DFEEE5D622B4162A92B4CAD7B698007","019cf07c-6453-7eaf-8c2f-c33c71cedbf5","019cf037-5203-781a-b900-108ccb1cab86","","2342","
                <div class=""stimulus-container"">
                    <img src=""images/causal_sequence/the_performance_causal/the_performance_causal_3.png"" class=""exp-image"">
                    <div class=""question-area"">
                        <p style=""font-size: 20px; font-weight: bold; margin: 0;"">Is there a person in this image?</p>
                    </div>
                </div>","0","main_experiment_trial","3","the_performance_causal","causal_sequence","","","","",""
"","","","","","html-keyboard-response","65","228113","0.0-65.0","6DFEEE5D622B4162A92B4CAD7B698007","019cf07c-6453-7eaf-8c2f-c33c71cedbf5","019cf037-5203-781a-b900-108ccb1cab86","","null","
                <div class=""stimulus-container"">
                    <img src=""images/causal_sequence/the_performance_causal/the_performance_causal_4.png"" class=""exp-image"">
                    <div class=""question-area""></div> 
                </div>","null","","","","","","","","",""
"","","","","","html-button-response","66","228728","0.0-66.0","6DFEEE5D622B4162A92B4CAD7B698007","019cf07c-6453-7eaf-8c2f-c33c71cedbf5","019cf037-5203-781a-b900-108ccb1cab86","","613","
                <div class=""stimulus-container"">
                    <img src=""images/causal_sequence/the_performance_causal/the_performance_causal_4.png"" class=""exp-image"">
                    <div class=""question-area"">
                        <p style=""font-size: 20px; font-weight: bold; margin: 0;"">Is there a person in this image?</p>
                    </div>
                </div>","0","main_experiment_trial","4","the_performance_causal","causal_sequence","","","","",""
"","","","","","html-keyboard-response","67","233733","0.0-67.0","6DFEEE5D622B4162A92B4CAD7B698007","019cf07c-6453-7eaf-8c2f-c33c71cedbf5","019cf037-5203-781a-b900-108ccb1cab86","","null","
                <div class=""stimulus-container"">
                    <img src=""images/causal_sequence/the_performance_causal/the_performance_causal_5.png"" class=""exp-image"">
                    <div class=""question-area""></div> 
                </div>","null","","","","","","","","",""
"","","","","","html-button-response","68","235732","0.0-68.0","6DFEEE5D622B4162A92B4CAD7B698007","019cf07c-6453-7eaf-8c2f-c33c71cedbf5","019cf037-5203-781a-b900-108ccb1cab86","","1998","
                <div class=""stimulus-container"">
                    <img src=""images/causal_sequence/the_performance_causal/the_performance_causal_5.png"" class=""exp-image"">
                    <div class=""question-area"">
                        <p style=""font-size: 20px; font-weight: bold; margin: 0;"">Is there a person in this image?</p>
                    </div>
                </div>","0","main_experiment_trial","5","the_performance_causal","causal_sequence","","","","",""
"","","","","","html-keyboard-response","69","240737","0.0-69.0","6DFEEE5D622B4162A92B4CAD7B698007","019cf07c-6453-7eaf-8c2f-c33c71cedbf5","019cf037-5203-781a-b900-108ccb1cab86","","null","
                <div class=""stimulus-container"">
                    <img src=""images/causal_sequence/the_performance_causal/the_performance_causal_6.png"" class=""exp-image"">
                    <div class=""question-area""></div> 
                </div>","null","","","","","","","","",""
"","","","","","html-button-response","70","242133","0.0-70.0","6DFEEE5D622B4162A92B4CAD7B698007","019cf07c-6453-7eaf-8c2f-c33c71cedbf5","019cf037-5203-781a-b900-108ccb1cab86","","1394","
                <div class=""stimulus-container"">
                    <img src=""images/causal_sequence/the_performance_causal/the_performance_causal_6.png"" class=""exp-image"">
                    <div class=""question-area"">
                        <p style=""font-size: 20px; font-weight: bold; margin: 0;"">Is there a person in this image?</p>
                    </div>
                </div>","0","main_experiment_trial","6","the_performance_causal","causal_sequence","","","","",""
"","","","","","html-keyboard-response","71","247144","0.0-71.0","6DFEEE5D622B4162A92B4CAD7B698007","019cf07c-6453-7eaf-8c2f-c33c71cedbf5","019cf037-5203-781a-b900-108ccb1cab86","","null","
                <div class=""stimulus-container"">
                    <img src=""images/causal_sequence/the_performance_causal/the_performance_causal_7.png"" class=""exp-image"">
                    <div class=""question-area""></div> 
                </div>","null","","","","","","","","",""
"","","","","","html-button-response","72","247993","0.0-72.0","6DFEEE5D622B4162A92B4CAD7B698007","019cf07c-6453-7eaf-8c2f-c33c71cedbf5","019cf037-5203-781a-b900-108ccb1cab86","","847","
                <div class=""stimulus-container"">
                    <img src=""images/causal_sequence/the_performance_causal/the_performance_causal_7.png"" class=""exp-image"">
                    <div class=""question-area"">
                        <p style=""font-size: 20px; font-weight: bold; margin: 0;"">Is there a person in this image?</p>
                    </div>
                </div>","0","main_experiment_trial","7","the_performance_causal","causal_sequence","","","","",""
"","","","","","html-keyboard-response","73","253006","0.0-73.0","6DFEEE5D622B4162A92B4CAD7B698007","019cf07c-6453-7eaf-8c2f-c33c71cedbf5","019cf037-5203-781a-b900-108ccb1cab86","","null","
                <div class=""stimulus-container"">
                    <img src=""images/causal_sequence/the_performance_causal/the_performance_causal_8.png"" class=""exp-image"">
                    <div class=""question-area""></div> 
                </div>","null","","","","","","","","",""
"","","","","","html-button-response","74","253931","0.0-74.0","6DFEEE5D622B4162A92B4CAD7B698007","019cf07c-6453-7eaf-8c2f-c33c71cedbf5","019cf037-5203-781a-b900-108ccb1cab86","","923","
                <div class=""stimulus-container"">
                    <img src=""images/causal_sequence/the_performance_causal/the_performance_causal_8.png"" class=""exp-image"">
                    <div class=""question-area"">
                        <p style=""font-size: 20px; font-weight: bold; margin: 0;"">Is there a person in this image?</p>
                    </div>
                </div>","0","main_experiment_trial","8","the_performance_causal","causal_sequence","","","","",""
"","","","","","html-keyboard-response","75","258948","0.0-75.0","6DFEEE5D622B4162A92B4CAD7B698007","019cf07c-6453-7eaf-8c2f-c33c71cedbf5","019cf037-5203-781a-b900-108ccb1cab86","","null","
                <div class=""stimulus-container"">
                    <img src=""images/causal_sequence/the_performance_causal/the_performance_causal_9.png"" class=""exp-image"">
                    <div class=""question-area""></div> 
                </div>","null","","","","","","","","",""
"","","","","","html-button-response","76","259544","0.0-76.0","6DFEEE5D622B4162A92B4CAD7B698007","019cf07c-6453-7eaf-8c2f-c33c71cedbf5","019cf037-5203-781a-b900-108ccb1cab86","","594","
                <div class=""stimulus-container"">
                    <img src=""images/causal_sequence/the_performance_causal/the_performance_causal_9.png"" class=""exp-image"">
                    <div class=""question-area"">
                        <p style=""font-size: 20px; font-weight: bold; margin: 0;"">Is there a person in this image?</p>
                    </div>
                </div>","0","main_experiment_trial","9","the_performance_causal","causal_sequence","","","","",""
"","","","","","html-keyboard-response","77","264556","0.0-77.0","6DFEEE5D622B4162A92B4CAD7B698007","019cf07c-6453-7eaf-8c2f-c33c71cedbf5","019cf037-5203-781a-b900-108ccb1cab86","","null","
                <div class=""stimulus-container"">
                    <img src=""images/causal_sequence/the_performance_causal/the_performance_causal_ten.png"" class=""exp-image"">
                    <div class=""question-area""></div> 
                </div>","null","","","","","","","","",""
"","","","","","html-button-response","78","265288","0.0-78.0","6DFEEE5D622B4162A92B4CAD7B698007","019cf07c-6453-7eaf-8c2f-c33c71cedbf5","019cf037-5203-781a-b900-108ccb1cab86","","730","
                <div class=""stimulus-container"">
                    <img src=""images/causal_sequence/the_performance_causal/the_performance_causal_ten.png"" class=""exp-image"">
                    <div class=""question-area"">
                        <p style=""font-size: 20px; font-weight: bold; margin: 0;"">Is there a person in this image?</p>
                    </div>
                </div>","0","main_experiment_trial","ten","the_performance_causal","causal_sequence","","","","",""
"","","","","","html-keyboard-response","79","266290","0.0-79.0","6DFEEE5D622B4162A92B4CAD7B698007","019cf07c-6453-7eaf-8c2f-c33c71cedbf5","019cf037-5203-781a-b900-108ccb1cab86","","null","<div style=""background-color: white; width: 100vw; height: 100vh;""></div>","null","","","","","","","","",""
"","","","","","html-keyboard-response","80","271294","0.0-80.0","6DFEEE5D622B4162A92B4CAD7B698007","019cf07c-6453-7eaf-8c2f-c33c71cedbf5","019cf037-5203-781a-b900-108ccb1cab86","","null","
                <div class=""stimulus-container"">
                    <img src=""images/causal_sequence/saving_a_cat_causal/saving_a_cat_causal_1.png"" class=""exp-image"">
                    <div class=""question-area""></div> 
                </div>","null","","","","","","","","",""
"","","","","","html-button-response","81","274307","0.0-81.0","6DFEEE5D622B4162A92B4CAD7B698007","019cf07c-6453-7eaf-8c2f-c33c71cedbf5","019cf037-5203-781a-b900-108ccb1cab86","","null","
                <div class=""stimulus-container"">
                    <img src=""images/causal_sequence/saving_a_cat_causal/saving_a_cat_causal_1.png"" class=""exp-image"">
                    <div class=""question-area"">
                        <p style=""font-size: 20px; font-weight: bold; margin: 0;"">Is there a person in this image?</p>
                    </div>
                </div>","null","main_experiment_trial","1","saving_a_cat_causal","causal_sequence","","","","",""
"","","","","","html-keyboard-response","82","279315","0.0-82.0","6DFEEE5D622B4162A92B4CAD7B698007","019cf07c-6453-7eaf-8c2f-c33c71cedbf5","019cf037-5203-781a-b900-108ccb1cab86","","null","
                <div class=""stimulus-container"">
                    <img src=""images/causal_sequence/saving_a_cat_causal/saving_a_cat_causal_2.png"" class=""exp-image"">
                    <div class=""question-area""></div> 
                </div>","null","","","","","","","","",""
"","","","","","html-button-response","83","281081","0.0-83.0","6DFEEE5D622B4162A92B4CAD7B698007","019cf07c-6453-7eaf-8c2f-c33c71cedbf5","019cf037-5203-781a-b900-108ccb1cab86","","1764","
                <div class=""stimulus-container"">
                    <img src=""images/causal_sequence/saving_a_cat_causal/saving_a_cat_causal_2.png"" class=""exp-image"">
                    <div class=""question-area"">
                        <p style=""font-size: 20px; font-weight: bold; margin: 0;"">Is there a person in this image?</p>
                    </div>
                </div>","1","main_experiment_trial","2","saving_a_cat_causal","causal_sequence","","","","",""
"","","","","","html-keyboard-response","84","286095","0.0-84.0","6DFEEE5D622B4162A92B4CAD7B698007","019cf07c-6453-7eaf-8c2f-c33c71cedbf5","019cf037-5203-781a-b900-108ccb1cab86","","null","
                <div class=""stimulus-container"">
                    <img src=""images/causal_sequence/saving_a_cat_causal/saving_a_cat_causal_3.png"" class=""exp-image"">
                    <div class=""question-area""></div> 
                </div>","null","","","","","","","","",""
"","","","","","html-button-response","85","287700","0.0-85.0","6DFEEE5D622B4162A92B4CAD7B698007","019cf07c-6453-7eaf-8c2f-c33c71cedbf5","019cf037-5203-781a-b900-108ccb1cab86","","1604","
                <div class=""stimulus-container"">
                    <img src=""images/causal_sequence/saving_a_cat_causal/saving_a_cat_causal_3.png"" class=""exp-image"">
                    <div class=""question-area"">
                        <p style=""font-size: 20px; font-weight: bold; margin: 0;"">Is there a person in this image?</p>
                    </div>
                </div>","1","main_experiment_trial","3","saving_a_cat_causal","causal_sequence","","","","",""
"","","","","","html-keyboard-response","86","292705","0.0-86.0","6DFEEE5D622B4162A92B4CAD7B698007","019cf07c-6453-7eaf-8c2f-c33c71cedbf5","019cf037-5203-781a-b900-108ccb1cab86","","null","
                <div class=""stimulus-container"">
                    <img src=""images/causal_sequence/saving_a_cat_causal/saving_a_cat_causal_4.png"" class=""exp-image"">
                    <div class=""question-area""></div> 
                </div>","null","","","","","","","","",""
"","","","","","html-button-response","87","293503","0.0-87.0","6DFEEE5D622B4162A92B4CAD7B698007","019cf07c-6453-7eaf-8c2f-c33c71cedbf5","019cf037-5203-781a-b900-108ccb1cab86","","797","
                <div class=""stimulus-container"">
                    <img src=""images/causal_sequence/saving_a_cat_causal/saving_a_cat_causal_4.png"" class=""exp-image"">
                    <div class=""question-area"">
                        <p style=""font-size: 20px; font-weight: bold; margin: 0;"">Is there a person in this image?</p>
                    </div>
                </div>","0","main_experiment_trial","4","saving_a_cat_causal","causal_sequence","","","","",""
"","","","","","html-keyboard-response","88","298520","0.0-88.0","6DFEEE5D622B4162A92B4CAD7B698007","019cf07c-6453-7eaf-8c2f-c33c71cedbf5","019cf037-5203-781a-b900-108ccb1cab86","","null","
                <div class=""stimulus-container"">
                    <img src=""images/causal_sequence/saving_a_cat_causal/saving_a_cat_causal_5.png"" class=""exp-image"">
                    <div class=""question-area""></div> 
                </div>","null","","","","","","","","",""
"","","","","","html-button-response","89","299114","0.0-89.0","6DFEEE5D622B4162A92B4CAD7B698007","019cf07c-6453-7eaf-8c2f-c33c71cedbf5","019cf037-5203-781a-b900-108ccb1cab86","","592","
                <div class=""stimulus-container"">
                    <img src=""images/causal_sequence/saving_a_cat_causal/saving_a_cat_causal_5.png"" class=""exp-image"">
                    <div class=""question-area"">
                        <p style=""font-size: 20px; font-weight: bold; margin: 0;"">Is there a person in this image?</p>
                    </div>
                </div>","0","main_experiment_trial","5","saving_a_cat_causal","causal_sequence","","","","",""
"","","","","","html-keyboard-response","90","304120","0.0-90.0","6DFEEE5D622B4162A92B4CAD7B698007","019cf07c-6453-7eaf-8c2f-c33c71cedbf5","019cf037-5203-781a-b900-108ccb1cab86","","null","
                <div class=""stimulus-container"">
                    <img src=""images/causal_sequence/saving_a_cat_causal/saving_a_cat_causal_6.png"" class=""exp-image"">
                    <div class=""question-area""></div> 
                </div>","null","","","","","","","","",""
"","","","","","html-button-response","91","304856","0.0-91.0","6DFEEE5D622B4162A92B4CAD7B698007","019cf07c-6453-7eaf-8c2f-c33c71cedbf5","019cf037-5203-781a-b900-108ccb1cab86","","735","
                <div class=""stimulus-container"">
                    <img src=""images/causal_sequence/saving_a_cat_causal/saving_a_cat_causal_6.png"" class=""exp-image"">
                    <div class=""question-area"">
                        <p style=""font-size: 20px; font-weight: bold; margin: 0;"">Is there a person in this image?</p>
                    </div>
                </div>","0","main_experiment_trial","6","saving_a_cat_causal","causal_sequence","","","","",""
"","","","","","html-keyboard-response","92","309868","0.0-92.0","6DFEEE5D622B4162A92B4CAD7B698007","019cf07c-6453-7eaf-8c2f-c33c71cedbf5","019cf037-5203-781a-b900-108ccb1cab86","","null","
                <div class=""stimulus-container"">
                    <img src=""images/causal_sequence/saving_a_cat_causal/saving_a_cat_causal_7.png"" class=""exp-image"">
                    <div class=""question-area""></div> 
                </div>","null","","","","","","","","",""
"","","","","","html-button-response","93","310781","0.0-93.0","6DFEEE5D622B4162A92B4CAD7B698007","019cf07c-6453-7eaf-8c2f-c33c71cedbf5","019cf037-5203-781a-b900-108ccb1cab86","","911","
                <div class=""stimulus-container"">
                    <img src=""images/causal_sequence/saving_a_cat_causal/saving_a_cat_causal_7.png"" class=""exp-image"">
                    <div class=""question-area"">
                        <p style=""font-size: 20px; font-weight: bold; margin: 0;"">Is there a person in this image?</p>
                    </div>
                </div>","0","main_experiment_trial","7","saving_a_cat_causal","causal_sequence","","","","",""
"","","","","","html-keyboard-response","94","315791","0.0-94.0","6DFEEE5D622B4162A92B4CAD7B698007","019cf07c-6453-7eaf-8c2f-c33c71cedbf5","019cf037-5203-781a-b900-108ccb1cab86","","null","
                <div class=""stimulus-container"">
                    <img src=""images/causal_sequence/saving_a_cat_causal/saving_a_cat_causal_8.png"" class=""exp-image"">
                    <div class=""question-area""></div> 
                </div>","null","","","","","","","","",""
"","","","","","html-button-response","95","316439","0.0-95.0","6DFEEE5D622B4162A92B4CAD7B698007","019cf07c-6453-7eaf-8c2f-c33c71cedbf5","019cf037-5203-781a-b900-108ccb1cab86","","646","
                <div class=""stimulus-container"">
                    <img src=""images/causal_sequence/saving_a_cat_causal/saving_a_cat_causal_8.png"" class=""exp-image"">
                    <div class=""question-area"">
                        <p style=""font-size: 20px; font-weight: bold; margin: 0;"">Is there a person in this image?</p>
                    </div>
                </div>","0","main_experiment_trial","8","saving_a_cat_causal","causal_sequence","","","","",""
"","","","","","html-keyboard-response","96","321456","0.0-96.0","6DFEEE5D622B4162A92B4CAD7B698007","019cf07c-6453-7eaf-8c2f-c33c71cedbf5","019cf037-5203-781a-b900-108ccb1cab86","","null","
                <div class=""stimulus-container"">
                    <img src=""images/causal_sequence/saving_a_cat_causal/saving_a_cat_causal_9.png"" class=""exp-image"">
                    <div class=""question-area""></div> 
                </div>","null","","","","","","","","",""
"","","","","","html-button-response","97","322120","0.0-97.0","6DFEEE5D622B4162A92B4CAD7B698007","019cf07c-6453-7eaf-8c2f-c33c71cedbf5","019cf037-5203-781a-b900-108ccb1cab86","","662","
                <div class=""stimulus-container"">
                    <img src=""images/causal_sequence/saving_a_cat_causal/saving_a_cat_causal_9.png"" class=""exp-image"">
                    <div class=""question-area"">
                        <p style=""font-size: 20px; font-weight: bold; margin: 0;"">Is there a person in this image?</p>
                    </div>
                </div>","0","main_experiment_trial","9","saving_a_cat_causal","causal_sequence","","","","",""
"","","","","","html-keyboard-response","98","327136","0.0-98.0","6DFEEE5D622B4162A92B4CAD7B698007","019cf07c-6453-7eaf-8c2f-c33c71cedbf5","019cf037-5203-781a-b900-108ccb1cab86","","null","
                <div class=""stimulus-container"">
                    <img src=""images/causal_sequence/saving_a_cat_causal/saving_a_cat_causal_ten.png"" class=""exp-image"">
                    <div class=""question-area""></div> 
                </div>","null","","","","","","","","",""
"","","","","","html-button-response","99","328393","0.0-99.0","6DFEEE5D622B4162A92B4CAD7B698007","019cf07c-6453-7eaf-8c2f-c33c71cedbf5","019cf037-5203-781a-b900-108ccb1cab86","","1257","
                <div class=""stimulus-container"">
                    <img src=""images/causal_sequence/saving_a_cat_causal/saving_a_cat_causal_ten.png"" class=""exp-image"">
                    <div class=""question-area"">
                        <p style=""font-size: 20px; font-weight: bold; margin: 0;"">Is there a person in this image?</p>
                    </div>
                </div>","0","main_experiment_trial","ten","saving_a_cat_causal","causal_sequence","","","","",""
"","","","","","html-keyboard-response","100","329400","0.0-100.0","6DFEEE5D622B4162A92B4CAD7B698007","019cf07c-6453-7eaf-8c2f-c33c71cedbf5","019cf037-5203-781a-b900-108ccb1cab86","","null","<div style=""background-color: white; width: 100vw; height: 100vh;""></div>","null","","","","","","","","",""
"","","","","","html-keyboard-response","101","334414","0.0-101.0","6DFEEE5D622B4162A92B4CAD7B698007","019cf07c-6453-7eaf-8c2f-c33c71cedbf5","019cf037-5203-781a-b900-108ccb1cab86","","null","
                <div class=""stimulus-container"">
                    <img src=""images/schematic_sequence/interview_scheme/interview_scheme_1.png"" class=""exp-image"">
                    <div class=""question-area""></div> 
                </div>","null","","","","","","","","",""
"","","","","","html-button-response","102","337086","0.0-102.0","6DFEEE5D622B4162A92B4CAD7B698007","019cf07c-6453-7eaf-8c2f-c33c71cedbf5","019cf037-5203-781a-b900-108ccb1cab86","","2671","
                <div class=""stimulus-container"">
                    <img src=""images/schematic_sequence/interview_scheme/interview_scheme_1.png"" class=""exp-image"">
                    <div class=""question-area"">
                        <p style=""font-size: 20px; font-weight: bold; margin: 0;"">Is there a person in this image?</p>
                    </div>
                </div>","1","main_experiment_trial","1","interview_scheme","schematic_sequence","","","","",""
"","","","","","html-keyboard-response","103","342098","0.0-103.0","6DFEEE5D622B4162A92B4CAD7B698007","019cf07c-6453-7eaf-8c2f-c33c71cedbf5","019cf037-5203-781a-b900-108ccb1cab86","","null","
                <div class=""stimulus-container"">
                    <img src=""images/schematic_sequence/interview_scheme/interview_scheme_2.png"" class=""exp-image"">
                    <div class=""question-area""></div> 
                </div>","null","","","","","","","","",""
"","","","","","html-button-response","104","345108","0.0-104.0","6DFEEE5D622B4162A92B4CAD7B698007","019cf07c-6453-7eaf-8c2f-c33c71cedbf5","019cf037-5203-781a-b900-108ccb1cab86","","null","
                <div class=""stimulus-container"">
                    <img src=""images/schematic_sequence/interview_scheme/interview_scheme_2.png"" class=""exp-image"">
                    <div class=""question-area"">
                        <p style=""font-size: 20px; font-weight: bold; margin: 0;"">Is there a person in this image?</p>
                    </div>
                </div>","null","main_experiment_trial","2","interview_scheme","schematic_sequence","","","","",""
"","","","","","html-keyboard-response","105","350112","0.0-105.0","6DFEEE5D622B4162A92B4CAD7B698007","019cf07c-6453-7eaf-8c2f-c33c71cedbf5","019cf037-5203-781a-b900-108ccb1cab86","","null","
                <div class=""stimulus-container"">
                    <img src=""images/schematic_sequence/interview_scheme/interview_scheme_3.png"" class=""exp-image"">
                    <div class=""question-area""></div> 
                </div>","null","","","","","","","","",""
"","","","","","html-button-response","106","351125","0.0-106.0","6DFEEE5D622B4162A92B4CAD7B698007","019cf07c-6453-7eaf-8c2f-c33c71cedbf5","019cf037-5203-781a-b900-108ccb1cab86","","1012","
                <div class=""stimulus-container"">
                    <img src=""images/schematic_sequence/interview_scheme/interview_scheme_3.png"" class=""exp-image"">
                    <div class=""question-area"">
                        <p style=""font-size: 20px; font-weight: bold; margin: 0;"">Is there a person in this image?</p>
                    </div>
                </div>","1","main_experiment_trial","3","interview_scheme","schematic_sequence","","","","",""
"","","","","","html-keyboard-response","107","356139","0.0-107.0","6DFEEE5D622B4162A92B4CAD7B698007","019cf07c-6453-7eaf-8c2f-c33c71cedbf5","019cf037-5203-781a-b900-108ccb1cab86","","null","
                <div class=""stimulus-container"">
                    <img src=""images/schematic_sequence/interview_scheme/interview_scheme_4.png"" class=""exp-image"">
                    <div class=""question-area""></div> 
                </div>","null","","","","","","","","",""
"","","","","","html-button-response","108","356854","0.0-108.0","6DFEEE5D622B4162A92B4CAD7B698007","019cf07c-6453-7eaf-8c2f-c33c71cedbf5","019cf037-5203-781a-b900-108ccb1cab86","","713","
                <div class=""stimulus-container"">
                    <img src=""images/schematic_sequence/interview_scheme/interview_scheme_4.png"" class=""exp-image"">
                    <div class=""question-area"">
                        <p style=""font-size: 20px; font-weight: bold; margin: 0;"">Is there a person in this image?</p>
                    </div>
                </div>","1","main_experiment_trial","4","interview_scheme","schematic_sequence","","","","",""
"","","","","","html-keyboard-response","109","361870","0.0-109.0","6DFEEE5D622B4162A92B4CAD7B698007","019cf07c-6453-7eaf-8c2f-c33c71cedbf5","019cf037-5203-781a-b900-108ccb1cab86","","null","
                <div class=""stimulus-container"">
                    <img src=""images/schematic_sequence/interview_scheme/interview_scheme_5.png"" class=""exp-image"">
                    <div class=""question-area""></div> 
                </div>","null","","","","","","","","",""
"","","","","","html-button-response","110","362720","0.0-110.0","6DFEEE5D622B4162A92B4CAD7B698007","019cf07c-6453-7eaf-8c2f-c33c71cedbf5","019cf037-5203-781a-b900-108ccb1cab86","","848","
                <div class=""stimulus-container"">
                    <img src=""images/schematic_sequence/interview_scheme/interview_scheme_5.png"" class=""exp-image"">
                    <div class=""question-area"">
                        <p style=""font-size: 20px; font-weight: bold; margin: 0;"">Is there a person in this image?</p>
                    </div>
                </div>","0","main_experiment_trial","5","interview_scheme","schematic_sequence","","","","",""
"","","","","","html-keyboard-response","111","367733","0.0-111.0","6DFEEE5D622B4162A92B4CAD7B698007","019cf07c-6453-7eaf-8c2f-c33c71cedbf5","019cf037-5203-781a-b900-108ccb1cab86","","null","
                <div class=""stimulus-container"">
                    <img src=""images/schematic_sequence/interview_scheme/interview_scheme_6.png"" class=""exp-image"">
                    <div class=""question-area""></div> 
                </div>","null","","","","","","","","",""
"","","","","","html-button-response","112","368779","0.0-112.0","6DFEEE5D622B4162A92B4CAD7B698007","019cf07c-6453-7eaf-8c2f-c33c71cedbf5","019cf037-5203-781a-b900-108ccb1cab86","","1044","
                <div class=""stimulus-container"">
                    <img src=""images/schematic_sequence/interview_scheme/interview_scheme_6.png"" class=""exp-image"">
                    <div class=""question-area"">
                        <p style=""font-size: 20px; font-weight: bold; margin: 0;"">Is there a person in this image?</p>
                    </div>
                </div>","0","main_experiment_trial","6","interview_scheme","schematic_sequence","","","","",""
"","","","","","html-keyboard-response","113","373790","0.0-113.0","6DFEEE5D622B4162A92B4CAD7B698007","019cf07c-6453-7eaf-8c2f-c33c71cedbf5","019cf037-5203-781a-b900-108ccb1cab86","","null","
                <div class=""stimulus-container"">
                    <img src=""images/schematic_sequence/interview_scheme/interview_scheme_7.png"" class=""exp-image"">
                    <div class=""question-area""></div> 
                </div>","null","","","","","","","","",""
"","","","","","html-button-response","114","375135","0.0-114.0","6DFEEE5D622B4162A92B4CAD7B698007","019cf07c-6453-7eaf-8c2f-c33c71cedbf5","019cf037-5203-781a-b900-108ccb1cab86","","1344","
                <div class=""stimulus-container"">
                    <img src=""images/schematic_sequence/interview_scheme/interview_scheme_7.png"" class=""exp-image"">
                    <div class=""question-area"">
                        <p style=""font-size: 20px; font-weight: bold; margin: 0;"">Is there a person in this image?</p>
                    </div>
                </div>","0","main_experiment_trial","7","interview_scheme","schematic_sequence","","","","",""
"","","","","","html-keyboard-response","115","380150","0.0-115.0","6DFEEE5D622B4162A92B4CAD7B698007","019cf07c-6453-7eaf-8c2f-c33c71cedbf5","019cf037-5203-781a-b900-108ccb1cab86","","null","
                <div class=""stimulus-container"">
                    <img src=""images/schematic_sequence/interview_scheme/interview_scheme_8.png"" class=""exp-image"">
                    <div class=""question-area""></div> 
                </div>","null","","","","","","","","",""
"","","","","","html-button-response","116","381215","0.0-116.0","6DFEEE5D622B4162A92B4CAD7B698007","019cf07c-6453-7eaf-8c2f-c33c71cedbf5","019cf037-5203-781a-b900-108ccb1cab86","","1064","
                <div class=""stimulus-container"">
                    <img src=""images/schematic_sequence/interview_scheme/interview_scheme_8.png"" class=""exp-image"">
                    <div class=""question-area"">
                        <p style=""font-size: 20px; font-weight: bold; margin: 0;"">Is there a person in this image?</p>
                    </div>
                </div>","0","main_experiment_trial","8","interview_scheme","schematic_sequence","","","","",""
"","","","","","html-keyboard-response","117","386219","0.0-117.0","6DFEEE5D622B4162A92B4CAD7B698007","019cf07c-6453-7eaf-8c2f-c33c71cedbf5","019cf037-5203-781a-b900-108ccb1cab86","","null","
                <div class=""stimulus-container"">
                    <img src=""images/schematic_sequence/interview_scheme/interview_scheme_9.png"" class=""exp-image"">
                    <div class=""question-area""></div> 
                </div>","null","","","","","","","","",""
"","","","","","html-button-response","118","388023","0.0-118.0","6DFEEE5D622B4162A92B4CAD7B698007","019cf07c-6453-7eaf-8c2f-c33c71cedbf5","019cf037-5203-781a-b900-108ccb1cab86","","1802","
                <div class=""stimulus-container"">
                    <img src=""images/schematic_sequence/interview_scheme/interview_scheme_9.png"" class=""exp-image"">
                    <div class=""question-area"">
                        <p style=""font-size: 20px; font-weight: bold; margin: 0;"">Is there a person in this image?</p>
                    </div>
                </div>","0","main_experiment_trial","9","interview_scheme","schematic_sequence","","","","",""
"","","","","","html-keyboard-response","119","393029","0.0-119.0","6DFEEE5D622B4162A92B4CAD7B698007","019cf07c-6453-7eaf-8c2f-c33c71cedbf5","019cf037-5203-781a-b900-108ccb1cab86","","null","
                <div class=""stimulus-container"">
                    <img src=""images/schematic_sequence/interview_scheme/interview_scheme_ten.png"" class=""exp-image"">
                    <div class=""question-area""></div> 
                </div>","null","","","","","","","","",""
"","","","","","html-button-response","120","394538","0.0-120.0","6DFEEE5D622B4162A92B4CAD7B698007","019cf07c-6453-7eaf-8c2f-c33c71cedbf5","019cf037-5203-781a-b900-108ccb1cab86","","1508","
                <div class=""stimulus-container"">
                    <img src=""images/schematic_sequence/interview_scheme/interview_scheme_ten.png"" class=""exp-image"">
                    <div class=""question-area"">
                        <p style=""font-size: 20px; font-weight: bold; margin: 0;"">Is there a person in this image?</p>
                    </div>
                </div>","0","main_experiment_trial","ten","interview_scheme","schematic_sequence","","","","",""
"","","","","","html-keyboard-response","121","395543","0.0-121.0","6DFEEE5D622B4162A92B4CAD7B698007","019cf07c-6453-7eaf-8c2f-c33c71cedbf5","019cf037-5203-781a-b900-108ccb1cab86","","null","<div style=""background-color: white; width: 100vw; height: 100vh;""></div>","null","","","","","","","","",""
"","","","","","html-keyboard-response","122","400549","0.0-122.0","6DFEEE5D622B4162A92B4CAD7B698007","019cf07c-6453-7eaf-8c2f-c33c71cedbf5","019cf037-5203-781a-b900-108ccb1cab86","","null","
                <div class=""stimulus-container"">
                    <img src=""images/causal_sequence/museum_causal/museum_causal_1.png"" class=""exp-image"">
                    <div class=""question-area""></div> 
                </div>","null","","","","","","","","",""
"","","","","","html-button-response","123","401581","0.0-123.0","6DFEEE5D622B4162A92B4CAD7B698007","019cf07c-6453-7eaf-8c2f-c33c71cedbf5","019cf037-5203-781a-b900-108ccb1cab86","","1030","
                <div class=""stimulus-container"">
                    <img src=""images/causal_sequence/museum_causal/museum_causal_1.png"" class=""exp-image"">
                    <div class=""question-area"">
                        <p style=""font-size: 20px; font-weight: bold; margin: 0;"">Is there a person in this image?</p>
                    </div>
                </div>","0","main_experiment_trial","1","museum_causal","causal_sequence","","","","",""
"","","","","","html-keyboard-response","124","406582","0.0-124.0","6DFEEE5D622B4162A92B4CAD7B698007","019cf07c-6453-7eaf-8c2f-c33c71cedbf5","019cf037-5203-781a-b900-108ccb1cab86","","null","
                <div class=""stimulus-container"">
                    <img src=""images/causal_sequence/museum_causal/museum_causal_2.png"" class=""exp-image"">
                    <div class=""question-area""></div> 
                </div>","null","","","","","","","","",""
"","","","","","html-button-response","125","407723","0.0-125.0","6DFEEE5D622B4162A92B4CAD7B698007","019cf07c-6453-7eaf-8c2f-c33c71cedbf5","019cf037-5203-781a-b900-108ccb1cab86","","1140","
                <div class=""stimulus-container"">
                    <img src=""images/causal_sequence/museum_causal/museum_causal_2.png"" class=""exp-image"">
                    <div class=""question-area"">
                        <p style=""font-size: 20px; font-weight: bold; margin: 0;"">Is there a person in this image?</p>
                    </div>
                </div>","1","main_experiment_trial","2","museum_causal","causal_sequence","","","","",""
"","","","","","html-keyboard-response","126","412736","0.0-126.0","6DFEEE5D622B4162A92B4CAD7B698007","019cf07c-6453-7eaf-8c2f-c33c71cedbf5","019cf037-5203-781a-b900-108ccb1cab86","","null","
                <div class=""stimulus-container"">
                    <img src=""images/causal_sequence/museum_causal/museum_causal_3.png"" class=""exp-image"">
                    <div class=""question-area""></div> 
                </div>","null","","","","","","","","",""
"","","","","","html-button-response","127","414699","0.0-127.0","6DFEEE5D622B4162A92B4CAD7B698007","019cf07c-6453-7eaf-8c2f-c33c71cedbf5","019cf037-5203-781a-b900-108ccb1cab86","","1963","
                <div class=""stimulus-container"">
                    <img src=""images/causal_sequence/museum_causal/museum_causal_3.png"" class=""exp-image"">
                    <div class=""question-area"">
                        <p style=""font-size: 20px; font-weight: bold; margin: 0;"">Is there a person in this image?</p>
                    </div>
                </div>","0","main_experiment_trial","3","museum_causal","causal_sequence","","","","",""
"","","","","","html-keyboard-response","128","419715","0.0-128.0","6DFEEE5D622B4162A92B4CAD7B698007","019cf07c-6453-7eaf-8c2f-c33c71cedbf5","019cf037-5203-781a-b900-108ccb1cab86","","null","
                <div class=""stimulus-container"">
                    <img src=""images/causal_sequence/museum_causal/museum_causal_4.png"" class=""exp-image"">
                    <div class=""question-area""></div> 
                </div>","null","","","","","","","","",""
"","","","","","html-button-response","129","420842","0.0-129.0","6DFEEE5D622B4162A92B4CAD7B698007","019cf07c-6453-7eaf-8c2f-c33c71cedbf5","019cf037-5203-781a-b900-108ccb1cab86","","1126","
                <div class=""stimulus-container"">
                    <img src=""images/causal_sequence/museum_causal/museum_causal_4.png"" class=""exp-image"">
                    <div class=""question-area"">
                        <p style=""font-size: 20px; font-weight: bold; margin: 0;"">Is there a person in this image?</p>
                    </div>
                </div>","1","main_experiment_trial","4","museum_causal","causal_sequence","","","","",""
"","","","","","html-keyboard-response","130","425856","0.0-130.0","6DFEEE5D622B4162A92B4CAD7B698007","019cf07c-6453-7eaf-8c2f-c33c71cedbf5","019cf037-5203-781a-b900-108ccb1cab86","","null","
                <div class=""stimulus-container"">
                    <img src=""images/causal_sequence/museum_causal/museum_causal_5.png"" class=""exp-image"">
                    <div class=""question-area""></div> 
                </div>","null","","","","","","","","",""
"","","","","","html-button-response","131","427283","0.0-131.0","6DFEEE5D622B4162A92B4CAD7B698007","019cf07c-6453-7eaf-8c2f-c33c71cedbf5","019cf037-5203-781a-b900-108ccb1cab86","","1426","
                <div class=""stimulus-container"">
                    <img src=""images/causal_sequence/museum_causal/museum_causal_5.png"" class=""exp-image"">
                    <div class=""question-area"">
                        <p style=""font-size: 20px; font-weight: bold; margin: 0;"">Is there a person in this image?</p>
                    </div>
                </div>","0","main_experiment_trial","5","museum_causal","causal_sequence","","","","",""
"","","","","","html-keyboard-response","132","432296","0.0-132.0","6DFEEE5D622B4162A92B4CAD7B698007","019cf07c-6453-7eaf-8c2f-c33c71cedbf5","019cf037-5203-781a-b900-108ccb1cab86","","null","
                <div class=""stimulus-container"">
                    <img src=""images/causal_sequence/museum_causal/museum_causal_6.png"" class=""exp-image"">
                    <div class=""question-area""></div> 
                </div>","null","","","","","","","","",""
"","","","","","html-button-response","133","433018","0.0-133.0","6DFEEE5D622B4162A92B4CAD7B698007","019cf07c-6453-7eaf-8c2f-c33c71cedbf5","019cf037-5203-781a-b900-108ccb1cab86","","721","
                <div class=""stimulus-container"">
                    <img src=""images/causal_sequence/museum_causal/museum_causal_6.png"" class=""exp-image"">
                    <div class=""question-area"">
                        <p style=""font-size: 20px; font-weight: bold; margin: 0;"">Is there a person in this image?</p>
                    </div>
                </div>","0","main_experiment_trial","6","museum_causal","causal_sequence","","","","",""
"","","","","","html-keyboard-response","134","438029","0.0-134.0","6DFEEE5D622B4162A92B4CAD7B698007","019cf07c-6453-7eaf-8c2f-c33c71cedbf5","019cf037-5203-781a-b900-108ccb1cab86","","null","
                <div class=""stimulus-container"">
                    <img src=""images/causal_sequence/museum_causal/museum_causal_7.png"" class=""exp-image"">
                    <div class=""question-area""></div> 
                </div>","null","","","","","","","","",""
"","","","","","html-button-response","135","438865","0.0-135.0","6DFEEE5D622B4162A92B4CAD7B698007","019cf07c-6453-7eaf-8c2f-c33c71cedbf5","019cf037-5203-781a-b900-108ccb1cab86","","835","
                <div class=""stimulus-container"">
                    <img src=""images/causal_sequence/museum_causal/museum_causal_7.png"" class=""exp-image"">
                    <div class=""question-area"">
                        <p style=""font-size: 20px; font-weight: bold; margin: 0;"">Is there a person in this image?</p>
                    </div>
                </div>","1","main_experiment_trial","7","museum_causal","causal_sequence","","","","",""
"","","","","","html-keyboard-response","136","443874","0.0-136.0","6DFEEE5D622B4162A92B4CAD7B698007","019cf07c-6453-7eaf-8c2f-c33c71cedbf5","019cf037-5203-781a-b900-108ccb1cab86","","null","
                <div class=""stimulus-container"">
                    <img src=""images/causal_sequence/museum_causal/museum_causal_8.png"" class=""exp-image"">
                    <div class=""question-area""></div> 
                </div>","null","","","","","","","","",""
"","","","","","html-button-response","137","446171","0.0-137.0","6DFEEE5D622B4162A92B4CAD7B698007","019cf07c-6453-7eaf-8c2f-c33c71cedbf5","019cf037-5203-781a-b900-108ccb1cab86","","2296","
                <div class=""stimulus-container"">
                    <img src=""images/causal_sequence/museum_causal/museum_causal_8.png"" class=""exp-image"">
                    <div class=""question-area"">
                        <p style=""font-size: 20px; font-weight: bold; margin: 0;"">Is there a person in this image?</p>
                    </div>
                </div>","0","main_experiment_trial","8","museum_causal","causal_sequence","","","","",""
"","","","","","html-keyboard-response","138","451188","0.0-138.0","6DFEEE5D622B4162A92B4CAD7B698007","019cf07c-6453-7eaf-8c2f-c33c71cedbf5","019cf037-5203-781a-b900-108ccb1cab86","","null","
                <div class=""stimulus-container"">
                    <img src=""images/causal_sequence/museum_causal/museum_causal_9.png"" class=""exp-image"">
                    <div class=""question-area""></div> 
                </div>","null","","","","","","","","",""
"","","","","","html-button-response","139","452884","0.0-139.0","6DFEEE5D622B4162A92B4CAD7B698007","019cf07c-6453-7eaf-8c2f-c33c71cedbf5","019cf037-5203-781a-b900-108ccb1cab86","","1695","
                <div class=""stimulus-container"">
                    <img src=""images/causal_sequence/museum_causal/museum_causal_9.png"" class=""exp-image"">
                    <div class=""question-area"">
                        <p style=""font-size: 20px; font-weight: bold; margin: 0;"">Is there a person in this image?</p>
                    </div>
                </div>","1","main_experiment_trial","9","museum_causal","causal_sequence","","","","",""
"","","","","","html-keyboard-response","140","457892","0.0-140.0","6DFEEE5D622B4162A92B4CAD7B698007","019cf07c-6453-7eaf-8c2f-c33c71cedbf5","019cf037-5203-781a-b900-108ccb1cab86","","null","
                <div class=""stimulus-container"">
                    <img src=""images/causal_sequence/museum_causal/museum_causal_ten.png"" class=""exp-image"">
                    <div class=""question-area""></div> 
                </div>","null","","","","","","","","",""
"","","","","","html-button-response","141","459423","0.0-141.0","6DFEEE5D622B4162A92B4CAD7B698007","019cf07c-6453-7eaf-8c2f-c33c71cedbf5","019cf037-5203-781a-b900-108ccb1cab86","","1529","
                <div class=""stimulus-container"">
                    <img src=""images/causal_sequence/museum_causal/museum_causal_ten.png"" class=""exp-image"">
                    <div class=""question-area"">
                        <p style=""font-size: 20px; font-weight: bold; margin: 0;"">Is there a person in this image?</p>
                    </div>
                </div>","0","main_experiment_trial","ten","museum_causal","causal_sequence","","","","",""
"","","","","","html-keyboard-response","142","460426","0.0-142.0","6DFEEE5D622B4162A92B4CAD7B698007","019cf07c-6453-7eaf-8c2f-c33c71cedbf5","019cf037-5203-781a-b900-108ccb1cab86","","null","<div style=""background-color: white; width: 100vw; height: 100vh;""></div>","null","","","","","","","","",""
"","","","","","html-keyboard-response","143","465431","0.0-143.0","6DFEEE5D622B4162A92B4CAD7B698007","019cf07c-6453-7eaf-8c2f-c33c71cedbf5","019cf037-5203-781a-b900-108ccb1cab86","","null","
                <div class=""stimulus-container"">
                    <img src=""images/causal_sequence/dog_causal/dog_causal_1.png"" class=""exp-image"">
                    <div class=""question-area""></div> 
                </div>","null","","","","","","","","",""
"","","","","","html-button-response","144","466086","0.0-144.0","6DFEEE5D622B4162A92B4CAD7B698007","019cf07c-6453-7eaf-8c2f-c33c71cedbf5","019cf037-5203-781a-b900-108ccb1cab86","","654","
                <div class=""stimulus-container"">
                    <img src=""images/causal_sequence/dog_causal/dog_causal_1.png"" class=""exp-image"">
                    <div class=""question-area"">
                        <p style=""font-size: 20px; font-weight: bold; margin: 0;"">Is there a person in this image?</p>
                    </div>
                </div>","0","main_experiment_trial","1","dog_causal","causal_sequence","","","","",""
"","","","","","html-keyboard-response","145","471100","0.0-145.0","6DFEEE5D622B4162A92B4CAD7B698007","019cf07c-6453-7eaf-8c2f-c33c71cedbf5","019cf037-5203-781a-b900-108ccb1cab86","","null","
                <div class=""stimulus-container"">
                    <img src=""images/causal_sequence/dog_causal/dog_causal_2.png"" class=""exp-image"">
                    <div class=""question-area""></div> 
                </div>","null","","","","","","","","",""
"","","","","","html-button-response","146","471955","0.0-146.0","6DFEEE5D622B4162A92B4CAD7B698007","019cf07c-6453-7eaf-8c2f-c33c71cedbf5","019cf037-5203-781a-b900-108ccb1cab86","","853","
                <div class=""stimulus-container"">
                    <img src=""images/causal_sequence/dog_causal/dog_causal_2.png"" class=""exp-image"">
                    <div class=""question-area"">
                        <p style=""font-size: 20px; font-weight: bold; margin: 0;"">Is there a person in this image?</p>
                    </div>
                </div>","0","main_experiment_trial","2","dog_causal","causal_sequence","","","","",""
"","","","","","html-keyboard-response","147","476971","0.0-147.0","6DFEEE5D622B4162A92B4CAD7B698007","019cf07c-6453-7eaf-8c2f-c33c71cedbf5","019cf037-5203-781a-b900-108ccb1cab86","","null","
                <div class=""stimulus-container"">
                    <img src=""images/causal_sequence/dog_causal/dog_causal_3.png"" class=""exp-image"">
                    <div class=""question-area""></div> 
                </div>","null","","","","","","","","",""
"","","","","","html-button-response","148","477778","0.0-148.0","6DFEEE5D622B4162A92B4CAD7B698007","019cf07c-6453-7eaf-8c2f-c33c71cedbf5","019cf037-5203-781a-b900-108ccb1cab86","","806","
                <div class=""stimulus-container"">
                    <img src=""images/causal_sequence/dog_causal/dog_causal_3.png"" class=""exp-image"">
                    <div class=""question-area"">
                        <p style=""font-size: 20px; font-weight: bold; margin: 0;"">Is there a person in this image?</p>
                    </div>
                </div>","0","main_experiment_trial","3","dog_causal","causal_sequence","","","","",""
"","","","","","html-keyboard-response","149","482783","0.0-149.0","6DFEEE5D622B4162A92B4CAD7B698007","019cf07c-6453-7eaf-8c2f-c33c71cedbf5","019cf037-5203-781a-b900-108ccb1cab86","","null","
                <div class=""stimulus-container"">
                    <img src=""images/causal_sequence/dog_causal/dog_causal_4.png"" class=""exp-image"">
                    <div class=""question-area""></div> 
                </div>","null","","","","","","","","",""
"","","","","","html-button-response","150","483386","0.0-150.0","6DFEEE5D622B4162A92B4CAD7B698007","019cf07c-6453-7eaf-8c2f-c33c71cedbf5","019cf037-5203-781a-b900-108ccb1cab86","","603","
                <div class=""stimulus-container"">
                    <img src=""images/causal_sequence/dog_causal/dog_causal_4.png"" class=""exp-image"">
                    <div class=""question-area"">
                        <p style=""font-size: 20px; font-weight: bold; margin: 0;"">Is there a person in this image?</p>
                    </div>
                </div>","0","main_experiment_trial","4","dog_causal","causal_sequence","","","","",""
"","","","","","html-keyboard-response","151","488399","0.0-151.0","6DFEEE5D622B4162A92B4CAD7B698007","019cf07c-6453-7eaf-8c2f-c33c71cedbf5","019cf037-5203-781a-b900-108ccb1cab86","","null","
                <div class=""stimulus-container"">
                    <img src=""images/causal_sequence/dog_causal/dog_causal_5.png"" class=""exp-image"">
                    <div class=""question-area""></div> 
                </div>","null","","","","","","","","",""
"","","","","","html-button-response","152","489130","0.0-152.0","6DFEEE5D622B4162A92B4CAD7B698007","019cf07c-6453-7eaf-8c2f-c33c71cedbf5","019cf037-5203-781a-b900-108ccb1cab86","","731","
                <div class=""stimulus-container"">
                    <img src=""images/causal_sequence/dog_causal/dog_causal_5.png"" class=""exp-image"">
                    <div class=""question-area"">
                        <p style=""font-size: 20px; font-weight: bold; margin: 0;"">Is there a person in this image?</p>
                    </div>
                </div>","0","main_experiment_trial","5","dog_causal","causal_sequence","","","","",""
"","","","","","html-keyboard-response","153","494146","0.0-153.0","6DFEEE5D622B4162A92B4CAD7B698007","019cf07c-6453-7eaf-8c2f-c33c71cedbf5","019cf037-5203-781a-b900-108ccb1cab86","","null","
                <div class=""stimulus-container"">
                    <img src=""images/causal_sequence/dog_causal/dog_causal_6.png"" class=""exp-image"">
                    <div class=""question-area""></div> 
                </div>","null","","","","","","","","",""
"","","","","","html-button-response","154","494959","0.0-154.0","6DFEEE5D622B4162A92B4CAD7B698007","019cf07c-6453-7eaf-8c2f-c33c71cedbf5","019cf037-5203-781a-b900-108ccb1cab86","","811","
                <div class=""stimulus-container"">
                    <img src=""images/causal_sequence/dog_causal/dog_causal_6.png"" class=""exp-image"">
                    <div class=""question-area"">
                        <p style=""font-size: 20px; font-weight: bold; margin: 0;"">Is there a person in this image?</p>
                    </div>
                </div>","0","main_experiment_trial","6","dog_causal","causal_sequence","","","","",""
"","","","","","html-keyboard-response","155","499966","0.0-155.0","6DFEEE5D622B4162A92B4CAD7B698007","019cf07c-6453-7eaf-8c2f-c33c71cedbf5","019cf037-5203-781a-b900-108ccb1cab86","","null","
                <div class=""stimulus-container"">
                    <img src=""images/causal_sequence/dog_causal/dog_causal_7.png"" class=""exp-image"">
                    <div class=""question-area""></div> 
                </div>","null","","","","","","","","",""
"","","","","","html-button-response","156","500871","0.0-156.0","6DFEEE5D622B4162A92B4CAD7B698007","019cf07c-6453-7eaf-8c2f-c33c71cedbf5","019cf037-5203-781a-b900-108ccb1cab86","","904","
                <div class=""stimulus-container"">
                    <img src=""images/causal_sequence/dog_causal/dog_causal_7.png"" class=""exp-image"">
                    <div class=""question-area"">
                        <p style=""font-size: 20px; font-weight: bold; margin: 0;"">Is there a person in this image?</p>
                    </div>
                </div>","0","main_experiment_trial","7","dog_causal","causal_sequence","","","","",""
"","","","","","html-keyboard-response","157","505887","0.0-157.0","6DFEEE5D622B4162A92B4CAD7B698007","019cf07c-6453-7eaf-8c2f-c33c71cedbf5","019cf037-5203-781a-b900-108ccb1cab86","","null","
                <div class=""stimulus-container"">
                    <img src=""images/causal_sequence/dog_causal/dog_causal_8.png"" class=""exp-image"">
                    <div class=""question-area""></div> 
                </div>","null","","","","","","","","",""
"","","","","","html-button-response","158","506818","0.0-158.0","6DFEEE5D622B4162A92B4CAD7B698007","019cf07c-6453-7eaf-8c2f-c33c71cedbf5","019cf037-5203-781a-b900-108ccb1cab86","","930","
                <div class=""stimulus-container"">
                    <img src=""images/causal_sequence/dog_causal/dog_causal_8.png"" class=""exp-image"">
                    <div class=""question-area"">
                        <p style=""font-size: 20px; font-weight: bold; margin: 0;"">Is there a person in this image?</p>
                    </div>
                </div>","0","main_experiment_trial","8","dog_causal","causal_sequence","","","","",""
"","","","","","html-keyboard-response","159","511822","0.0-159.0","6DFEEE5D622B4162A92B4CAD7B698007","019cf07c-6453-7eaf-8c2f-c33c71cedbf5","019cf037-5203-781a-b900-108ccb1cab86","","null","
                <div class=""stimulus-container"">
                    <img src=""images/causal_sequence/dog_causal/dog_causal_9.png"" class=""exp-image"">
                    <div class=""question-area""></div> 
                </div>","null","","","","","","","","",""
"","","","","","html-button-response","160","512482","0.0-160.0","6DFEEE5D622B4162A92B4CAD7B698007","019cf07c-6453-7eaf-8c2f-c33c71cedbf5","019cf037-5203-781a-b900-108ccb1cab86","","659","
                <div class=""stimulus-container"">
                    <img src=""images/causal_sequence/dog_causal/dog_causal_9.png"" class=""exp-image"">
                    <div class=""question-area"">
                        <p style=""font-size: 20px; font-weight: bold; margin: 0;"">Is there a person in this image?</p>
                    </div>
                </div>","0","main_experiment_trial","9","dog_causal","causal_sequence","","","","",""
"","","","","","html-keyboard-response","161","517493","0.0-161.0","6DFEEE5D622B4162A92B4CAD7B698007","019cf07c-6453-7eaf-8c2f-c33c71cedbf5","019cf037-5203-781a-b900-108ccb1cab86","","null","
                <div class=""stimulus-container"">
                    <img src=""images/causal_sequence/dog_causal/dog_causal_ten.png"" class=""exp-image"">
                    <div class=""question-area""></div> 
                </div>","null","","","","","","","","",""
"","","","","","html-button-response","162","518375","0.0-162.0","6DFEEE5D622B4162A92B4CAD7B698007","019cf07c-6453-7eaf-8c2f-c33c71cedbf5","019cf037-5203-781a-b900-108ccb1cab86","","881","
                <div class=""stimulus-container"">
                    <img src=""images/causal_sequence/dog_causal/dog_causal_ten.png"" class=""exp-image"">
                    <div class=""question-area"">
                        <p style=""font-size: 20px; font-weight: bold; margin: 0;"">Is there a person in this image?</p>
                    </div>
                </div>","0","main_experiment_trial","ten","dog_causal","causal_sequence","","","","",""
"","","","","","html-keyboard-response","163","519379","0.0-163.0","6DFEEE5D622B4162A92B4CAD7B698007","019cf07c-6453-7eaf-8c2f-c33c71cedbf5","019cf037-5203-781a-b900-108ccb1cab86","","null","<div style=""background-color: white; width: 100vw; height: 100vh;""></div>","null","","","","","","","","",""
"","","","","","html-keyboard-response","164","524383","0.0-164.0","6DFEEE5D622B4162A92B4CAD7B698007","019cf07c-6453-7eaf-8c2f-c33c71cedbf5","019cf037-5203-781a-b900-108ccb1cab86","","null","
                <div class=""stimulus-container"">
                    <img src=""images/causal_sequence/coin_causal/coin_causal_1.png"" class=""exp-image"">
                    <div class=""question-area""></div> 
                </div>","null","","","","","","","","",""
"","","","","","html-button-response","165","525202","0.0-165.0","6DFEEE5D622B4162A92B4CAD7B698007","019cf07c-6453-7eaf-8c2f-c33c71cedbf5","019cf037-5203-781a-b900-108ccb1cab86","","818","
                <div class=""stimulus-container"">
                    <img src=""images/causal_sequence/coin_causal/coin_causal_1.png"" class=""exp-image"">
                    <div class=""question-area"">
                        <p style=""font-size: 20px; font-weight: bold; margin: 0;"">Is there a person in this image?</p>
                    </div>
                </div>","0","main_experiment_trial","1","coin_causal","causal_sequence","","","","",""
"","","","","","html-keyboard-response","166","530206","0.0-166.0","6DFEEE5D622B4162A92B4CAD7B698007","019cf07c-6453-7eaf-8c2f-c33c71cedbf5","019cf037-5203-781a-b900-108ccb1cab86","","null","
                <div class=""stimulus-container"">
                    <img src=""images/causal_sequence/coin_causal/coin_causal_2.png"" class=""exp-image"">
                    <div class=""question-area""></div> 
                </div>","null","","","","","","","","",""
"","","","","","html-button-response","167","531030","0.0-167.0","6DFEEE5D622B4162A92B4CAD7B698007","019cf07c-6453-7eaf-8c2f-c33c71cedbf5","019cf037-5203-781a-b900-108ccb1cab86","","823","
                <div class=""stimulus-container"">
                    <img src=""images/causal_sequence/coin_causal/coin_causal_2.png"" class=""exp-image"">
                    <div class=""question-area"">
                        <p style=""font-size: 20px; font-weight: bold; margin: 0;"">Is there a person in this image?</p>
                    </div>
                </div>","0","main_experiment_trial","2","coin_causal","causal_sequence","","","","",""
"","","","","","html-keyboard-response","168","536043","0.0-168.0","6DFEEE5D622B4162A92B4CAD7B698007","019cf07c-6453-7eaf-8c2f-c33c71cedbf5","019cf037-5203-781a-b900-108ccb1cab86","","null","
                <div class=""stimulus-container"">
                    <img src=""images/causal_sequence/coin_causal/coin_causal_3.png"" class=""exp-image"">
                    <div class=""question-area""></div> 
                </div>","null","","","","","","","","",""
"","","","","","html-button-response","169","537319","0.0-169.0","6DFEEE5D622B4162A92B4CAD7B698007","019cf07c-6453-7eaf-8c2f-c33c71cedbf5","019cf037-5203-781a-b900-108ccb1cab86","","1275","
                <div class=""stimulus-container"">
                    <img src=""images/causal_sequence/coin_causal/coin_causal_3.png"" class=""exp-image"">
                    <div class=""question-area"">
                        <p style=""font-size: 20px; font-weight: bold; margin: 0;"">Is there a person in this image?</p>
                    </div>
                </div>","0","main_experiment_trial","3","coin_causal","causal_sequence","","","","",""
"","","","","","html-keyboard-response","170","542325","0.0-170.0","6DFEEE5D622B4162A92B4CAD7B698007","019cf07c-6453-7eaf-8c2f-c33c71cedbf5","019cf037-5203-781a-b900-108ccb1cab86","","null","
                <div class=""stimulus-container"">
                    <img src=""images/causal_sequence/coin_causal/coin_causal_4.png"" class=""exp-image"">
                    <div class=""question-area""></div> 
                </div>","null","","","","","","","","",""
"","","","","","html-button-response","171","544232","0.0-171.0","6DFEEE5D622B4162A92B4CAD7B698007","019cf07c-6453-7eaf-8c2f-c33c71cedbf5","019cf037-5203-781a-b900-108ccb1cab86","","1906","
                <div class=""stimulus-container"">
                    <img src=""images/causal_sequence/coin_causal/coin_causal_4.png"" class=""exp-image"">
                    <div class=""question-area"">
                        <p style=""font-size: 20px; font-weight: bold; margin: 0;"">Is there a person in this image?</p>
                    </div>
                </div>","0","main_experiment_trial","4","coin_causal","causal_sequence","","","","",""
"","","","","","html-keyboard-response","172","549244","0.0-172.0","6DFEEE5D622B4162A92B4CAD7B698007","019cf07c-6453-7eaf-8c2f-c33c71cedbf5","019cf037-5203-781a-b900-108ccb1cab86","","null","
                <div class=""stimulus-container"">
                    <img src=""images/causal_sequence/coin_causal/coin_causal_5.png"" class=""exp-image"">
                    <div class=""question-area""></div> 
                </div>","null","","","","","","","","",""
"","","","","","html-button-response","173","549843","0.0-173.0","6DFEEE5D622B4162A92B4CAD7B698007","019cf07c-6453-7eaf-8c2f-c33c71cedbf5","019cf037-5203-781a-b900-108ccb1cab86","","598","
                <div class=""stimulus-container"">
                    <img src=""images/causal_sequence/coin_causal/coin_causal_5.png"" class=""exp-image"">
                    <div class=""question-area"">
                        <p style=""font-size: 20px; font-weight: bold; margin: 0;"">Is there a person in this image?</p>
                    </div>
                </div>","0","main_experiment_trial","5","coin_causal","causal_sequence","","","","",""
"","","","","","html-keyboard-response","174","554844","0.0-174.0","6DFEEE5D622B4162A92B4CAD7B698007","019cf07c-6453-7eaf-8c2f-c33c71cedbf5","019cf037-5203-781a-b900-108ccb1cab86","","null","
                <div class=""stimulus-container"">
                    <img src=""images/causal_sequence/coin_causal/coin_causal_6.png"" class=""exp-image"">
                    <div class=""question-area""></div> 
                </div>","null","","","","","","","","",""
"","","","","","html-button-response","175","555480","0.0-175.0","6DFEEE5D622B4162A92B4CAD7B698007","019cf07c-6453-7eaf-8c2f-c33c71cedbf5","019cf037-5203-781a-b900-108ccb1cab86","","635","
                <div class=""stimulus-container"">
                    <img src=""images/causal_sequence/coin_causal/coin_causal_6.png"" class=""exp-image"">
                    <div class=""question-area"">
                        <p style=""font-size: 20px; font-weight: bold; margin: 0;"">Is there a person in this image?</p>
                    </div>
                </div>","0","main_experiment_trial","6","coin_causal","causal_sequence","","","","",""
"","","","","","html-keyboard-response","176","560489","0.0-176.0","6DFEEE5D622B4162A92B4CAD7B698007","019cf07c-6453-7eaf-8c2f-c33c71cedbf5","019cf037-5203-781a-b900-108ccb1cab86","","null","
                <div class=""stimulus-container"">
                    <img src=""images/causal_sequence/coin_causal/coin_causal_7.png"" class=""exp-image"">
                    <div class=""question-area""></div> 
                </div>","null","","","","","","","","",""
"","","","","","html-button-response","177","562149","0.0-177.0","6DFEEE5D622B4162A92B4CAD7B698007","019cf07c-6453-7eaf-8c2f-c33c71cedbf5","019cf037-5203-781a-b900-108ccb1cab86","","1659","
                <div class=""stimulus-container"">
                    <img src=""images/causal_sequence/coin_causal/coin_causal_7.png"" class=""exp-image"">
                    <div class=""question-area"">
                        <p style=""font-size: 20px; font-weight: bold; margin: 0;"">Is there a person in this image?</p>
                    </div>
                </div>","1","main_experiment_trial","7","coin_causal","causal_sequence","","","","",""
"","","","","","html-keyboard-response","178","567155","0.0-178.0","6DFEEE5D622B4162A92B4CAD7B698007","019cf07c-6453-7eaf-8c2f-c33c71cedbf5","019cf037-5203-781a-b900-108ccb1cab86","","null","
                <div class=""stimulus-container"">
                    <img src=""images/causal_sequence/coin_causal/coin_causal_8.png"" class=""exp-image"">
                    <div class=""question-area""></div> 
                </div>","null","","","","","","","","",""
"","","","","","html-button-response","179","567779","0.0-179.0","6DFEEE5D622B4162A92B4CAD7B698007","019cf07c-6453-7eaf-8c2f-c33c71cedbf5","019cf037-5203-781a-b900-108ccb1cab86","","623","
                <div class=""stimulus-container"">
                    <img src=""images/causal_sequence/coin_causal/coin_causal_8.png"" class=""exp-image"">
                    <div class=""question-area"">
                        <p style=""font-size: 20px; font-weight: bold; margin: 0;"">Is there a person in this image?</p>
                    </div>
                </div>","0","main_experiment_trial","8","coin_causal","causal_sequence","","","","",""
"","","","","","html-keyboard-response","180","572785","0.0-180.0","6DFEEE5D622B4162A92B4CAD7B698007","019cf07c-6453-7eaf-8c2f-c33c71cedbf5","019cf037-5203-781a-b900-108ccb1cab86","","null","
                <div class=""stimulus-container"">
                    <img src=""images/causal_sequence/coin_causal/coin_causal_9.png"" class=""exp-image"">
                    <div class=""question-area""></div> 
                </div>","null","","","","","","","","",""
"","","","","","html-button-response","181","573395","0.0-181.0","6DFEEE5D622B4162A92B4CAD7B698007","019cf07c-6453-7eaf-8c2f-c33c71cedbf5","019cf037-5203-781a-b900-108ccb1cab86","","609","
                <div class=""stimulus-container"">
                    <img src=""images/causal_sequence/coin_causal/coin_causal_9.png"" class=""exp-image"">
                    <div class=""question-area"">
                        <p style=""font-size: 20px; font-weight: bold; margin: 0;"">Is there a person in this image?</p>
                    </div>
                </div>","0","main_experiment_trial","9","coin_causal","causal_sequence","","","","",""
"","","","","","html-keyboard-response","182","578406","0.0-182.0","6DFEEE5D622B4162A92B4CAD7B698007","019cf07c-6453-7eaf-8c2f-c33c71cedbf5","019cf037-5203-781a-b900-108ccb1cab86","","null","
                <div class=""stimulus-container"">
                    <img src=""images/causal_sequence/coin_causal/coin_causal_ten.png"" class=""exp-image"">
                    <div class=""question-area""></div> 
                </div>","null","","","","","","","","",""
"","","","","","html-button-response","183","579565","0.0-183.0","6DFEEE5D622B4162A92B4CAD7B698007","019cf07c-6453-7eaf-8c2f-c33c71cedbf5","019cf037-5203-781a-b900-108ccb1cab86","","1158","
                <div class=""stimulus-container"">
                    <img src=""images/causal_sequence/coin_causal/coin_causal_ten.png"" class=""exp-image"">
                    <div class=""question-area"">
                        <p style=""font-size: 20px; font-weight: bold; margin: 0;"">Is there a person in this image?</p>
                    </div>
                </div>","0","main_experiment_trial","ten","coin_causal","causal_sequence","","","","",""
