"success","timeout","failed_images","failed_audio","failed_video","trial_type","trial_index","time_elapsed","internal_node_id","subject_id","study_id","session_id","view_history","rt","stimulus","response","task","image_index","folder","sequence_type","presentation_order","valuable_image_index","reward_type","correct_choice","chosen_image_index","target_X"
"true","false","[]","[]","[]","preload","0","16773","0.0-0.0","0EA3C639531149BC927C19D2C2DE0BD9","019cf98c-2e56-70fa-b707-ba19f572ce79","019cf974-7aee-7bc9-8ea4-9f55741b365d","","","","","","","","","","","","","",""
"","","","","","instructions","1","18680","0.0-1.0","0EA3C639531149BC927C19D2C2DE0BD9","019cf98c-2e56-70fa-b707-ba19f572ce79","019cf974-7aee-7bc9-8ea4-9f55741b365d","[{""page_index"":0,""viewing_time"":1906}]","1906","","","","","","","","","","","",""
"","","","","","instructions","2","25736","0.0-2.0","0EA3C639531149BC927C19D2C2DE0BD9","019cf98c-2e56-70fa-b707-ba19f572ce79","019cf974-7aee-7bc9-8ea4-9f55741b365d","[{""page_index"":0,""viewing_time"":7055}]","7055","","","","","","","","","","","",""
"true","","","","","fullscreen","3","29444","0.0-3.0","0EA3C639531149BC927C19D2C2DE0BD9","019cf98c-2e56-70fa-b707-ba19f572ce79","019cf974-7aee-7bc9-8ea4-9f55741b365d","","2694","","","","","","","","","","","",""
"","","","","","instructions","4","40964","0.0-4.0","0EA3C639531149BC927C19D2C2DE0BD9","019cf98c-2e56-70fa-b707-ba19f572ce79","019cf974-7aee-7bc9-8ea4-9f55741b365d","[{""page_index"":0,""viewing_time"":11519}]","11519","","","","","","","","","","","",""
"","","","","","instructions","5","54182","0.0-5.0","0EA3C639531149BC927C19D2C2DE0BD9","019cf98c-2e56-70fa-b707-ba19f572ce79","019cf974-7aee-7bc9-8ea4-9f55741b365d","[{""page_index"":0,""viewing_time"":13217}]","13217","","","","","","","","","","","",""
"","","","","","html-keyboard-response","6","58183","0.0-6.0","0EA3C639531149BC927C19D2C2DE0BD9","019cf98c-2e56-70fa-b707-ba19f572ce79","019cf974-7aee-7bc9-8ea4-9f55741b365d","","null","
                <div class=""stimulus-container"">
                    <img src=""images/instructions/movie_1.png"" class=""exp-image"">
                    <div class=""question-area""></div> 
                </div>","null","","","","","","","","","",""
"","","","","","html-button-response","7","60523","0.0-7.0","0EA3C639531149BC927C19D2C2DE0BD9","019cf98c-2e56-70fa-b707-ba19f572ce79","019cf974-7aee-7bc9-8ea4-9f55741b365d","","2337","
                <div class=""stimulus-container"">
                    <img src=""images/instructions/movie_1.png"" class=""exp-image"">
                    <div class=""question-area"">
                        <p style=""font-size: 20px; font-weight: bold; margin: 0;"">Was there a person in this image?</p>
                    </div>
                </div>","0","example_question","1","","","","","","","",""
"","","","","","html-keyboard-response","8","64526","0.0-8.0","0EA3C639531149BC927C19D2C2DE0BD9","019cf98c-2e56-70fa-b707-ba19f572ce79","019cf974-7aee-7bc9-8ea4-9f55741b365d","","null","
                <div class=""stimulus-container"">
                    <img src=""images/instructions/movie_2.png"" class=""exp-image"">
                    <div class=""question-area""></div> 
                </div>","null","","","","","","","","","",""
"","","","","","html-button-response","9","67531","0.0-9.0","0EA3C639531149BC927C19D2C2DE0BD9","019cf98c-2e56-70fa-b707-ba19f572ce79","019cf974-7aee-7bc9-8ea4-9f55741b365d","","null","
                <div class=""stimulus-container"">
                    <img src=""images/instructions/movie_2.png"" class=""exp-image"">
                    <div class=""question-area"">
                        <p style=""font-size: 20px; font-weight: bold; margin: 0;"">Was there a person in this image?</p>
                    </div>
                </div>","null","example_question","2","","","","","","","",""
"","","","","","html-keyboard-response","10","71542","0.0-10.0","0EA3C639531149BC927C19D2C2DE0BD9","019cf98c-2e56-70fa-b707-ba19f572ce79","019cf974-7aee-7bc9-8ea4-9f55741b365d","","null","
                <div class=""stimulus-container"">
                    <img src=""images/instructions/movie_3.png"" class=""exp-image"">
                    <div class=""question-area""></div> 
                </div>","null","","","","","","","","","",""
"","","","","","html-button-response","11","72043","0.0-11.0","0EA3C639531149BC927C19D2C2DE0BD9","019cf98c-2e56-70fa-b707-ba19f572ce79","019cf974-7aee-7bc9-8ea4-9f55741b365d","","498","
                <div class=""stimulus-container"">
                    <img src=""images/instructions/movie_3.png"" class=""exp-image"">
                    <div class=""question-area"">
                        <p style=""font-size: 20px; font-weight: bold; margin: 0;"">Was there a person in this image?</p>
                    </div>
                </div>","0","example_question","3","","","","","","","",""
"","","","","","html-keyboard-response","12","76049","0.0-12.0","0EA3C639531149BC927C19D2C2DE0BD9","019cf98c-2e56-70fa-b707-ba19f572ce79","019cf974-7aee-7bc9-8ea4-9f55741b365d","","null","
                <div class=""stimulus-container"">
                    <img src=""images/instructions/movie_4.png"" class=""exp-image"">
                    <div class=""question-area""></div> 
                </div>","null","","","","","","","","","",""
"","","","","","html-button-response","13","76890","0.0-13.0","0EA3C639531149BC927C19D2C2DE0BD9","019cf98c-2e56-70fa-b707-ba19f572ce79","019cf974-7aee-7bc9-8ea4-9f55741b365d","","839","
                <div class=""stimulus-container"">
                    <img src=""images/instructions/movie_4.png"" class=""exp-image"">
                    <div class=""question-area"">
                        <p style=""font-size: 20px; font-weight: bold; margin: 0;"">Was there a person in this image?</p>
                    </div>
                </div>","0","example_question","4","","","","","","","",""
"","","","","","instructions","14","80266","0.0-14.0","0EA3C639531149BC927C19D2C2DE0BD9","019cf98c-2e56-70fa-b707-ba19f572ce79","019cf974-7aee-7bc9-8ea4-9f55741b365d","[{""page_index"":0,""viewing_time"":3375}]","3375","","","","","","","","","","","",""
"","","","","","instructions","15","86359","0.0-15.0","0EA3C639531149BC927C19D2C2DE0BD9","019cf98c-2e56-70fa-b707-ba19f572ce79","019cf974-7aee-7bc9-8ea4-9f55741b365d","[{""page_index"":0,""viewing_time"":6092}]","6093","","","","","","","","","","","",""
"","","","","","html-keyboard-response","16","91363","0.0-16.0","0EA3C639531149BC927C19D2C2DE0BD9","019cf98c-2e56-70fa-b707-ba19f572ce79","019cf974-7aee-7bc9-8ea4-9f55741b365d","","null","<div style=""background-color: white; width: 100vw; height: 100vh;""></div>","null","","","","","","","","","",""
"","","","","","html-keyboard-response","17","92365","0.0-17.0","0EA3C639531149BC927C19D2C2DE0BD9","019cf98c-2e56-70fa-b707-ba19f572ce79","019cf974-7aee-7bc9-8ea4-9f55741b365d","","null","
                <div class=""stimulus-container"">
                    <img src=""images/semantic_sequence/physical_activity_semantic/physical_activity_semantic_ten.png"" class=""exp-image"">
                    <div class=""question-area""></div> 
                </div>","null","","","","","","","","","",""
"","","","","","html-button-response","18","93393","0.0-18.0","0EA3C639531149BC927C19D2C2DE0BD9","019cf98c-2e56-70fa-b707-ba19f572ce79","019cf974-7aee-7bc9-8ea4-9f55741b365d","","1027","
                <div class=""stimulus-container"">
                    <img src=""images/semantic_sequence/physical_activity_semantic/physical_activity_semantic_ten.png"" class=""exp-image"">
                    <div class=""question-area"">
                        <p style=""font-size: 20px; font-weight: bold; margin: 0;"">Is there a person in this image?</p>
                    </div>
                </div>","0","main_experiment_trial","ten","physical_activity_semantic","semantic_sequence","randomized","","","","",""
"","","","","","html-keyboard-response","19","94407","0.0-19.0","0EA3C639531149BC927C19D2C2DE0BD9","019cf98c-2e56-70fa-b707-ba19f572ce79","019cf974-7aee-7bc9-8ea4-9f55741b365d","","null","
                <div class=""stimulus-container"">
                    <img src=""images/semantic_sequence/physical_activity_semantic/physical_activity_semantic_3.png"" class=""exp-image"">
                    <div class=""question-area""></div> 
                </div>","null","","","","","","","","","",""
"","","","","","html-button-response","20","95239","0.0-20.0","0EA3C639531149BC927C19D2C2DE0BD9","019cf98c-2e56-70fa-b707-ba19f572ce79","019cf974-7aee-7bc9-8ea4-9f55741b365d","","830","
                <div class=""stimulus-container"">
                    <img src=""images/semantic_sequence/physical_activity_semantic/physical_activity_semantic_3.png"" class=""exp-image"">
                    <div class=""question-area"">
                        <p style=""font-size: 20px; font-weight: bold; margin: 0;"">Is there a person in this image?</p>
                    </div>
                </div>","0","main_experiment_trial","3","physical_activity_semantic","semantic_sequence","randomized","","","","",""
"","","","","","html-keyboard-response","21","96249","0.0-21.0","0EA3C639531149BC927C19D2C2DE0BD9","019cf98c-2e56-70fa-b707-ba19f572ce79","019cf974-7aee-7bc9-8ea4-9f55741b365d","","null","
                <div class=""stimulus-container"">
                    <img src=""images/semantic_sequence/physical_activity_semantic/physical_activity_semantic_2.png"" class=""exp-image"">
                    <div class=""question-area""></div> 
                </div>","null","","","","","","","","","",""
"","","","","","html-button-response","22","96813","0.0-22.0","0EA3C639531149BC927C19D2C2DE0BD9","019cf98c-2e56-70fa-b707-ba19f572ce79","019cf974-7aee-7bc9-8ea4-9f55741b365d","","562","
                <div class=""stimulus-container"">
                    <img src=""images/semantic_sequence/physical_activity_semantic/physical_activity_semantic_2.png"" class=""exp-image"">
                    <div class=""question-area"">
                        <p style=""font-size: 20px; font-weight: bold; margin: 0;"">Is there a person in this image?</p>
                    </div>
                </div>","0","main_experiment_trial","2","physical_activity_semantic","semantic_sequence","randomized","","","","",""
"","","","","","html-keyboard-response","23","97816","0.0-23.0","0EA3C639531149BC927C19D2C2DE0BD9","019cf98c-2e56-70fa-b707-ba19f572ce79","019cf974-7aee-7bc9-8ea4-9f55741b365d","","null","
                <div class=""stimulus-container"">
                    <img src=""images/semantic_sequence/physical_activity_semantic/physical_activity_semantic_9.png"" class=""exp-image"">
                    <div class=""question-area""></div> 
                </div>","null","","","","","","","","","",""
"","","","","","html-button-response","24","98911","0.0-24.0","0EA3C639531149BC927C19D2C2DE0BD9","019cf98c-2e56-70fa-b707-ba19f572ce79","019cf974-7aee-7bc9-8ea4-9f55741b365d","","1093","
                <div class=""stimulus-container"">
                    <img src=""images/semantic_sequence/physical_activity_semantic/physical_activity_semantic_9.png"" class=""exp-image"">
                    <div class=""question-area"">
                        <p style=""font-size: 20px; font-weight: bold; margin: 0;"">Is there a person in this image?</p>
                    </div>
                </div>","0","main_experiment_trial","9","physical_activity_semantic","semantic_sequence","randomized","","","","",""
"","","","","","html-keyboard-response","25","99927","0.0-25.0","0EA3C639531149BC927C19D2C2DE0BD9","019cf98c-2e56-70fa-b707-ba19f572ce79","019cf974-7aee-7bc9-8ea4-9f55741b365d","","null","
                <div class=""stimulus-container"">
                    <img src=""images/semantic_sequence/physical_activity_semantic/physical_activity_semantic_5.png"" class=""exp-image"">
                    <div class=""question-area""></div> 
                </div>","null","","","","","","","","","",""
"","","","","","html-button-response","26","100922","0.0-26.0","0EA3C639531149BC927C19D2C2DE0BD9","019cf98c-2e56-70fa-b707-ba19f572ce79","019cf974-7aee-7bc9-8ea4-9f55741b365d","","994","
                <div class=""stimulus-container"">
                    <img src=""images/semantic_sequence/physical_activity_semantic/physical_activity_semantic_5.png"" class=""exp-image"">
                    <div class=""question-area"">
                        <p style=""font-size: 20px; font-weight: bold; margin: 0;"">Is there a person in this image?</p>
                    </div>
                </div>","0","main_experiment_trial","5","physical_activity_semantic","semantic_sequence","randomized","","","","",""
"","","","","","html-keyboard-response","27","101939","0.0-27.0","0EA3C639531149BC927C19D2C2DE0BD9","019cf98c-2e56-70fa-b707-ba19f572ce79","019cf974-7aee-7bc9-8ea4-9f55741b365d","","null","
                <div class=""stimulus-container"">
                    <img src=""images/semantic_sequence/physical_activity_semantic/physical_activity_semantic_1.png"" class=""exp-image"">
                    <div class=""question-area""></div> 
                </div>","null","","","","","","","","","",""
"","","","","","html-button-response","28","102596","0.0-28.0","0EA3C639531149BC927C19D2C2DE0BD9","019cf98c-2e56-70fa-b707-ba19f572ce79","019cf974-7aee-7bc9-8ea4-9f55741b365d","","654","
                <div class=""stimulus-container"">
                    <img src=""images/semantic_sequence/physical_activity_semantic/physical_activity_semantic_1.png"" class=""exp-image"">
                    <div class=""question-area"">
                        <p style=""font-size: 20px; font-weight: bold; margin: 0;"">Is there a person in this image?</p>
                    </div>
                </div>","0","main_experiment_trial","1","physical_activity_semantic","semantic_sequence","randomized","","","","",""
"","","","","","html-keyboard-response","29","103599","0.0-29.0","0EA3C639531149BC927C19D2C2DE0BD9","019cf98c-2e56-70fa-b707-ba19f572ce79","019cf974-7aee-7bc9-8ea4-9f55741b365d","","null","
                <div class=""stimulus-container"">
                    <img src=""images/semantic_sequence/physical_activity_semantic/physical_activity_semantic_6.png"" class=""exp-image"">
                    <div class=""question-area""></div> 
                </div>","null","","","","","","","","","",""
"","","","","","html-button-response","30","104138","0.0-30.0","0EA3C639531149BC927C19D2C2DE0BD9","019cf98c-2e56-70fa-b707-ba19f572ce79","019cf974-7aee-7bc9-8ea4-9f55741b365d","","538","
                <div class=""stimulus-container"">
                    <img src=""images/semantic_sequence/physical_activity_semantic/physical_activity_semantic_6.png"" class=""exp-image"">
                    <div class=""question-area"">
                        <p style=""font-size: 20px; font-weight: bold; margin: 0;"">Is there a person in this image?</p>
                    </div>
                </div>","0","main_experiment_trial","6","physical_activity_semantic","semantic_sequence","randomized","","","","",""
"","","","","","html-keyboard-response","31","105152","0.0-31.0","0EA3C639531149BC927C19D2C2DE0BD9","019cf98c-2e56-70fa-b707-ba19f572ce79","019cf974-7aee-7bc9-8ea4-9f55741b365d","","null","
                <div class=""stimulus-container"">
                    <img src=""images/semantic_sequence/physical_activity_semantic/physical_activity_semantic_7.png"" class=""exp-image"">
                    <div class=""question-area""></div> 
                </div>","null","","","","","","","","","",""
"","","","","","html-button-response","32","105997","0.0-32.0","0EA3C639531149BC927C19D2C2DE0BD9","019cf98c-2e56-70fa-b707-ba19f572ce79","019cf974-7aee-7bc9-8ea4-9f55741b365d","","842","
                <div class=""stimulus-container"">
                    <img src=""images/semantic_sequence/physical_activity_semantic/physical_activity_semantic_7.png"" class=""exp-image"">
                    <div class=""question-area"">
                        <p style=""font-size: 20px; font-weight: bold; margin: 0;"">Is there a person in this image?</p>
                    </div>
                </div>","0","main_experiment_trial","7","physical_activity_semantic","semantic_sequence","randomized","","","","",""
"","","","","","html-keyboard-response","33","107004","0.0-33.0","0EA3C639531149BC927C19D2C2DE0BD9","019cf98c-2e56-70fa-b707-ba19f572ce79","019cf974-7aee-7bc9-8ea4-9f55741b365d","","null","
                <div class=""stimulus-container"">
                    <img src=""images/semantic_sequence/physical_activity_semantic/physical_activity_semantic_8.png"" class=""exp-image"">
                    <div class=""question-area""></div> 
                </div>","null","","","","","","","","","",""
"","","","","","html-button-response","34","107774","0.0-34.0","0EA3C639531149BC927C19D2C2DE0BD9","019cf98c-2e56-70fa-b707-ba19f572ce79","019cf974-7aee-7bc9-8ea4-9f55741b365d","","768","
                <div class=""stimulus-container"">
                    <img src=""images/semantic_sequence/physical_activity_semantic/physical_activity_semantic_8.png"" class=""exp-image"">
                    <div class=""question-area"">
                        <p style=""font-size: 20px; font-weight: bold; margin: 0;"">Is there a person in this image?</p>
                    </div>
                </div>","0","main_experiment_trial","8","physical_activity_semantic","semantic_sequence","randomized","","","","",""
"","","","","","html-keyboard-response","35","108790","0.0-35.0","0EA3C639531149BC927C19D2C2DE0BD9","019cf98c-2e56-70fa-b707-ba19f572ce79","019cf974-7aee-7bc9-8ea4-9f55741b365d","","null","
                <div class=""stimulus-container"">
                    <img src=""images/semantic_sequence/physical_activity_semantic/physical_activity_semantic_4.png"" class=""exp-image"">
                    <div class=""question-area""></div> 
                </div>","null","","","","","","","","","",""
"","","","","","html-button-response","36","109610","0.0-36.0","0EA3C639531149BC927C19D2C2DE0BD9","019cf98c-2e56-70fa-b707-ba19f572ce79","019cf974-7aee-7bc9-8ea4-9f55741b365d","","819","
                <div class=""stimulus-container"">
                    <img src=""images/semantic_sequence/physical_activity_semantic/physical_activity_semantic_4.png"" class=""exp-image"">
                    <div class=""question-area"">
                        <p style=""font-size: 20px; font-weight: bold; margin: 0;"">Is there a person in this image?</p>
                    </div>
                </div>","0","main_experiment_trial","4","physical_activity_semantic","semantic_sequence","randomized","","","","",""
"","","","","","html-keyboard-response","37","114612","0.0-37.0","0EA3C639531149BC927C19D2C2DE0BD9","019cf98c-2e56-70fa-b707-ba19f572ce79","019cf974-7aee-7bc9-8ea4-9f55741b365d","","null","<div style=""background-color: white; width: 100vw; height: 100vh;""></div>","null","","","","","","","","","",""
"","","","","","html-keyboard-response","38","115619","0.0-38.0","0EA3C639531149BC927C19D2C2DE0BD9","019cf98c-2e56-70fa-b707-ba19f572ce79","019cf974-7aee-7bc9-8ea4-9f55741b365d","","null","
                <div class=""stimulus-container"">
                    <img src=""images/causal_sequence/package_causal/package_causal_8.png"" class=""exp-image"">
                    <div class=""question-area""></div> 
                </div>","null","","","","","","","","","",""
"","","","","","html-button-response","39","116615","0.0-39.0","0EA3C639531149BC927C19D2C2DE0BD9","019cf98c-2e56-70fa-b707-ba19f572ce79","019cf974-7aee-7bc9-8ea4-9f55741b365d","","994","
                <div class=""stimulus-container"">
                    <img src=""images/causal_sequence/package_causal/package_causal_8.png"" class=""exp-image"">
                    <div class=""question-area"">
                        <p style=""font-size: 20px; font-weight: bold; margin: 0;"">Is there a person in this image?</p>
                    </div>
                </div>","0","main_experiment_trial","8","package_causal","causal_sequence","randomized","","","","",""
"","","","","","html-keyboard-response","40","117625","0.0-40.0","0EA3C639531149BC927C19D2C2DE0BD9","019cf98c-2e56-70fa-b707-ba19f572ce79","019cf974-7aee-7bc9-8ea4-9f55741b365d","","null","
                <div class=""stimulus-container"">
                    <img src=""images/causal_sequence/package_causal/package_causal_3.png"" class=""exp-image"">
                    <div class=""question-area""></div> 
                </div>","null","","","","","","","","","",""
"","","","","","html-button-response","41","118087","0.0-41.0","0EA3C639531149BC927C19D2C2DE0BD9","019cf98c-2e56-70fa-b707-ba19f572ce79","019cf974-7aee-7bc9-8ea4-9f55741b365d","","460","
                <div class=""stimulus-container"">
                    <img src=""images/causal_sequence/package_causal/package_causal_3.png"" class=""exp-image"">
                    <div class=""question-area"">
                        <p style=""font-size: 20px; font-weight: bold; margin: 0;"">Is there a person in this image?</p>
                    </div>
                </div>","0","main_experiment_trial","3","package_causal","causal_sequence","randomized","","","","",""
"","","","","","html-keyboard-response","42","119103","0.0-42.0","0EA3C639531149BC927C19D2C2DE0BD9","019cf98c-2e56-70fa-b707-ba19f572ce79","019cf974-7aee-7bc9-8ea4-9f55741b365d","","null","
                <div class=""stimulus-container"">
                    <img src=""images/causal_sequence/package_causal/package_causal_1.png"" class=""exp-image"">
                    <div class=""question-area""></div> 
                </div>","null","","","","","","","","","",""
"","","","","","html-button-response","43","119703","0.0-43.0","0EA3C639531149BC927C19D2C2DE0BD9","019cf98c-2e56-70fa-b707-ba19f572ce79","019cf974-7aee-7bc9-8ea4-9f55741b365d","","598","
                <div class=""stimulus-container"">
                    <img src=""images/causal_sequence/package_causal/package_causal_1.png"" class=""exp-image"">
                    <div class=""question-area"">
                        <p style=""font-size: 20px; font-weight: bold; margin: 0;"">Is there a person in this image?</p>
                    </div>
                </div>","0","main_experiment_trial","1","package_causal","causal_sequence","randomized","","","","",""
"","","","","","html-keyboard-response","44","120707","0.0-44.0","0EA3C639531149BC927C19D2C2DE0BD9","019cf98c-2e56-70fa-b707-ba19f572ce79","019cf974-7aee-7bc9-8ea4-9f55741b365d","","null","
                <div class=""stimulus-container"">
                    <img src=""images/causal_sequence/package_causal/package_causal_5.png"" class=""exp-image"">
                    <div class=""question-area""></div> 
                </div>","null","","","","","","","","","",""
"","","","","","html-button-response","45","121198","0.0-45.0","0EA3C639531149BC927C19D2C2DE0BD9","019cf98c-2e56-70fa-b707-ba19f572ce79","019cf974-7aee-7bc9-8ea4-9f55741b365d","","490","
                <div class=""stimulus-container"">
                    <img src=""images/causal_sequence/package_causal/package_causal_5.png"" class=""exp-image"">
                    <div class=""question-area"">
                        <p style=""font-size: 20px; font-weight: bold; margin: 0;"">Is there a person in this image?</p>
                    </div>
                </div>","0","main_experiment_trial","5","package_causal","causal_sequence","randomized","","","","",""
"","","","","","html-keyboard-response","46","122214","0.0-46.0","0EA3C639531149BC927C19D2C2DE0BD9","019cf98c-2e56-70fa-b707-ba19f572ce79","019cf974-7aee-7bc9-8ea4-9f55741b365d","","null","
                <div class=""stimulus-container"">
                    <img src=""images/causal_sequence/package_causal/package_causal_6.png"" class=""exp-image"">
                    <div class=""question-area""></div> 
                </div>","null","","","","","","","","","",""
"","","","","","html-button-response","47","122758","0.0-47.0","0EA3C639531149BC927C19D2C2DE0BD9","019cf98c-2e56-70fa-b707-ba19f572ce79","019cf974-7aee-7bc9-8ea4-9f55741b365d","","541","
                <div class=""stimulus-container"">
                    <img src=""images/causal_sequence/package_causal/package_causal_6.png"" class=""exp-image"">
                    <div class=""question-area"">
                        <p style=""font-size: 20px; font-weight: bold; margin: 0;"">Is there a person in this image?</p>
                    </div>
                </div>","0","main_experiment_trial","6","package_causal","causal_sequence","randomized","","","","",""
"","","","","","html-keyboard-response","48","123763","0.0-48.0","0EA3C639531149BC927C19D2C2DE0BD9","019cf98c-2e56-70fa-b707-ba19f572ce79","019cf974-7aee-7bc9-8ea4-9f55741b365d","","null","
                <div class=""stimulus-container"">
                    <img src=""images/causal_sequence/package_causal/package_causal_ten.png"" class=""exp-image"">
                    <div class=""question-area""></div> 
                </div>","null","","","","","","","","","",""
"","","","","","html-button-response","49","124240","0.0-49.0","0EA3C639531149BC927C19D2C2DE0BD9","019cf98c-2e56-70fa-b707-ba19f572ce79","019cf974-7aee-7bc9-8ea4-9f55741b365d","","475","
                <div class=""stimulus-container"">
                    <img src=""images/causal_sequence/package_causal/package_causal_ten.png"" class=""exp-image"">
                    <div class=""question-area"">
                        <p style=""font-size: 20px; font-weight: bold; margin: 0;"">Is there a person in this image?</p>
                    </div>
                </div>","0","main_experiment_trial","ten","package_causal","causal_sequence","randomized","","","","",""
"","","","","","html-keyboard-response","50","125250","0.0-50.0","0EA3C639531149BC927C19D2C2DE0BD9","019cf98c-2e56-70fa-b707-ba19f572ce79","019cf974-7aee-7bc9-8ea4-9f55741b365d","","null","
                <div class=""stimulus-container"">
                    <img src=""images/causal_sequence/package_causal/package_causal_2.png"" class=""exp-image"">
                    <div class=""question-area""></div> 
                </div>","null","","","","","","","","","",""
"","","","","","html-button-response","51","125865","0.0-51.0","0EA3C639531149BC927C19D2C2DE0BD9","019cf98c-2e56-70fa-b707-ba19f572ce79","019cf974-7aee-7bc9-8ea4-9f55741b365d","","613","
                <div class=""stimulus-container"">
                    <img src=""images/causal_sequence/package_causal/package_causal_2.png"" class=""exp-image"">
                    <div class=""question-area"">
                        <p style=""font-size: 20px; font-weight: bold; margin: 0;"">Is there a person in this image?</p>
                    </div>
                </div>","0","main_experiment_trial","2","package_causal","causal_sequence","randomized","","","","",""
"","","","","","html-keyboard-response","52","126872","0.0-52.0","0EA3C639531149BC927C19D2C2DE0BD9","019cf98c-2e56-70fa-b707-ba19f572ce79","019cf974-7aee-7bc9-8ea4-9f55741b365d","","null","
                <div class=""stimulus-container"">
                    <img src=""images/causal_sequence/package_causal/package_causal_7.png"" class=""exp-image"">
                    <div class=""question-area""></div> 
                </div>","null","","","","","","","","","",""
"","","","","","html-button-response","53","127228","0.0-53.0","0EA3C639531149BC927C19D2C2DE0BD9","019cf98c-2e56-70fa-b707-ba19f572ce79","019cf974-7aee-7bc9-8ea4-9f55741b365d","","353","
                <div class=""stimulus-container"">
                    <img src=""images/causal_sequence/package_causal/package_causal_7.png"" class=""exp-image"">
                    <div class=""question-area"">
                        <p style=""font-size: 20px; font-weight: bold; margin: 0;"">Is there a person in this image?</p>
                    </div>
                </div>","0","main_experiment_trial","7","package_causal","causal_sequence","randomized","","","","",""
"","","","","","html-keyboard-response","54","128237","0.0-54.0","0EA3C639531149BC927C19D2C2DE0BD9","019cf98c-2e56-70fa-b707-ba19f572ce79","019cf974-7aee-7bc9-8ea4-9f55741b365d","","null","
                <div class=""stimulus-container"">
                    <img src=""images/causal_sequence/package_causal/package_causal_9.png"" class=""exp-image"">
                    <div class=""question-area""></div> 
                </div>","null","","","","","","","","","",""
"","","","","","html-button-response","55","128608","0.0-55.0","0EA3C639531149BC927C19D2C2DE0BD9","019cf98c-2e56-70fa-b707-ba19f572ce79","019cf974-7aee-7bc9-8ea4-9f55741b365d","","370","
                <div class=""stimulus-container"">
                    <img src=""images/causal_sequence/package_causal/package_causal_9.png"" class=""exp-image"">
                    <div class=""question-area"">
                        <p style=""font-size: 20px; font-weight: bold; margin: 0;"">Is there a person in this image?</p>
                    </div>
                </div>","0","main_experiment_trial","9","package_causal","causal_sequence","randomized","","","","",""
"","","","","","html-keyboard-response","56","129624","0.0-56.0","0EA3C639531149BC927C19D2C2DE0BD9","019cf98c-2e56-70fa-b707-ba19f572ce79","019cf974-7aee-7bc9-8ea4-9f55741b365d","","null","
                <div class=""stimulus-container"">
                    <img src=""images/causal_sequence/package_causal/package_causal_4.png"" class=""exp-image"">
                    <div class=""question-area""></div> 
                </div>","null","","","","","","","","","",""
"","","","","","html-button-response","57","131438","0.0-57.0","0EA3C639531149BC927C19D2C2DE0BD9","019cf98c-2e56-70fa-b707-ba19f572ce79","019cf974-7aee-7bc9-8ea4-9f55741b365d","","1812","
                <div class=""stimulus-container"">
                    <img src=""images/causal_sequence/package_causal/package_causal_4.png"" class=""exp-image"">
                    <div class=""question-area"">
                        <p style=""font-size: 20px; font-weight: bold; margin: 0;"">Is there a person in this image?</p>
                    </div>
                </div>","1","main_experiment_trial","4","package_causal","causal_sequence","randomized","","","","",""
"","","","","","html-keyboard-response","58","136447","0.0-58.0","0EA3C639531149BC927C19D2C2DE0BD9","019cf98c-2e56-70fa-b707-ba19f572ce79","019cf974-7aee-7bc9-8ea4-9f55741b365d","","null","<div style=""background-color: white; width: 100vw; height: 100vh;""></div>","null","","","","","","","","","",""
"","","","","","html-keyboard-response","59","137457","0.0-59.0","0EA3C639531149BC927C19D2C2DE0BD9","019cf98c-2e56-70fa-b707-ba19f572ce79","019cf974-7aee-7bc9-8ea4-9f55741b365d","","null","
                <div class=""stimulus-container"">
                    <img src=""images/causal_sequence/dog_causal/dog_causal_9.png"" class=""exp-image"">
                    <div class=""question-area""></div> 
                </div>","null","","","","","","","","","",""
"","","","","","html-button-response","60","138439","0.0-60.0","0EA3C639531149BC927C19D2C2DE0BD9","019cf98c-2e56-70fa-b707-ba19f572ce79","019cf974-7aee-7bc9-8ea4-9f55741b365d","","979","
                <div class=""stimulus-container"">
                    <img src=""images/causal_sequence/dog_causal/dog_causal_9.png"" class=""exp-image"">
                    <div class=""question-area"">
                        <p style=""font-size: 20px; font-weight: bold; margin: 0;"">Is there a person in this image?</p>
                    </div>
                </div>","0","main_experiment_trial","9","dog_causal","causal_sequence","randomized","","","","",""
"","","","","","html-keyboard-response","61","139446","0.0-61.0","0EA3C639531149BC927C19D2C2DE0BD9","019cf98c-2e56-70fa-b707-ba19f572ce79","019cf974-7aee-7bc9-8ea4-9f55741b365d","","null","
                <div class=""stimulus-container"">
                    <img src=""images/causal_sequence/dog_causal/dog_causal_4.png"" class=""exp-image"">
                    <div class=""question-area""></div> 
                </div>","null","","","","","","","","","",""
"","","","","","html-button-response","62","140160","0.0-62.0","0EA3C639531149BC927C19D2C2DE0BD9","019cf98c-2e56-70fa-b707-ba19f572ce79","019cf974-7aee-7bc9-8ea4-9f55741b365d","","712","
                <div class=""stimulus-container"">
                    <img src=""images/causal_sequence/dog_causal/dog_causal_4.png"" class=""exp-image"">
                    <div class=""question-area"">
                        <p style=""font-size: 20px; font-weight: bold; margin: 0;"">Is there a person in this image?</p>
                    </div>
                </div>","0","main_experiment_trial","4","dog_causal","causal_sequence","randomized","","","","",""
"","","","","","html-keyboard-response","63","141162","0.0-63.0","0EA3C639531149BC927C19D2C2DE0BD9","019cf98c-2e56-70fa-b707-ba19f572ce79","019cf974-7aee-7bc9-8ea4-9f55741b365d","","null","
                <div class=""stimulus-container"">
                    <img src=""images/causal_sequence/dog_causal/dog_causal_6.png"" class=""exp-image"">
                    <div class=""question-area""></div> 
                </div>","null","","","","","","","","","",""
"","","","","","html-button-response","64","141708","0.0-64.0","0EA3C639531149BC927C19D2C2DE0BD9","019cf98c-2e56-70fa-b707-ba19f572ce79","019cf974-7aee-7bc9-8ea4-9f55741b365d","","544","
                <div class=""stimulus-container"">
                    <img src=""images/causal_sequence/dog_causal/dog_causal_6.png"" class=""exp-image"">
                    <div class=""question-area"">
                        <p style=""font-size: 20px; font-weight: bold; margin: 0;"">Is there a person in this image?</p>
                    </div>
                </div>","0","main_experiment_trial","6","dog_causal","causal_sequence","randomized","","","","",""
"","","","","","html-keyboard-response","65","142716","0.0-65.0","0EA3C639531149BC927C19D2C2DE0BD9","019cf98c-2e56-70fa-b707-ba19f572ce79","019cf974-7aee-7bc9-8ea4-9f55741b365d","","null","
                <div class=""stimulus-container"">
                    <img src=""images/causal_sequence/dog_causal/dog_causal_2.png"" class=""exp-image"">
                    <div class=""question-area""></div> 
                </div>","null","","","","","","","","","",""
"","","","","","html-button-response","66","143105","0.0-66.0","0EA3C639531149BC927C19D2C2DE0BD9","019cf98c-2e56-70fa-b707-ba19f572ce79","019cf974-7aee-7bc9-8ea4-9f55741b365d","","387","
                <div class=""stimulus-container"">
                    <img src=""images/causal_sequence/dog_causal/dog_causal_2.png"" class=""exp-image"">
                    <div class=""question-area"">
                        <p style=""font-size: 20px; font-weight: bold; margin: 0;"">Is there a person in this image?</p>
                    </div>
                </div>","0","main_experiment_trial","2","dog_causal","causal_sequence","randomized","","","","",""
"","","","","","html-keyboard-response","67","144119","0.0-67.0","0EA3C639531149BC927C19D2C2DE0BD9","019cf98c-2e56-70fa-b707-ba19f572ce79","019cf974-7aee-7bc9-8ea4-9f55741b365d","","null","
                <div class=""stimulus-container"">
                    <img src=""images/causal_sequence/dog_causal/dog_causal_7.png"" class=""exp-image"">
                    <div class=""question-area""></div> 
                </div>","null","","","","","","","","","",""
"","","","","","html-button-response","68","144517","0.0-68.0","0EA3C639531149BC927C19D2C2DE0BD9","019cf98c-2e56-70fa-b707-ba19f572ce79","019cf974-7aee-7bc9-8ea4-9f55741b365d","","396","
                <div class=""stimulus-container"">
                    <img src=""images/causal_sequence/dog_causal/dog_causal_7.png"" class=""exp-image"">
                    <div class=""question-area"">
                        <p style=""font-size: 20px; font-weight: bold; margin: 0;"">Is there a person in this image?</p>
                    </div>
                </div>","0","main_experiment_trial","7","dog_causal","causal_sequence","randomized","","","","",""
"","","","","","html-keyboard-response","69","145523","0.0-69.0","0EA3C639531149BC927C19D2C2DE0BD9","019cf98c-2e56-70fa-b707-ba19f572ce79","019cf974-7aee-7bc9-8ea4-9f55741b365d","","null","
                <div class=""stimulus-container"">
                    <img src=""images/causal_sequence/dog_causal/dog_causal_ten.png"" class=""exp-image"">
                    <div class=""question-area""></div> 
                </div>","null","","","","","","","","","",""
"","","","","","html-button-response","70","145926","0.0-70.0","0EA3C639531149BC927C19D2C2DE0BD9","019cf98c-2e56-70fa-b707-ba19f572ce79","019cf974-7aee-7bc9-8ea4-9f55741b365d","","402","
                <div class=""stimulus-container"">
                    <img src=""images/causal_sequence/dog_causal/dog_causal_ten.png"" class=""exp-image"">
                    <div class=""question-area"">
                        <p style=""font-size: 20px; font-weight: bold; margin: 0;"">Is there a person in this image?</p>
                    </div>
                </div>","0","main_experiment_trial","ten","dog_causal","causal_sequence","randomized","","","","",""
"","","","","","html-keyboard-response","71","146928","0.0-71.0","0EA3C639531149BC927C19D2C2DE0BD9","019cf98c-2e56-70fa-b707-ba19f572ce79","019cf974-7aee-7bc9-8ea4-9f55741b365d","","null","
                <div class=""stimulus-container"">
                    <img src=""images/causal_sequence/dog_causal/dog_causal_3.png"" class=""exp-image"">
                    <div class=""question-area""></div> 
                </div>","null","","","","","","","","","",""
"","","","","","html-button-response","72","147511","0.0-72.0","0EA3C639531149BC927C19D2C2DE0BD9","019cf98c-2e56-70fa-b707-ba19f572ce79","019cf974-7aee-7bc9-8ea4-9f55741b365d","","582","
                <div class=""stimulus-container"">
                    <img src=""images/causal_sequence/dog_causal/dog_causal_3.png"" class=""exp-image"">
                    <div class=""question-area"">
                        <p style=""font-size: 20px; font-weight: bold; margin: 0;"">Is there a person in this image?</p>
                    </div>
                </div>","0","main_experiment_trial","3","dog_causal","causal_sequence","randomized","","","","",""
"","","","","","html-keyboard-response","73","148517","0.0-73.0","0EA3C639531149BC927C19D2C2DE0BD9","019cf98c-2e56-70fa-b707-ba19f572ce79","019cf974-7aee-7bc9-8ea4-9f55741b365d","","null","
                <div class=""stimulus-container"">
                    <img src=""images/causal_sequence/dog_causal/dog_causal_8.png"" class=""exp-image"">
                    <div class=""question-area""></div> 
                </div>","null","","","","","","","","","",""
"","","","","","html-button-response","74","149260","0.0-74.0","0EA3C639531149BC927C19D2C2DE0BD9","019cf98c-2e56-70fa-b707-ba19f572ce79","019cf974-7aee-7bc9-8ea4-9f55741b365d","","741","
                <div class=""stimulus-container"">
                    <img src=""images/causal_sequence/dog_causal/dog_causal_8.png"" class=""exp-image"">
                    <div class=""question-area"">
                        <p style=""font-size: 20px; font-weight: bold; margin: 0;"">Is there a person in this image?</p>
                    </div>
                </div>","0","main_experiment_trial","8","dog_causal","causal_sequence","randomized","","","","",""
"","","","","","html-keyboard-response","75","150267","0.0-75.0","0EA3C639531149BC927C19D2C2DE0BD9","019cf98c-2e56-70fa-b707-ba19f572ce79","019cf974-7aee-7bc9-8ea4-9f55741b365d","","null","
                <div class=""stimulus-container"">
                    <img src=""images/causal_sequence/dog_causal/dog_causal_5.png"" class=""exp-image"">
                    <div class=""question-area""></div> 
                </div>","null","","","","","","","","","",""
"","","","","","html-button-response","76","150672","0.0-76.0","0EA3C639531149BC927C19D2C2DE0BD9","019cf98c-2e56-70fa-b707-ba19f572ce79","019cf974-7aee-7bc9-8ea4-9f55741b365d","","403","
                <div class=""stimulus-container"">
                    <img src=""images/causal_sequence/dog_causal/dog_causal_5.png"" class=""exp-image"">
                    <div class=""question-area"">
                        <p style=""font-size: 20px; font-weight: bold; margin: 0;"">Is there a person in this image?</p>
                    </div>
                </div>","0","main_experiment_trial","5","dog_causal","causal_sequence","randomized","","","","",""
"","","","","","html-keyboard-response","77","151688","0.0-77.0","0EA3C639531149BC927C19D2C2DE0BD9","019cf98c-2e56-70fa-b707-ba19f572ce79","019cf974-7aee-7bc9-8ea4-9f55741b365d","","null","
                <div class=""stimulus-container"">
                    <img src=""images/causal_sequence/dog_causal/dog_causal_1.png"" class=""exp-image"">
                    <div class=""question-area""></div> 
                </div>","null","","","","","","","","","",""
"","","","","","html-button-response","78","152140","0.0-78.0","0EA3C639531149BC927C19D2C2DE0BD9","019cf98c-2e56-70fa-b707-ba19f572ce79","019cf974-7aee-7bc9-8ea4-9f55741b365d","","451","
                <div class=""stimulus-container"">
                    <img src=""images/causal_sequence/dog_causal/dog_causal_1.png"" class=""exp-image"">
                    <div class=""question-area"">
                        <p style=""font-size: 20px; font-weight: bold; margin: 0;"">Is there a person in this image?</p>
                    </div>
                </div>","0","main_experiment_trial","1","dog_causal","causal_sequence","randomized","","","","",""
"","","","","","html-keyboard-response","79","157157","0.0-79.0","0EA3C639531149BC927C19D2C2DE0BD9","019cf98c-2e56-70fa-b707-ba19f572ce79","019cf974-7aee-7bc9-8ea4-9f55741b365d","","null","<div style=""background-color: white; width: 100vw; height: 100vh;""></div>","null","","","","","","","","","",""
"","","","","","html-keyboard-response","80","158173","0.0-80.0","0EA3C639531149BC927C19D2C2DE0BD9","019cf98c-2e56-70fa-b707-ba19f572ce79","019cf974-7aee-7bc9-8ea4-9f55741b365d","","null","
                <div class=""stimulus-container"">
                    <img src=""images/semantic_sequence/kitchen_operations_semantic/kitchen_operations_semantic_2.png"" class=""exp-image"">
                    <div class=""question-area""></div> 
                </div>","null","","","","","","","","","",""
"","","","","","html-button-response","81","158605","0.0-81.0","0EA3C639531149BC927C19D2C2DE0BD9","019cf98c-2e56-70fa-b707-ba19f572ce79","019cf974-7aee-7bc9-8ea4-9f55741b365d","","431","
                <div class=""stimulus-container"">
                    <img src=""images/semantic_sequence/kitchen_operations_semantic/kitchen_operations_semantic_2.png"" class=""exp-image"">
                    <div class=""question-area"">
                        <p style=""font-size: 20px; font-weight: bold; margin: 0;"">Is there a person in this image?</p>
                    </div>
                </div>","0","main_experiment_trial","2","kitchen_operations_semantic","semantic_sequence","randomized","","","","",""
"","","","","","html-keyboard-response","82","159612","0.0-82.0","0EA3C639531149BC927C19D2C2DE0BD9","019cf98c-2e56-70fa-b707-ba19f572ce79","019cf974-7aee-7bc9-8ea4-9f55741b365d","","null","
                <div class=""stimulus-container"">
                    <img src=""images/semantic_sequence/kitchen_operations_semantic/kitchen_operations_semantic_1.png"" class=""exp-image"">
                    <div class=""question-area""></div> 
                </div>","null","","","","","","","","","",""
"","","","","","html-button-response","83","160221","0.0-83.0","0EA3C639531149BC927C19D2C2DE0BD9","019cf98c-2e56-70fa-b707-ba19f572ce79","019cf974-7aee-7bc9-8ea4-9f55741b365d","","606","
                <div class=""stimulus-container"">
                    <img src=""images/semantic_sequence/kitchen_operations_semantic/kitchen_operations_semantic_1.png"" class=""exp-image"">
                    <div class=""question-area"">
                        <p style=""font-size: 20px; font-weight: bold; margin: 0;"">Is there a person in this image?</p>
                    </div>
                </div>","0","main_experiment_trial","1","kitchen_operations_semantic","semantic_sequence","randomized","","","","",""
"","","","","","html-keyboard-response","84","161236","0.0-84.0","0EA3C639531149BC927C19D2C2DE0BD9","019cf98c-2e56-70fa-b707-ba19f572ce79","019cf974-7aee-7bc9-8ea4-9f55741b365d","","null","
                <div class=""stimulus-container"">
                    <img src=""images/semantic_sequence/kitchen_operations_semantic/kitchen_operations_semantic_4.png"" class=""exp-image"">
                    <div class=""question-area""></div> 
                </div>","null","","","","","","","","","",""
"","","","","","html-button-response","85","161865","0.0-85.0","0EA3C639531149BC927C19D2C2DE0BD9","019cf98c-2e56-70fa-b707-ba19f572ce79","019cf974-7aee-7bc9-8ea4-9f55741b365d","","628","
                <div class=""stimulus-container"">
                    <img src=""images/semantic_sequence/kitchen_operations_semantic/kitchen_operations_semantic_4.png"" class=""exp-image"">
                    <div class=""question-area"">
                        <p style=""font-size: 20px; font-weight: bold; margin: 0;"">Is there a person in this image?</p>
                    </div>
                </div>","0","main_experiment_trial","4","kitchen_operations_semantic","semantic_sequence","randomized","","","","",""
"","","","","","html-keyboard-response","86","162877","0.0-86.0","0EA3C639531149BC927C19D2C2DE0BD9","019cf98c-2e56-70fa-b707-ba19f572ce79","019cf974-7aee-7bc9-8ea4-9f55741b365d","","null","
                <div class=""stimulus-container"">
                    <img src=""images/semantic_sequence/kitchen_operations_semantic/kitchen_operations_semantic_7.png"" class=""exp-image"">
                    <div class=""question-area""></div> 
                </div>","null","","","","","","","","","",""
"","","","","","html-button-response","87","163259","0.0-87.0","0EA3C639531149BC927C19D2C2DE0BD9","019cf98c-2e56-70fa-b707-ba19f572ce79","019cf974-7aee-7bc9-8ea4-9f55741b365d","","381","
                <div class=""stimulus-container"">
                    <img src=""images/semantic_sequence/kitchen_operations_semantic/kitchen_operations_semantic_7.png"" class=""exp-image"">
                    <div class=""question-area"">
                        <p style=""font-size: 20px; font-weight: bold; margin: 0;"">Is there a person in this image?</p>
                    </div>
                </div>","0","main_experiment_trial","7","kitchen_operations_semantic","semantic_sequence","randomized","","","","",""
"","","","","","html-keyboard-response","88","164274","0.0-88.0","0EA3C639531149BC927C19D2C2DE0BD9","019cf98c-2e56-70fa-b707-ba19f572ce79","019cf974-7aee-7bc9-8ea4-9f55741b365d","","null","
                <div class=""stimulus-container"">
                    <img src=""images/semantic_sequence/kitchen_operations_semantic/kitchen_operations_semantic_5.png"" class=""exp-image"">
                    <div class=""question-area""></div> 
                </div>","null","","","","","","","","","",""
"","","","","","html-button-response","89","164617","0.0-89.0","0EA3C639531149BC927C19D2C2DE0BD9","019cf98c-2e56-70fa-b707-ba19f572ce79","019cf974-7aee-7bc9-8ea4-9f55741b365d","","341","
                <div class=""stimulus-container"">
                    <img src=""images/semantic_sequence/kitchen_operations_semantic/kitchen_operations_semantic_5.png"" class=""exp-image"">
                    <div class=""question-area"">
                        <p style=""font-size: 20px; font-weight: bold; margin: 0;"">Is there a person in this image?</p>
                    </div>
                </div>","0","main_experiment_trial","5","kitchen_operations_semantic","semantic_sequence","randomized","","","","",""
"","","","","","html-keyboard-response","90","165632","0.0-90.0","0EA3C639531149BC927C19D2C2DE0BD9","019cf98c-2e56-70fa-b707-ba19f572ce79","019cf974-7aee-7bc9-8ea4-9f55741b365d","","null","
                <div class=""stimulus-container"">
                    <img src=""images/semantic_sequence/kitchen_operations_semantic/kitchen_operations_semantic_6.png"" class=""exp-image"">
                    <div class=""question-area""></div> 
                </div>","null","","","","","","","","","",""
"","","","","","html-button-response","91","166027","0.0-91.0","0EA3C639531149BC927C19D2C2DE0BD9","019cf98c-2e56-70fa-b707-ba19f572ce79","019cf974-7aee-7bc9-8ea4-9f55741b365d","","393","
                <div class=""stimulus-container"">
                    <img src=""images/semantic_sequence/kitchen_operations_semantic/kitchen_operations_semantic_6.png"" class=""exp-image"">
                    <div class=""question-area"">
                        <p style=""font-size: 20px; font-weight: bold; margin: 0;"">Is there a person in this image?</p>
                    </div>
                </div>","0","main_experiment_trial","6","kitchen_operations_semantic","semantic_sequence","randomized","","","","",""
"","","","","","html-keyboard-response","92","167036","0.0-92.0","0EA3C639531149BC927C19D2C2DE0BD9","019cf98c-2e56-70fa-b707-ba19f572ce79","019cf974-7aee-7bc9-8ea4-9f55741b365d","","null","
                <div class=""stimulus-container"">
                    <img src=""images/semantic_sequence/kitchen_operations_semantic/kitchen_operations_semantic_ten.png"" class=""exp-image"">
                    <div class=""question-area""></div> 
                </div>","null","","","","","","","","","",""
"","","","","","html-button-response","93","167400","0.0-93.0","0EA3C639531149BC927C19D2C2DE0BD9","019cf98c-2e56-70fa-b707-ba19f572ce79","019cf974-7aee-7bc9-8ea4-9f55741b365d","","362","
                <div class=""stimulus-container"">
                    <img src=""images/semantic_sequence/kitchen_operations_semantic/kitchen_operations_semantic_ten.png"" class=""exp-image"">
                    <div class=""question-area"">
                        <p style=""font-size: 20px; font-weight: bold; margin: 0;"">Is there a person in this image?</p>
                    </div>
                </div>","0","main_experiment_trial","ten","kitchen_operations_semantic","semantic_sequence","randomized","","","","",""
"","","","","","html-keyboard-response","94","168404","0.0-94.0","0EA3C639531149BC927C19D2C2DE0BD9","019cf98c-2e56-70fa-b707-ba19f572ce79","019cf974-7aee-7bc9-8ea4-9f55741b365d","","null","
                <div class=""stimulus-container"">
                    <img src=""images/semantic_sequence/kitchen_operations_semantic/kitchen_operations_semantic_8.png"" class=""exp-image"">
                    <div class=""question-area""></div> 
                </div>","null","","","","","","","","","",""
"","","","","","html-button-response","95","168774","0.0-95.0","0EA3C639531149BC927C19D2C2DE0BD9","019cf98c-2e56-70fa-b707-ba19f572ce79","019cf974-7aee-7bc9-8ea4-9f55741b365d","","369","
                <div class=""stimulus-container"">
                    <img src=""images/semantic_sequence/kitchen_operations_semantic/kitchen_operations_semantic_8.png"" class=""exp-image"">
                    <div class=""question-area"">
                        <p style=""font-size: 20px; font-weight: bold; margin: 0;"">Is there a person in this image?</p>
                    </div>
                </div>","0","main_experiment_trial","8","kitchen_operations_semantic","semantic_sequence","randomized","","","","",""
"","","","","","html-keyboard-response","96","169780","0.0-96.0","0EA3C639531149BC927C19D2C2DE0BD9","019cf98c-2e56-70fa-b707-ba19f572ce79","019cf974-7aee-7bc9-8ea4-9f55741b365d","","null","
                <div class=""stimulus-container"">
                    <img src=""images/semantic_sequence/kitchen_operations_semantic/kitchen_operations_semantic_9.png"" class=""exp-image"">
                    <div class=""question-area""></div> 
                </div>","null","","","","","","","","","",""
"","","","","","html-button-response","97","170363","0.0-97.0","0EA3C639531149BC927C19D2C2DE0BD9","019cf98c-2e56-70fa-b707-ba19f572ce79","019cf974-7aee-7bc9-8ea4-9f55741b365d","","582","
                <div class=""stimulus-container"">
                    <img src=""images/semantic_sequence/kitchen_operations_semantic/kitchen_operations_semantic_9.png"" class=""exp-image"">
                    <div class=""question-area"">
                        <p style=""font-size: 20px; font-weight: bold; margin: 0;"">Is there a person in this image?</p>
                    </div>
                </div>","0","main_experiment_trial","9","kitchen_operations_semantic","semantic_sequence","randomized","","","","",""
"","","","","","html-keyboard-response","98","171379","0.0-98.0","0EA3C639531149BC927C19D2C2DE0BD9","019cf98c-2e56-70fa-b707-ba19f572ce79","019cf974-7aee-7bc9-8ea4-9f55741b365d","","null","
                <div class=""stimulus-container"">
                    <img src=""images/semantic_sequence/kitchen_operations_semantic/kitchen_operations_semantic_3.png"" class=""exp-image"">
                    <div class=""question-area""></div> 
                </div>","null","","","","","","","","","",""
"","","","","","html-button-response","99","171870","0.0-99.0","0EA3C639531149BC927C19D2C2DE0BD9","019cf98c-2e56-70fa-b707-ba19f572ce79","019cf974-7aee-7bc9-8ea4-9f55741b365d","","489","
                <div class=""stimulus-container"">
                    <img src=""images/semantic_sequence/kitchen_operations_semantic/kitchen_operations_semantic_3.png"" class=""exp-image"">
                    <div class=""question-area"">
                        <p style=""font-size: 20px; font-weight: bold; margin: 0;"">Is there a person in this image?</p>
                    </div>
                </div>","0","main_experiment_trial","3","kitchen_operations_semantic","semantic_sequence","randomized","","","","",""
"","","","","","html-keyboard-response","100","176877","0.0-100.0","0EA3C639531149BC927C19D2C2DE0BD9","019cf98c-2e56-70fa-b707-ba19f572ce79","019cf974-7aee-7bc9-8ea4-9f55741b365d","","null","<div style=""background-color: white; width: 100vw; height: 100vh;""></div>","null","","","","","","","","","",""
"","","","","","html-keyboard-response","101","177884","0.0-101.0","0EA3C639531149BC927C19D2C2DE0BD9","019cf98c-2e56-70fa-b707-ba19f572ce79","019cf974-7aee-7bc9-8ea4-9f55741b365d","","null","
                <div class=""stimulus-container"">
                    <img src=""images/semantic_sequence/maintaining_a_car_semantic/maintaining_a_car_semantic_1.png"" class=""exp-image"">
                    <div class=""question-area""></div> 
                </div>","null","","","","","","","","","",""
"","","","","","html-button-response","102","178848","0.0-102.0","0EA3C639531149BC927C19D2C2DE0BD9","019cf98c-2e56-70fa-b707-ba19f572ce79","019cf974-7aee-7bc9-8ea4-9f55741b365d","","962","
                <div class=""stimulus-container"">
                    <img src=""images/semantic_sequence/maintaining_a_car_semantic/maintaining_a_car_semantic_1.png"" class=""exp-image"">
                    <div class=""question-area"">
                        <p style=""font-size: 20px; font-weight: bold; margin: 0;"">Is there a person in this image?</p>
                    </div>
                </div>","0","main_experiment_trial","1","maintaining_a_car_semantic","semantic_sequence","randomized","","","","",""
"","","","","","html-keyboard-response","103","179850","0.0-103.0","0EA3C639531149BC927C19D2C2DE0BD9","019cf98c-2e56-70fa-b707-ba19f572ce79","019cf974-7aee-7bc9-8ea4-9f55741b365d","","null","
                <div class=""stimulus-container"">
                    <img src=""images/semantic_sequence/maintaining_a_car_semantic/maintaining_a_car_semantic_7.png"" class=""exp-image"">
                    <div class=""question-area""></div> 
                </div>","null","","","","","","","","","",""
"","","","","","html-button-response","104","180324","0.0-104.0","0EA3C639531149BC927C19D2C2DE0BD9","019cf98c-2e56-70fa-b707-ba19f572ce79","019cf974-7aee-7bc9-8ea4-9f55741b365d","","473","
                <div class=""stimulus-container"">
                    <img src=""images/semantic_sequence/maintaining_a_car_semantic/maintaining_a_car_semantic_7.png"" class=""exp-image"">
                    <div class=""question-area"">
                        <p style=""font-size: 20px; font-weight: bold; margin: 0;"">Is there a person in this image?</p>
                    </div>
                </div>","0","main_experiment_trial","7","maintaining_a_car_semantic","semantic_sequence","randomized","","","","",""
"","","","","","html-keyboard-response","105","181327","0.0-105.0","0EA3C639531149BC927C19D2C2DE0BD9","019cf98c-2e56-70fa-b707-ba19f572ce79","019cf974-7aee-7bc9-8ea4-9f55741b365d","","null","
                <div class=""stimulus-container"">
                    <img src=""images/semantic_sequence/maintaining_a_car_semantic/maintaining_a_car_semantic_2.png"" class=""exp-image"">
                    <div class=""question-area""></div> 
                </div>","null","","","","","","","","","",""
"","","","","","html-button-response","106","181707","0.0-106.0","0EA3C639531149BC927C19D2C2DE0BD9","019cf98c-2e56-70fa-b707-ba19f572ce79","019cf974-7aee-7bc9-8ea4-9f55741b365d","","378","
                <div class=""stimulus-container"">
                    <img src=""images/semantic_sequence/maintaining_a_car_semantic/maintaining_a_car_semantic_2.png"" class=""exp-image"">
                    <div class=""question-area"">
                        <p style=""font-size: 20px; font-weight: bold; margin: 0;"">Is there a person in this image?</p>
                    </div>
                </div>","0","main_experiment_trial","2","maintaining_a_car_semantic","semantic_sequence","randomized","","","","",""
"","","","","","html-keyboard-response","107","182719","0.0-107.0","0EA3C639531149BC927C19D2C2DE0BD9","019cf98c-2e56-70fa-b707-ba19f572ce79","019cf974-7aee-7bc9-8ea4-9f55741b365d","","null","
                <div class=""stimulus-container"">
                    <img src=""images/semantic_sequence/maintaining_a_car_semantic/maintaining_a_car_semantic_3.png"" class=""exp-image"">
                    <div class=""question-area""></div> 
                </div>","null","","","","","","","","","",""
"","","","","","html-button-response","108","183118","0.0-108.0","0EA3C639531149BC927C19D2C2DE0BD9","019cf98c-2e56-70fa-b707-ba19f572ce79","019cf974-7aee-7bc9-8ea4-9f55741b365d","","396","
                <div class=""stimulus-container"">
                    <img src=""images/semantic_sequence/maintaining_a_car_semantic/maintaining_a_car_semantic_3.png"" class=""exp-image"">
                    <div class=""question-area"">
                        <p style=""font-size: 20px; font-weight: bold; margin: 0;"">Is there a person in this image?</p>
                    </div>
                </div>","0","main_experiment_trial","3","maintaining_a_car_semantic","semantic_sequence","randomized","","","","",""
"","","","","","html-keyboard-response","109","184129","0.0-109.0","0EA3C639531149BC927C19D2C2DE0BD9","019cf98c-2e56-70fa-b707-ba19f572ce79","019cf974-7aee-7bc9-8ea4-9f55741b365d","","null","
                <div class=""stimulus-container"">
                    <img src=""images/semantic_sequence/maintaining_a_car_semantic/maintaining_a_car_semantic_4.png"" class=""exp-image"">
                    <div class=""question-area""></div> 
                </div>","null","","","","","","","","","",""
"","","","","","html-button-response","110","184709","0.0-110.0","0EA3C639531149BC927C19D2C2DE0BD9","019cf98c-2e56-70fa-b707-ba19f572ce79","019cf974-7aee-7bc9-8ea4-9f55741b365d","","578","
                <div class=""stimulus-container"">
                    <img src=""images/semantic_sequence/maintaining_a_car_semantic/maintaining_a_car_semantic_4.png"" class=""exp-image"">
                    <div class=""question-area"">
                        <p style=""font-size: 20px; font-weight: bold; margin: 0;"">Is there a person in this image?</p>
                    </div>
                </div>","0","main_experiment_trial","4","maintaining_a_car_semantic","semantic_sequence","randomized","","","","",""
"","","","","","html-keyboard-response","111","185715","0.0-111.0","0EA3C639531149BC927C19D2C2DE0BD9","019cf98c-2e56-70fa-b707-ba19f572ce79","019cf974-7aee-7bc9-8ea4-9f55741b365d","","null","
                <div class=""stimulus-container"">
                    <img src=""images/semantic_sequence/maintaining_a_car_semantic/maintaining_a_car_semantic_8.png"" class=""exp-image"">
                    <div class=""question-area""></div> 
                </div>","null","","","","","","","","","",""
"","","","","","html-button-response","112","186655","0.0-112.0","0EA3C639531149BC927C19D2C2DE0BD9","019cf98c-2e56-70fa-b707-ba19f572ce79","019cf974-7aee-7bc9-8ea4-9f55741b365d","","937","
                <div class=""stimulus-container"">
                    <img src=""images/semantic_sequence/maintaining_a_car_semantic/maintaining_a_car_semantic_8.png"" class=""exp-image"">
                    <div class=""question-area"">
                        <p style=""font-size: 20px; font-weight: bold; margin: 0;"">Is there a person in this image?</p>
                    </div>
                </div>","0","main_experiment_trial","8","maintaining_a_car_semantic","semantic_sequence","randomized","","","","",""
"","","","","","html-keyboard-response","113","187669","0.0-113.0","0EA3C639531149BC927C19D2C2DE0BD9","019cf98c-2e56-70fa-b707-ba19f572ce79","019cf974-7aee-7bc9-8ea4-9f55741b365d","","null","
                <div class=""stimulus-container"">
                    <img src=""images/semantic_sequence/maintaining_a_car_semantic/maintaining_a_car_semantic_ten.png"" class=""exp-image"">
                    <div class=""question-area""></div> 
                </div>","null","","","","","","","","","",""
"","","","","","html-button-response","114","188280","0.0-114.0","0EA3C639531149BC927C19D2C2DE0BD9","019cf98c-2e56-70fa-b707-ba19f572ce79","019cf974-7aee-7bc9-8ea4-9f55741b365d","","609","
                <div class=""stimulus-container"">
                    <img src=""images/semantic_sequence/maintaining_a_car_semantic/maintaining_a_car_semantic_ten.png"" class=""exp-image"">
                    <div class=""question-area"">
                        <p style=""font-size: 20px; font-weight: bold; margin: 0;"">Is there a person in this image?</p>
                    </div>
                </div>","0","main_experiment_trial","ten","maintaining_a_car_semantic","semantic_sequence","randomized","","","","",""
"","","","","","html-keyboard-response","115","189287","0.0-115.0","0EA3C639531149BC927C19D2C2DE0BD9","019cf98c-2e56-70fa-b707-ba19f572ce79","019cf974-7aee-7bc9-8ea4-9f55741b365d","","null","
                <div class=""stimulus-container"">
                    <img src=""images/semantic_sequence/maintaining_a_car_semantic/maintaining_a_car_semantic_6.png"" class=""exp-image"">
                    <div class=""question-area""></div> 
                </div>","null","","","","","","","","","",""
"","","","","","html-button-response","116","190068","0.0-116.0","0EA3C639531149BC927C19D2C2DE0BD9","019cf98c-2e56-70fa-b707-ba19f572ce79","019cf974-7aee-7bc9-8ea4-9f55741b365d","","779","
                <div class=""stimulus-container"">
                    <img src=""images/semantic_sequence/maintaining_a_car_semantic/maintaining_a_car_semantic_6.png"" class=""exp-image"">
                    <div class=""question-area"">
                        <p style=""font-size: 20px; font-weight: bold; margin: 0;"">Is there a person in this image?</p>
                    </div>
                </div>","0","main_experiment_trial","6","maintaining_a_car_semantic","semantic_sequence","randomized","","","","",""
"","","","","","html-keyboard-response","117","191078","0.0-117.0","0EA3C639531149BC927C19D2C2DE0BD9","019cf98c-2e56-70fa-b707-ba19f572ce79","019cf974-7aee-7bc9-8ea4-9f55741b365d","","null","
                <div class=""stimulus-container"">
                    <img src=""images/semantic_sequence/maintaining_a_car_semantic/maintaining_a_car_semantic_9.png"" class=""exp-image"">
                    <div class=""question-area""></div> 
                </div>","null","","","","","","","","","",""
"","","","","","html-button-response","118","191613","0.0-118.0","0EA3C639531149BC927C19D2C2DE0BD9","019cf98c-2e56-70fa-b707-ba19f572ce79","019cf974-7aee-7bc9-8ea4-9f55741b365d","","534","
                <div class=""stimulus-container"">
                    <img src=""images/semantic_sequence/maintaining_a_car_semantic/maintaining_a_car_semantic_9.png"" class=""exp-image"">
                    <div class=""question-area"">
                        <p style=""font-size: 20px; font-weight: bold; margin: 0;"">Is there a person in this image?</p>
                    </div>
                </div>","0","main_experiment_trial","9","maintaining_a_car_semantic","semantic_sequence","randomized","","","","",""
"","","","","","html-keyboard-response","119","192616","0.0-119.0","0EA3C639531149BC927C19D2C2DE0BD9","019cf98c-2e56-70fa-b707-ba19f572ce79","019cf974-7aee-7bc9-8ea4-9f55741b365d","","null","
                <div class=""stimulus-container"">
                    <img src=""images/semantic_sequence/maintaining_a_car_semantic/maintaining_a_car_semantic_5.png"" class=""exp-image"">
                    <div class=""question-area""></div> 
                </div>","null","","","","","","","","","",""
"","","","","","html-button-response","120","193106","0.0-120.0","0EA3C639531149BC927C19D2C2DE0BD9","019cf98c-2e56-70fa-b707-ba19f572ce79","019cf974-7aee-7bc9-8ea4-9f55741b365d","","489","
                <div class=""stimulus-container"">
                    <img src=""images/semantic_sequence/maintaining_a_car_semantic/maintaining_a_car_semantic_5.png"" class=""exp-image"">
                    <div class=""question-area"">
                        <p style=""font-size: 20px; font-weight: bold; margin: 0;"">Is there a person in this image?</p>
                    </div>
                </div>","0","main_experiment_trial","5","maintaining_a_car_semantic","semantic_sequence","randomized","","","","",""
"","","","","","html-keyboard-response","121","198109","0.0-121.0","0EA3C639531149BC927C19D2C2DE0BD9","019cf98c-2e56-70fa-b707-ba19f572ce79","019cf974-7aee-7bc9-8ea4-9f55741b365d","","null","<div style=""background-color: white; width: 100vw; height: 100vh;""></div>","null","","","","","","","","","",""
"","","","","","html-keyboard-response","122","199121","0.0-122.0","0EA3C639531149BC927C19D2C2DE0BD9","019cf98c-2e56-70fa-b707-ba19f572ce79","019cf974-7aee-7bc9-8ea4-9f55741b365d","","null","
                <div class=""stimulus-container"">
                    <img src=""images/semantic_sequence/housework_semantic/housework_semantic_2.png"" class=""exp-image"">
                    <div class=""question-area""></div> 
                </div>","null","","","","","","","","","",""
"","","","","","html-button-response","123","199529","0.0-123.0","0EA3C639531149BC927C19D2C2DE0BD9","019cf98c-2e56-70fa-b707-ba19f572ce79","019cf974-7aee-7bc9-8ea4-9f55741b365d","","407","
                <div class=""stimulus-container"">
                    <img src=""images/semantic_sequence/housework_semantic/housework_semantic_2.png"" class=""exp-image"">
                    <div class=""question-area"">
                        <p style=""font-size: 20px; font-weight: bold; margin: 0;"">Is there a person in this image?</p>
                    </div>
                </div>","0","main_experiment_trial","2","housework_semantic","semantic_sequence","randomized","","","","",""
"","","","","","html-keyboard-response","124","200534","0.0-124.0","0EA3C639531149BC927C19D2C2DE0BD9","019cf98c-2e56-70fa-b707-ba19f572ce79","019cf974-7aee-7bc9-8ea4-9f55741b365d","","null","
                <div class=""stimulus-container"">
                    <img src=""images/semantic_sequence/housework_semantic/housework_semantic_8.png"" class=""exp-image"">
                    <div class=""question-area""></div> 
                </div>","null","","","","","","","","","",""
"","","","","","html-button-response","125","200919","0.0-125.0","0EA3C639531149BC927C19D2C2DE0BD9","019cf98c-2e56-70fa-b707-ba19f572ce79","019cf974-7aee-7bc9-8ea4-9f55741b365d","","384","
                <div class=""stimulus-container"">
                    <img src=""images/semantic_sequence/housework_semantic/housework_semantic_8.png"" class=""exp-image"">
                    <div class=""question-area"">
                        <p style=""font-size: 20px; font-weight: bold; margin: 0;"">Is there a person in this image?</p>
                    </div>
                </div>","0","main_experiment_trial","8","housework_semantic","semantic_sequence","randomized","","","","",""
"","","","","","html-keyboard-response","126","201920","0.0-126.0","0EA3C639531149BC927C19D2C2DE0BD9","019cf98c-2e56-70fa-b707-ba19f572ce79","019cf974-7aee-7bc9-8ea4-9f55741b365d","","null","
                <div class=""stimulus-container"">
                    <img src=""images/semantic_sequence/housework_semantic/housework_semantic_7.png"" class=""exp-image"">
                    <div class=""question-area""></div> 
                </div>","null","","","","","","","","","",""
"","","","","","html-button-response","127","203712","0.0-127.0","0EA3C639531149BC927C19D2C2DE0BD9","019cf98c-2e56-70fa-b707-ba19f572ce79","019cf974-7aee-7bc9-8ea4-9f55741b365d","","1790","
                <div class=""stimulus-container"">
                    <img src=""images/semantic_sequence/housework_semantic/housework_semantic_7.png"" class=""exp-image"">
                    <div class=""question-area"">
                        <p style=""font-size: 20px; font-weight: bold; margin: 0;"">Is there a person in this image?</p>
                    </div>
                </div>","1","main_experiment_trial","7","housework_semantic","semantic_sequence","randomized","","","","",""
"","","","","","html-keyboard-response","128","204719","0.0-128.0","0EA3C639531149BC927C19D2C2DE0BD9","019cf98c-2e56-70fa-b707-ba19f572ce79","019cf974-7aee-7bc9-8ea4-9f55741b365d","","null","
                <div class=""stimulus-container"">
                    <img src=""images/semantic_sequence/housework_semantic/housework_semantic_6.png"" class=""exp-image"">
                    <div class=""question-area""></div> 
                </div>","null","","","","","","","","","",""
"","","","","","html-button-response","129","205717","0.0-129.0","0EA3C639531149BC927C19D2C2DE0BD9","019cf98c-2e56-70fa-b707-ba19f572ce79","019cf974-7aee-7bc9-8ea4-9f55741b365d","","995","
                <div class=""stimulus-container"">
                    <img src=""images/semantic_sequence/housework_semantic/housework_semantic_6.png"" class=""exp-image"">
                    <div class=""question-area"">
                        <p style=""font-size: 20px; font-weight: bold; margin: 0;"">Is there a person in this image?</p>
                    </div>
                </div>","0","main_experiment_trial","6","housework_semantic","semantic_sequence","randomized","","","","",""
"","","","","","html-keyboard-response","130","206718","0.0-130.0","0EA3C639531149BC927C19D2C2DE0BD9","019cf98c-2e56-70fa-b707-ba19f572ce79","019cf974-7aee-7bc9-8ea4-9f55741b365d","","null","
                <div class=""stimulus-container"">
                    <img src=""images/semantic_sequence/housework_semantic/housework_semantic_3.png"" class=""exp-image"">
                    <div class=""question-area""></div> 
                </div>","null","","","","","","","","","",""
"","","","","","html-button-response","131","207395","0.0-131.0","0EA3C639531149BC927C19D2C2DE0BD9","019cf98c-2e56-70fa-b707-ba19f572ce79","019cf974-7aee-7bc9-8ea4-9f55741b365d","","676","
                <div class=""stimulus-container"">
                    <img src=""images/semantic_sequence/housework_semantic/housework_semantic_3.png"" class=""exp-image"">
                    <div class=""question-area"">
                        <p style=""font-size: 20px; font-weight: bold; margin: 0;"">Is there a person in this image?</p>
                    </div>
                </div>","0","main_experiment_trial","3","housework_semantic","semantic_sequence","randomized","","","","",""
"","","","","","html-keyboard-response","132","208402","0.0-132.0","0EA3C639531149BC927C19D2C2DE0BD9","019cf98c-2e56-70fa-b707-ba19f572ce79","019cf974-7aee-7bc9-8ea4-9f55741b365d","","null","
                <div class=""stimulus-container"">
                    <img src=""images/semantic_sequence/housework_semantic/housework_semantic_4.png"" class=""exp-image"">
                    <div class=""question-area""></div> 
                </div>","null","","","","","","","","","",""
"","","","","","html-button-response","133","208749","0.0-133.0","0EA3C639531149BC927C19D2C2DE0BD9","019cf98c-2e56-70fa-b707-ba19f572ce79","019cf974-7aee-7bc9-8ea4-9f55741b365d","","344","
                <div class=""stimulus-container"">
                    <img src=""images/semantic_sequence/housework_semantic/housework_semantic_4.png"" class=""exp-image"">
                    <div class=""question-area"">
                        <p style=""font-size: 20px; font-weight: bold; margin: 0;"">Is there a person in this image?</p>
                    </div>
                </div>","0","main_experiment_trial","4","housework_semantic","semantic_sequence","randomized","","","","",""
"","","","","","html-keyboard-response","134","209751","0.0-134.0","0EA3C639531149BC927C19D2C2DE0BD9","019cf98c-2e56-70fa-b707-ba19f572ce79","019cf974-7aee-7bc9-8ea4-9f55741b365d","","null","
                <div class=""stimulus-container"">
                    <img src=""images/semantic_sequence/housework_semantic/housework_semantic_9.png"" class=""exp-image"">
                    <div class=""question-area""></div> 
                </div>","null","","","","","","","","","",""
"","","","","","html-button-response","135","210192","0.0-135.0","0EA3C639531149BC927C19D2C2DE0BD9","019cf98c-2e56-70fa-b707-ba19f572ce79","019cf974-7aee-7bc9-8ea4-9f55741b365d","","438","
                <div class=""stimulus-container"">
                    <img src=""images/semantic_sequence/housework_semantic/housework_semantic_9.png"" class=""exp-image"">
                    <div class=""question-area"">
                        <p style=""font-size: 20px; font-weight: bold; margin: 0;"">Is there a person in this image?</p>
                    </div>
                </div>","0","main_experiment_trial","9","housework_semantic","semantic_sequence","randomized","","","","",""
"","","","","","html-keyboard-response","136","211196","0.0-136.0","0EA3C639531149BC927C19D2C2DE0BD9","019cf98c-2e56-70fa-b707-ba19f572ce79","019cf974-7aee-7bc9-8ea4-9f55741b365d","","null","
                <div class=""stimulus-container"">
                    <img src=""images/semantic_sequence/housework_semantic/housework_semantic_5.png"" class=""exp-image"">
                    <div class=""question-area""></div> 
                </div>","null","","","","","","","","","",""
"","","","","","html-button-response","137","211504","0.0-137.0","0EA3C639531149BC927C19D2C2DE0BD9","019cf98c-2e56-70fa-b707-ba19f572ce79","019cf974-7aee-7bc9-8ea4-9f55741b365d","","306","
                <div class=""stimulus-container"">
                    <img src=""images/semantic_sequence/housework_semantic/housework_semantic_5.png"" class=""exp-image"">
                    <div class=""question-area"">
                        <p style=""font-size: 20px; font-weight: bold; margin: 0;"">Is there a person in this image?</p>
                    </div>
                </div>","0","main_experiment_trial","5","housework_semantic","semantic_sequence","randomized","","","","",""
"","","","","","html-keyboard-response","138","212517","0.0-138.0","0EA3C639531149BC927C19D2C2DE0BD9","019cf98c-2e56-70fa-b707-ba19f572ce79","019cf974-7aee-7bc9-8ea4-9f55741b365d","","null","
                <div class=""stimulus-container"">
                    <img src=""images/semantic_sequence/housework_semantic/housework_semantic_ten.png"" class=""exp-image"">
                    <div class=""question-area""></div> 
                </div>","null","","","","","","","","","",""
"","","","","","html-button-response","139","212814","0.0-139.0","0EA3C639531149BC927C19D2C2DE0BD9","019cf98c-2e56-70fa-b707-ba19f572ce79","019cf974-7aee-7bc9-8ea4-9f55741b365d","","295","
                <div class=""stimulus-container"">
                    <img src=""images/semantic_sequence/housework_semantic/housework_semantic_ten.png"" class=""exp-image"">
                    <div class=""question-area"">
                        <p style=""font-size: 20px; font-weight: bold; margin: 0;"">Is there a person in this image?</p>
                    </div>
                </div>","0","main_experiment_trial","ten","housework_semantic","semantic_sequence","randomized","","","","",""
"","","","","","html-keyboard-response","140","213820","0.0-140.0","0EA3C639531149BC927C19D2C2DE0BD9","019cf98c-2e56-70fa-b707-ba19f572ce79","019cf974-7aee-7bc9-8ea4-9f55741b365d","","null","
                <div class=""stimulus-container"">
                    <img src=""images/semantic_sequence/housework_semantic/housework_semantic_1.png"" class=""exp-image"">
                    <div class=""question-area""></div> 
                </div>","null","","","","","","","","","",""
"","","","","","html-button-response","141","214275","0.0-141.0","0EA3C639531149BC927C19D2C2DE0BD9","019cf98c-2e56-70fa-b707-ba19f572ce79","019cf974-7aee-7bc9-8ea4-9f55741b365d","","454","
                <div class=""stimulus-container"">
                    <img src=""images/semantic_sequence/housework_semantic/housework_semantic_1.png"" class=""exp-image"">
                    <div class=""question-area"">
                        <p style=""font-size: 20px; font-weight: bold; margin: 0;"">Is there a person in this image?</p>
                    </div>
                </div>","1","main_experiment_trial","1","housework_semantic","semantic_sequence","randomized","","","","",""
"","","","","","html-keyboard-response","142","219276","0.0-142.0","0EA3C639531149BC927C19D2C2DE0BD9","019cf98c-2e56-70fa-b707-ba19f572ce79","019cf974-7aee-7bc9-8ea4-9f55741b365d","","null","<div style=""background-color: white; width: 100vw; height: 100vh;""></div>","null","","","","","","","","","",""
"","","","","","html-keyboard-response","143","220286","0.0-143.0","0EA3C639531149BC927C19D2C2DE0BD9","019cf98c-2e56-70fa-b707-ba19f572ce79","019cf974-7aee-7bc9-8ea4-9f55741b365d","","null","
                <div class=""stimulus-container"">
                    <img src=""images/causal_sequence/museum_causal/museum_causal_7.png"" class=""exp-image"">
                    <div class=""question-area""></div> 
                </div>","null","","","","","","","","","",""
"","","","","","html-button-response","144","221058","0.0-144.0","0EA3C639531149BC927C19D2C2DE0BD9","019cf98c-2e56-70fa-b707-ba19f572ce79","019cf974-7aee-7bc9-8ea4-9f55741b365d","","771","
                <div class=""stimulus-container"">
                    <img src=""images/causal_sequence/museum_causal/museum_causal_7.png"" class=""exp-image"">
                    <div class=""question-area"">
                        <p style=""font-size: 20px; font-weight: bold; margin: 0;"">Is there a person in this image?</p>
                    </div>
                </div>","1","main_experiment_trial","7","museum_causal","causal_sequence","randomized","","","","",""
"","","","","","html-keyboard-response","145","222066","0.0-145.0","0EA3C639531149BC927C19D2C2DE0BD9","019cf98c-2e56-70fa-b707-ba19f572ce79","019cf974-7aee-7bc9-8ea4-9f55741b365d","","null","
                <div class=""stimulus-container"">
                    <img src=""images/causal_sequence/museum_causal/museum_causal_9.png"" class=""exp-image"">
                    <div class=""question-area""></div> 
                </div>","null","","","","","","","","","",""
"","","","","","html-button-response","146","222407","0.0-146.0","0EA3C639531149BC927C19D2C2DE0BD9","019cf98c-2e56-70fa-b707-ba19f572ce79","019cf974-7aee-7bc9-8ea4-9f55741b365d","","339","
                <div class=""stimulus-container"">
                    <img src=""images/causal_sequence/museum_causal/museum_causal_9.png"" class=""exp-image"">
                    <div class=""question-area"">
                        <p style=""font-size: 20px; font-weight: bold; margin: 0;"">Is there a person in this image?</p>
                    </div>
                </div>","1","main_experiment_trial","9","museum_causal","causal_sequence","randomized","","","","",""
"","","","","","html-keyboard-response","147","223416","0.0-147.0","0EA3C639531149BC927C19D2C2DE0BD9","019cf98c-2e56-70fa-b707-ba19f572ce79","019cf974-7aee-7bc9-8ea4-9f55741b365d","","null","
                <div class=""stimulus-container"">
                    <img src=""images/causal_sequence/museum_causal/museum_causal_5.png"" class=""exp-image"">
                    <div class=""question-area""></div> 
                </div>","null","","","","","","","","","",""
"","","","","","html-button-response","148","223740","0.0-148.0","0EA3C639531149BC927C19D2C2DE0BD9","019cf98c-2e56-70fa-b707-ba19f572ce79","019cf974-7aee-7bc9-8ea4-9f55741b365d","","323","
                <div class=""stimulus-container"">
                    <img src=""images/causal_sequence/museum_causal/museum_causal_5.png"" class=""exp-image"">
                    <div class=""question-area"">
                        <p style=""font-size: 20px; font-weight: bold; margin: 0;"">Is there a person in this image?</p>
                    </div>
                </div>","0","main_experiment_trial","5","museum_causal","causal_sequence","randomized","","","","",""
"","","","","","html-keyboard-response","149","224752","0.0-149.0","0EA3C639531149BC927C19D2C2DE0BD9","019cf98c-2e56-70fa-b707-ba19f572ce79","019cf974-7aee-7bc9-8ea4-9f55741b365d","","null","
                <div class=""stimulus-container"">
                    <img src=""images/causal_sequence/museum_causal/museum_causal_8.png"" class=""exp-image"">
                    <div class=""question-area""></div> 
                </div>","null","","","","","","","","","",""
"","","","","","html-button-response","150","225060","0.0-150.0","0EA3C639531149BC927C19D2C2DE0BD9","019cf98c-2e56-70fa-b707-ba19f572ce79","019cf974-7aee-7bc9-8ea4-9f55741b365d","","307","
                <div class=""stimulus-container"">
                    <img src=""images/causal_sequence/museum_causal/museum_causal_8.png"" class=""exp-image"">
                    <div class=""question-area"">
                        <p style=""font-size: 20px; font-weight: bold; margin: 0;"">Is there a person in this image?</p>
                    </div>
                </div>","0","main_experiment_trial","8","museum_causal","causal_sequence","randomized","","","","",""
"","","","","","html-keyboard-response","151","226071","0.0-151.0","0EA3C639531149BC927C19D2C2DE0BD9","019cf98c-2e56-70fa-b707-ba19f572ce79","019cf974-7aee-7bc9-8ea4-9f55741b365d","","null","
                <div class=""stimulus-container"">
                    <img src=""images/causal_sequence/museum_causal/museum_causal_4.png"" class=""exp-image"">
                    <div class=""question-area""></div> 
                </div>","null","","","","","","","","","",""
"","","","","","html-button-response","152","226224","0.0-152.0","0EA3C639531149BC927C19D2C2DE0BD9","019cf98c-2e56-70fa-b707-ba19f572ce79","019cf974-7aee-7bc9-8ea4-9f55741b365d","","151","
                <div class=""stimulus-container"">
                    <img src=""images/causal_sequence/museum_causal/museum_causal_4.png"" class=""exp-image"">
                    <div class=""question-area"">
                        <p style=""font-size: 20px; font-weight: bold; margin: 0;"">Is there a person in this image?</p>
                    </div>
                </div>","1","main_experiment_trial","4","museum_causal","causal_sequence","randomized","","","","",""
"","","","","","html-keyboard-response","153","227233","0.0-153.0","0EA3C639531149BC927C19D2C2DE0BD9","019cf98c-2e56-70fa-b707-ba19f572ce79","019cf974-7aee-7bc9-8ea4-9f55741b365d","","null","
                <div class=""stimulus-container"">
                    <img src=""images/causal_sequence/museum_causal/museum_causal_3.png"" class=""exp-image"">
                    <div class=""question-area""></div> 
                </div>","null","","","","","","","","","",""
"","","","","","html-button-response","154","227842","0.0-154.0","0EA3C639531149BC927C19D2C2DE0BD9","019cf98c-2e56-70fa-b707-ba19f572ce79","019cf974-7aee-7bc9-8ea4-9f55741b365d","","608","
                <div class=""stimulus-container"">
                    <img src=""images/causal_sequence/museum_causal/museum_causal_3.png"" class=""exp-image"">
                    <div class=""question-area"">
                        <p style=""font-size: 20px; font-weight: bold; margin: 0;"">Is there a person in this image?</p>
                    </div>
                </div>","1","main_experiment_trial","3","museum_causal","causal_sequence","randomized","","","","",""
"","","","","","html-keyboard-response","155","228858","0.0-155.0","0EA3C639531149BC927C19D2C2DE0BD9","019cf98c-2e56-70fa-b707-ba19f572ce79","019cf974-7aee-7bc9-8ea4-9f55741b365d","","null","
                <div class=""stimulus-container"">
                    <img src=""images/causal_sequence/museum_causal/museum_causal_2.png"" class=""exp-image"">
                    <div class=""question-area""></div> 
                </div>","null","","","","","","","","","",""
"","","","","","html-button-response","156","229172","0.0-156.0","0EA3C639531149BC927C19D2C2DE0BD9","019cf98c-2e56-70fa-b707-ba19f572ce79","019cf974-7aee-7bc9-8ea4-9f55741b365d","","314","
                <div class=""stimulus-container"">
                    <img src=""images/causal_sequence/museum_causal/museum_causal_2.png"" class=""exp-image"">
                    <div class=""question-area"">
                        <p style=""font-size: 20px; font-weight: bold; margin: 0;"">Is there a person in this image?</p>
                    </div>
                </div>","1","main_experiment_trial","2","museum_causal","causal_sequence","randomized","","","","",""
"","","","","","html-keyboard-response","157","230186","0.0-157.0","0EA3C639531149BC927C19D2C2DE0BD9","019cf98c-2e56-70fa-b707-ba19f572ce79","019cf974-7aee-7bc9-8ea4-9f55741b365d","","null","
                <div class=""stimulus-container"">
                    <img src=""images/causal_sequence/museum_causal/museum_causal_1.png"" class=""exp-image"">
                    <div class=""question-area""></div> 
                </div>","null","","","","","","","","","",""
"","","","","","html-button-response","158","230394","0.0-158.0","0EA3C639531149BC927C19D2C2DE0BD9","019cf98c-2e56-70fa-b707-ba19f572ce79","019cf974-7aee-7bc9-8ea4-9f55741b365d","","207","
                <div class=""stimulus-container"">
                    <img src=""images/causal_sequence/museum_causal/museum_causal_1.png"" class=""exp-image"">
                    <div class=""question-area"">
                        <p style=""font-size: 20px; font-weight: bold; margin: 0;"">Is there a person in this image?</p>
                    </div>
                </div>","0","main_experiment_trial","1","museum_causal","causal_sequence","randomized","","","","",""
"","","","","","html-keyboard-response","159","231405","0.0-159.0","0EA3C639531149BC927C19D2C2DE0BD9","019cf98c-2e56-70fa-b707-ba19f572ce79","019cf974-7aee-7bc9-8ea4-9f55741b365d","","null","
                <div class=""stimulus-container"">
                    <img src=""images/causal_sequence/museum_causal/museum_causal_6.png"" class=""exp-image"">
                    <div class=""question-area""></div> 
                </div>","null","","","","","","","","","",""
"","","","","","html-button-response","160","231834","0.0-160.0","0EA3C639531149BC927C19D2C2DE0BD9","019cf98c-2e56-70fa-b707-ba19f572ce79","019cf974-7aee-7bc9-8ea4-9f55741b365d","","427","
                <div class=""stimulus-container"">
                    <img src=""images/causal_sequence/museum_causal/museum_causal_6.png"" class=""exp-image"">
                    <div class=""question-area"">
                        <p style=""font-size: 20px; font-weight: bold; margin: 0;"">Is there a person in this image?</p>
                    </div>
                </div>","0","main_experiment_trial","6","museum_causal","causal_sequence","randomized","","","","",""
"","","","","","html-keyboard-response","161","232849","0.0-161.0","0EA3C639531149BC927C19D2C2DE0BD9","019cf98c-2e56-70fa-b707-ba19f572ce79","019cf974-7aee-7bc9-8ea4-9f55741b365d","","null","
                <div class=""stimulus-container"">
                    <img src=""images/causal_sequence/museum_causal/museum_causal_ten.png"" class=""exp-image"">
                    <div class=""question-area""></div> 
                </div>","null","","","","","","","","","",""
"","","","","","html-button-response","162","233146","0.0-162.0","0EA3C639531149BC927C19D2C2DE0BD9","019cf98c-2e56-70fa-b707-ba19f572ce79","019cf974-7aee-7bc9-8ea4-9f55741b365d","","295","
                <div class=""stimulus-container"">
                    <img src=""images/causal_sequence/museum_causal/museum_causal_ten.png"" class=""exp-image"">
                    <div class=""question-area"">
                        <p style=""font-size: 20px; font-weight: bold; margin: 0;"">Is there a person in this image?</p>
                    </div>
                </div>","0","main_experiment_trial","ten","museum_causal","causal_sequence","randomized","","","","",""
"","","","","","html-keyboard-response","163","238160","0.0-163.0","0EA3C639531149BC927C19D2C2DE0BD9","019cf98c-2e56-70fa-b707-ba19f572ce79","019cf974-7aee-7bc9-8ea4-9f55741b365d","","null","<div style=""background-color: white; width: 100vw; height: 100vh;""></div>","null","","","","","","","","","",""
"","","","","","html-keyboard-response","164","239173","0.0-164.0","0EA3C639531149BC927C19D2C2DE0BD9","019cf98c-2e56-70fa-b707-ba19f572ce79","019cf974-7aee-7bc9-8ea4-9f55741b365d","","null","
                <div class=""stimulus-container"">
                    <img src=""images/causal_sequence/the_performance_causal/the_performance_causal_ten.png"" class=""exp-image"">
                    <div class=""question-area""></div> 
                </div>","null","","","","","","","","","",""
"","","","","","html-button-response","165","239578","0.0-165.0","0EA3C639531149BC927C19D2C2DE0BD9","019cf98c-2e56-70fa-b707-ba19f572ce79","019cf974-7aee-7bc9-8ea4-9f55741b365d","","403","
                <div class=""stimulus-container"">
                    <img src=""images/causal_sequence/the_performance_causal/the_performance_causal_ten.png"" class=""exp-image"">
                    <div class=""question-area"">
                        <p style=""font-size: 20px; font-weight: bold; margin: 0;"">Is there a person in this image?</p>
                    </div>
                </div>","0","main_experiment_trial","ten","the_performance_causal","causal_sequence","randomized","","","","",""
"","","","","","html-keyboard-response","166","240586","0.0-166.0","0EA3C639531149BC927C19D2C2DE0BD9","019cf98c-2e56-70fa-b707-ba19f572ce79","019cf974-7aee-7bc9-8ea4-9f55741b365d","","null","
                <div class=""stimulus-container"">
                    <img src=""images/causal_sequence/the_performance_causal/the_performance_causal_3.png"" class=""exp-image"">
                    <div class=""question-area""></div> 
                </div>","null","","","","","","","","","",""
"","","","","","html-button-response","167","240995","0.0-167.0","0EA3C639531149BC927C19D2C2DE0BD9","019cf98c-2e56-70fa-b707-ba19f572ce79","019cf974-7aee-7bc9-8ea4-9f55741b365d","","407","
                <div class=""stimulus-container"">
                    <img src=""images/causal_sequence/the_performance_causal/the_performance_causal_3.png"" class=""exp-image"">
                    <div class=""question-area"">
                        <p style=""font-size: 20px; font-weight: bold; margin: 0;"">Is there a person in this image?</p>
                    </div>
                </div>","0","main_experiment_trial","3","the_performance_causal","causal_sequence","randomized","","","","",""
"","","","","","html-keyboard-response","168","242010","0.0-168.0","0EA3C639531149BC927C19D2C2DE0BD9","019cf98c-2e56-70fa-b707-ba19f572ce79","019cf974-7aee-7bc9-8ea4-9f55741b365d","","null","
                <div class=""stimulus-container"">
                    <img src=""images/causal_sequence/the_performance_causal/the_performance_causal_1.png"" class=""exp-image"">
                    <div class=""question-area""></div> 
                </div>","null","","","","","","","","","",""
"","","","","","html-button-response","169","242334","0.0-169.0","0EA3C639531149BC927C19D2C2DE0BD9","019cf98c-2e56-70fa-b707-ba19f572ce79","019cf974-7aee-7bc9-8ea4-9f55741b365d","","322","
                <div class=""stimulus-container"">
                    <img src=""images/causal_sequence/the_performance_causal/the_performance_causal_1.png"" class=""exp-image"">
                    <div class=""question-area"">
                        <p style=""font-size: 20px; font-weight: bold; margin: 0;"">Is there a person in this image?</p>
                    </div>
                </div>","0","main_experiment_trial","1","the_performance_causal","causal_sequence","randomized","","","","",""
"","","","","","html-keyboard-response","170","243344","0.0-170.0","0EA3C639531149BC927C19D2C2DE0BD9","019cf98c-2e56-70fa-b707-ba19f572ce79","019cf974-7aee-7bc9-8ea4-9f55741b365d","","null","
                <div class=""stimulus-container"">
                    <img src=""images/causal_sequence/the_performance_causal/the_performance_causal_2.png"" class=""exp-image"">
                    <div class=""question-area""></div> 
                </div>","null","","","","","","","","","",""
"","","","","","html-button-response","171","243694","0.0-171.0","0EA3C639531149BC927C19D2C2DE0BD9","019cf98c-2e56-70fa-b707-ba19f572ce79","019cf974-7aee-7bc9-8ea4-9f55741b365d","","349","
                <div class=""stimulus-container"">
                    <img src=""images/causal_sequence/the_performance_causal/the_performance_causal_2.png"" class=""exp-image"">
                    <div class=""question-area"">
                        <p style=""font-size: 20px; font-weight: bold; margin: 0;"">Is there a person in this image?</p>
                    </div>
                </div>","0","main_experiment_trial","2","the_performance_causal","causal_sequence","randomized","","","","",""
"","","","","","html-keyboard-response","172","244700","0.0-172.0","0EA3C639531149BC927C19D2C2DE0BD9","019cf98c-2e56-70fa-b707-ba19f572ce79","019cf974-7aee-7bc9-8ea4-9f55741b365d","","null","
                <div class=""stimulus-container"">
                    <img src=""images/causal_sequence/the_performance_causal/the_performance_causal_9.png"" class=""exp-image"">
                    <div class=""question-area""></div> 
                </div>","null","","","","","","","","","",""
"","","","","","html-button-response","173","245206","0.0-173.0","0EA3C639531149BC927C19D2C2DE0BD9","019cf98c-2e56-70fa-b707-ba19f572ce79","019cf974-7aee-7bc9-8ea4-9f55741b365d","","505","
                <div class=""stimulus-container"">
                    <img src=""images/causal_sequence/the_performance_causal/the_performance_causal_9.png"" class=""exp-image"">
                    <div class=""question-area"">
                        <p style=""font-size: 20px; font-weight: bold; margin: 0;"">Is there a person in this image?</p>
                    </div>
                </div>","0","main_experiment_trial","9","the_performance_causal","causal_sequence","randomized","","","","",""
"","","","","","html-keyboard-response","174","246221","0.0-174.0","0EA3C639531149BC927C19D2C2DE0BD9","019cf98c-2e56-70fa-b707-ba19f572ce79","019cf974-7aee-7bc9-8ea4-9f55741b365d","","null","
                <div class=""stimulus-container"">
                    <img src=""images/causal_sequence/the_performance_causal/the_performance_causal_6.png"" class=""exp-image"">
                    <div class=""question-area""></div> 
                </div>","null","","","","","","","","","",""
"","","","","","html-button-response","175","246655","0.0-175.0","0EA3C639531149BC927C19D2C2DE0BD9","019cf98c-2e56-70fa-b707-ba19f572ce79","019cf974-7aee-7bc9-8ea4-9f55741b365d","","433","
                <div class=""stimulus-container"">
                    <img src=""images/causal_sequence/the_performance_causal/the_performance_causal_6.png"" class=""exp-image"">
                    <div class=""question-area"">
                        <p style=""font-size: 20px; font-weight: bold; margin: 0;"">Is there a person in this image?</p>
                    </div>
                </div>","0","main_experiment_trial","6","the_performance_causal","causal_sequence","randomized","","","","",""
"","","","","","html-keyboard-response","176","247667","0.0-176.0","0EA3C639531149BC927C19D2C2DE0BD9","019cf98c-2e56-70fa-b707-ba19f572ce79","019cf974-7aee-7bc9-8ea4-9f55741b365d","","null","
                <div class=""stimulus-container"">
                    <img src=""images/causal_sequence/the_performance_causal/the_performance_causal_7.png"" class=""exp-image"">
                    <div class=""question-area""></div> 
                </div>","null","","","","","","","","","",""
"","","","","","html-button-response","177","248135","0.0-177.0","0EA3C639531149BC927C19D2C2DE0BD9","019cf98c-2e56-70fa-b707-ba19f572ce79","019cf974-7aee-7bc9-8ea4-9f55741b365d","","466","
                <div class=""stimulus-container"">
                    <img src=""images/causal_sequence/the_performance_causal/the_performance_causal_7.png"" class=""exp-image"">
                    <div class=""question-area"">
                        <p style=""font-size: 20px; font-weight: bold; margin: 0;"">Is there a person in this image?</p>
                    </div>
                </div>","0","main_experiment_trial","7","the_performance_causal","causal_sequence","randomized","","","","",""
"","","","","","html-keyboard-response","178","249142","0.0-178.0","0EA3C639531149BC927C19D2C2DE0BD9","019cf98c-2e56-70fa-b707-ba19f572ce79","019cf974-7aee-7bc9-8ea4-9f55741b365d","","null","
                <div class=""stimulus-container"">
                    <img src=""images/causal_sequence/the_performance_causal/the_performance_causal_8.png"" class=""exp-image"">
                    <div class=""question-area""></div> 
                </div>","null","","","","","","","","","",""
