"success","timeout","failed_images","failed_audio","failed_video","trial_type","trial_index","time_elapsed","internal_node_id","subject_id","study_id","session_id","view_history","rt","stimulus","response","task","image_index","folder","valuable_image_index","valuable_X","chosen_image_index","distance_from_X"
"false","false","[]","[]","[]","preload","0","9118","0.0-0.0","F3540556170C436AA78B862C7D8C714F","019ce76a-6746-70d2-9223-3557547e1439","019ce768-b048-7627-b827-888248f65c31","","","","","","","","","","",""
"","","","","","instructions","1","16921","0.0-1.0","F3540556170C436AA78B862C7D8C714F","019ce76a-6746-70d2-9223-3557547e1439","019ce768-b048-7627-b827-888248f65c31","[{""page_index"":0,""viewing_time"":7802}]","7802","","","","","","","","",""
"","","","","","instructions","2","19941","0.0-2.0","F3540556170C436AA78B862C7D8C714F","019ce76a-6746-70d2-9223-3557547e1439","019ce768-b048-7627-b827-888248f65c31","[{""page_index"":0,""viewing_time"":3019}]","3020","","","","","","","","",""
"true","","","","","fullscreen","3","49394","0.0-3.0","F3540556170C436AA78B862C7D8C714F","019ce76a-6746-70d2-9223-3557547e1439","019ce768-b048-7627-b827-888248f65c31","","28449","","","","","","","","",""
"","","","","","instructions","4","60762","0.0-4.0","F3540556170C436AA78B862C7D8C714F","019ce76a-6746-70d2-9223-3557547e1439","019ce768-b048-7627-b827-888248f65c31","[{""page_index"":0,""viewing_time"":11367}]","11367","","","","","","","","",""
"","","","","","instructions","5","95603","0.0-5.0","F3540556170C436AA78B862C7D8C714F","019ce76a-6746-70d2-9223-3557547e1439","019ce768-b048-7627-b827-888248f65c31","[{""page_index"":0,""viewing_time"":34841}]","34841","","","","","","","","",""
"","","","","","html-keyboard-response","6","99606","0.0-6.0","F3540556170C436AA78B862C7D8C714F","019ce76a-6746-70d2-9223-3557547e1439","019ce768-b048-7627-b827-888248f65c31","","null","
                <div class=""stimulus-container"">
                    <img src=""images/instructions/movie_1.png"" class=""exp-image"">
                    <div class=""question-area""></div> 
                </div>","null","","","","","","",""
"","","","","","html-button-response","7","102004","0.0-7.0","F3540556170C436AA78B862C7D8C714F","019ce76a-6746-70d2-9223-3557547e1439","019ce768-b048-7627-b827-888248f65c31","","2395","
                <div class=""stimulus-container"">
                    <img src=""images/instructions/movie_1.png"" class=""exp-image"">
                    <div class=""question-area"">
                        <p style=""font-size: 20px; font-weight: bold; margin: 0;"">Was there a person in this image?</p>
                    </div>
                </div>","0","example_question","1","","","","",""
"","","","","","html-keyboard-response","8","106006","0.0-8.0","F3540556170C436AA78B862C7D8C714F","019ce76a-6746-70d2-9223-3557547e1439","019ce768-b048-7627-b827-888248f65c31","","null","
                <div class=""stimulus-container"">
                    <img src=""images/instructions/movie_2.png"" class=""exp-image"">
                    <div class=""question-area""></div> 
                </div>","null","","","","","","",""
"","","","","","html-button-response","9","106974","0.0-9.0","F3540556170C436AA78B862C7D8C714F","019ce76a-6746-70d2-9223-3557547e1439","019ce768-b048-7627-b827-888248f65c31","","966","
                <div class=""stimulus-container"">
                    <img src=""images/instructions/movie_2.png"" class=""exp-image"">
                    <div class=""question-area"">
                        <p style=""font-size: 20px; font-weight: bold; margin: 0;"">Was there a person in this image?</p>
                    </div>
                </div>","0","example_question","2","","","","",""
"","","","","","html-keyboard-response","10","110976","0.0-10.0","F3540556170C436AA78B862C7D8C714F","019ce76a-6746-70d2-9223-3557547e1439","019ce768-b048-7627-b827-888248f65c31","","null","
                <div class=""stimulus-container"">
                    <img src=""images/instructions/movie_3.png"" class=""exp-image"">
                    <div class=""question-area""></div> 
                </div>","null","","","","","","",""
"","","","","","html-button-response","11","112084","0.0-11.0","F3540556170C436AA78B862C7D8C714F","019ce76a-6746-70d2-9223-3557547e1439","019ce768-b048-7627-b827-888248f65c31","","1107","
                <div class=""stimulus-container"">
                    <img src=""images/instructions/movie_3.png"" class=""exp-image"">
                    <div class=""question-area"">
                        <p style=""font-size: 20px; font-weight: bold; margin: 0;"">Was there a person in this image?</p>
                    </div>
                </div>","0","example_question","3","","","","",""
"","","","","","html-keyboard-response","12","116087","0.0-12.0","F3540556170C436AA78B862C7D8C714F","019ce76a-6746-70d2-9223-3557547e1439","019ce768-b048-7627-b827-888248f65c31","","null","
                <div class=""stimulus-container"">
                    <img src=""images/instructions/movie_4.png"" class=""exp-image"">
                    <div class=""question-area""></div> 
                </div>","null","","","","","","",""
"","","","","","html-button-response","13","116864","0.0-13.0","F3540556170C436AA78B862C7D8C714F","019ce76a-6746-70d2-9223-3557547e1439","019ce768-b048-7627-b827-888248f65c31","","776","
                <div class=""stimulus-container"">
                    <img src=""images/instructions/movie_4.png"" class=""exp-image"">
                    <div class=""question-area"">
                        <p style=""font-size: 20px; font-weight: bold; margin: 0;"">Was there a person in this image?</p>
                    </div>
                </div>","0","example_question","4","","","","",""
"","","","","","instructions","14","201566","0.0-14.0","F3540556170C436AA78B862C7D8C714F","019ce76a-6746-70d2-9223-3557547e1439","019ce768-b048-7627-b827-888248f65c31","[{""page_index"":0,""viewing_time"":84701}]","84701","","","","","","","","",""
"","","","","","html-keyboard-response","15","202568","0.0-15.0","F3540556170C436AA78B862C7D8C714F","019ce76a-6746-70d2-9223-3557547e1439","019ce768-b048-7627-b827-888248f65c31","","null","<div style=""background-color: gray; width: 100vw; height: 100vh;""></div>","null","","","","","","",""
"","","","","","html-keyboard-response","16","207571","0.0-16.0","F3540556170C436AA78B862C7D8C714F","019ce76a-6746-70d2-9223-3557547e1439","019ce768-b048-7627-b827-888248f65c31","","null","
                    <div class=""stimulus-container"">
                        <img src=""images/causal_sequence/dog_causal/dog_causal_1.png"" class=""exp-image"">
                        <div class=""question-area""></div> 
                    </div>","null","","","","","","",""
"","","","","","html-button-response","17","208611","0.0-17.0","F3540556170C436AA78B862C7D8C714F","019ce76a-6746-70d2-9223-3557547e1439","019ce768-b048-7627-b827-888248f65c31","","1039","
                    <div class=""stimulus-container"">
                        <img src=""images/causal_sequence/dog_causal/dog_causal_1.png"" class=""exp-image"">
                        <div class=""question-area"">
                            <p style=""font-size: 20px; font-weight: bold; margin: 0;"">Is there a person in this image?</p>
                        </div>
                    </div>","0","main_causal_task","1","dog_causal","","","",""
"","","","","","html-keyboard-response","18","213613","0.0-18.0","F3540556170C436AA78B862C7D8C714F","019ce76a-6746-70d2-9223-3557547e1439","019ce768-b048-7627-b827-888248f65c31","","null","
                    <div class=""stimulus-container"">
                        <img src=""images/causal_sequence/dog_causal/dog_causal_2.png"" class=""exp-image"">
                        <div class=""question-area""></div> 
                    </div>","null","","","","","","",""
"","","","","","html-button-response","19","214257","0.0-19.0","F3540556170C436AA78B862C7D8C714F","019ce76a-6746-70d2-9223-3557547e1439","019ce768-b048-7627-b827-888248f65c31","","642","
                    <div class=""stimulus-container"">
                        <img src=""images/causal_sequence/dog_causal/dog_causal_2.png"" class=""exp-image"">
                        <div class=""question-area"">
                            <p style=""font-size: 20px; font-weight: bold; margin: 0;"">Is there a person in this image?</p>
                        </div>
                    </div>","0","main_causal_task","2","dog_causal","","","",""
"","","","","","html-keyboard-response","20","219258","0.0-20.0","F3540556170C436AA78B862C7D8C714F","019ce76a-6746-70d2-9223-3557547e1439","019ce768-b048-7627-b827-888248f65c31","","null","
                    <div class=""stimulus-container"">
                        <img src=""images/causal_sequence/dog_causal/dog_causal_3.png"" class=""exp-image"">
                        <div class=""question-area""></div> 
                    </div>","null","","","","","","",""
"","","","","","html-button-response","21","220337","0.0-21.0","F3540556170C436AA78B862C7D8C714F","019ce76a-6746-70d2-9223-3557547e1439","019ce768-b048-7627-b827-888248f65c31","","1077","
                    <div class=""stimulus-container"">
                        <img src=""images/causal_sequence/dog_causal/dog_causal_3.png"" class=""exp-image"">
                        <div class=""question-area"">
                            <p style=""font-size: 20px; font-weight: bold; margin: 0;"">Is there a person in this image?</p>
                        </div>
                    </div>","0","main_causal_task","3","dog_causal","","","",""
"","","","","","html-keyboard-response","22","225339","0.0-22.0","F3540556170C436AA78B862C7D8C714F","019ce76a-6746-70d2-9223-3557547e1439","019ce768-b048-7627-b827-888248f65c31","","null","
                    <div class=""stimulus-container"">
                        <img src=""images/causal_sequence/dog_causal/dog_causal_4.png"" class=""exp-image"">
                        <div class=""question-area""></div> 
                    </div>","null","","","","","","",""
"","","","","","html-button-response","23","226067","0.0-23.0","F3540556170C436AA78B862C7D8C714F","019ce76a-6746-70d2-9223-3557547e1439","019ce768-b048-7627-b827-888248f65c31","","727","
                    <div class=""stimulus-container"">
                        <img src=""images/causal_sequence/dog_causal/dog_causal_4.png"" class=""exp-image"">
                        <div class=""question-area"">
                            <p style=""font-size: 20px; font-weight: bold; margin: 0;"">Is there a person in this image?</p>
                        </div>
                    </div>","0","main_causal_task","4","dog_causal","","","",""
"","","","","","html-keyboard-response","24","231072","0.0-24.0","F3540556170C436AA78B862C7D8C714F","019ce76a-6746-70d2-9223-3557547e1439","019ce768-b048-7627-b827-888248f65c31","","null","
                    <div class=""stimulus-container"">
                        <img src=""images/causal_sequence/dog_causal/dog_causal_5.png"" class=""exp-image"">
                        <div class=""question-area""></div> 
                    </div>","null","","","","","","",""
"","","","","","html-button-response","25","231737","0.0-25.0","F3540556170C436AA78B862C7D8C714F","019ce76a-6746-70d2-9223-3557547e1439","019ce768-b048-7627-b827-888248f65c31","","664","
                    <div class=""stimulus-container"">
                        <img src=""images/causal_sequence/dog_causal/dog_causal_5.png"" class=""exp-image"">
                        <div class=""question-area"">
                            <p style=""font-size: 20px; font-weight: bold; margin: 0;"">Is there a person in this image?</p>
                        </div>
                    </div>","0","main_causal_task","5","dog_causal","","","",""
"","","","","","html-keyboard-response","26","236738","0.0-26.0","F3540556170C436AA78B862C7D8C714F","019ce76a-6746-70d2-9223-3557547e1439","019ce768-b048-7627-b827-888248f65c31","","null","
                    <div class=""stimulus-container"">
                        <img src=""images/causal_sequence/dog_causal/dog_causal_6.png"" class=""exp-image"">
                        <div class=""question-area""></div> 
                    </div>","null","","","","","","",""
"","","","","","html-button-response","27","237437","0.0-27.0","F3540556170C436AA78B862C7D8C714F","019ce76a-6746-70d2-9223-3557547e1439","019ce768-b048-7627-b827-888248f65c31","","697","
                    <div class=""stimulus-container"">
                        <img src=""images/causal_sequence/dog_causal/dog_causal_6.png"" class=""exp-image"">
                        <div class=""question-area"">
                            <p style=""font-size: 20px; font-weight: bold; margin: 0;"">Is there a person in this image?</p>
                        </div>
                    </div>","0","main_causal_task","6","dog_causal","","","",""
"","","","","","html-keyboard-response","28","242439","0.0-28.0","F3540556170C436AA78B862C7D8C714F","019ce76a-6746-70d2-9223-3557547e1439","019ce768-b048-7627-b827-888248f65c31","","null","
                    <div class=""stimulus-container"">
                        <img src=""images/causal_sequence/dog_causal/dog_causal_7.png"" class=""exp-image"">
                        <div class=""question-area""></div> 
                    </div>","null","","","","","","",""
"","","","","","html-button-response","29","243667","0.0-29.0","F3540556170C436AA78B862C7D8C714F","019ce76a-6746-70d2-9223-3557547e1439","019ce768-b048-7627-b827-888248f65c31","","1227","
                    <div class=""stimulus-container"">
                        <img src=""images/causal_sequence/dog_causal/dog_causal_7.png"" class=""exp-image"">
                        <div class=""question-area"">
                            <p style=""font-size: 20px; font-weight: bold; margin: 0;"">Is there a person in this image?</p>
                        </div>
                    </div>","0","main_causal_task","7","dog_causal","","","",""
"","","","","","html-keyboard-response","30","248670","0.0-30.0","F3540556170C436AA78B862C7D8C714F","019ce76a-6746-70d2-9223-3557547e1439","019ce768-b048-7627-b827-888248f65c31","","null","
                    <div class=""stimulus-container"">
                        <img src=""images/causal_sequence/dog_causal/dog_causal_8.png"" class=""exp-image"">
                        <div class=""question-area""></div> 
                    </div>","null","","","","","","",""
"","","","","","html-button-response","31","249707","0.0-31.0","F3540556170C436AA78B862C7D8C714F","019ce76a-6746-70d2-9223-3557547e1439","019ce768-b048-7627-b827-888248f65c31","","1036","
                    <div class=""stimulus-container"">
                        <img src=""images/causal_sequence/dog_causal/dog_causal_8.png"" class=""exp-image"">
                        <div class=""question-area"">
                            <p style=""font-size: 20px; font-weight: bold; margin: 0;"">Is there a person in this image?</p>
                        </div>
                    </div>","0","main_causal_task","8","dog_causal","","","",""
"","","","","","html-keyboard-response","32","254710","0.0-32.0","F3540556170C436AA78B862C7D8C714F","019ce76a-6746-70d2-9223-3557547e1439","019ce768-b048-7627-b827-888248f65c31","","null","
                    <div class=""stimulus-container"">
                        <img src=""images/causal_sequence/dog_causal/dog_causal_9.png"" class=""exp-image"">
                        <div class=""question-area""></div> 
                    </div>","null","","","","","","",""
"","","","","","html-button-response","33","257713","0.0-33.0","F3540556170C436AA78B862C7D8C714F","019ce76a-6746-70d2-9223-3557547e1439","019ce768-b048-7627-b827-888248f65c31","","null","
                    <div class=""stimulus-container"">
                        <img src=""images/causal_sequence/dog_causal/dog_causal_9.png"" class=""exp-image"">
                        <div class=""question-area"">
                            <p style=""font-size: 20px; font-weight: bold; margin: 0;"">Is there a person in this image?</p>
                        </div>
                    </div>","null","main_causal_task","9","dog_causal","","","",""
"","","","","","html-keyboard-response","34","258716","0.0-34.0","F3540556170C436AA78B862C7D8C714F","019ce76a-6746-70d2-9223-3557547e1439","019ce768-b048-7627-b827-888248f65c31","","null","<div style=""background-color: gray; width: 100vw; height: 100vh;""></div>","null","","","","","","",""
"","","","","","html-keyboard-response","35","263718","0.0-35.0","F3540556170C436AA78B862C7D8C714F","019ce76a-6746-70d2-9223-3557547e1439","019ce768-b048-7627-b827-888248f65c31","","null","
                    <div class=""stimulus-container"">
                        <img src=""images/causal_sequence/museum_causal/museum_causal_1.png"" class=""exp-image"">
                        <div class=""question-area""></div> 
                    </div>","null","","","","","","",""
"","","","","","html-button-response","36","264818","0.0-36.0","F3540556170C436AA78B862C7D8C714F","019ce76a-6746-70d2-9223-3557547e1439","019ce768-b048-7627-b827-888248f65c31","","1098","
                    <div class=""stimulus-container"">
                        <img src=""images/causal_sequence/museum_causal/museum_causal_1.png"" class=""exp-image"">
                        <div class=""question-area"">
                            <p style=""font-size: 20px; font-weight: bold; margin: 0;"">Is there a person in this image?</p>
                        </div>
                    </div>","0","main_causal_task","1","museum_causal","","","",""
"","","","","","html-keyboard-response","37","269821","0.0-37.0","F3540556170C436AA78B862C7D8C714F","019ce76a-6746-70d2-9223-3557547e1439","019ce768-b048-7627-b827-888248f65c31","","null","
                    <div class=""stimulus-container"">
                        <img src=""images/causal_sequence/museum_causal/museum_causal_2.png"" class=""exp-image"">
                        <div class=""question-area""></div> 
                    </div>","null","","","","","","",""
"","","","","","html-button-response","38","271078","0.0-38.0","F3540556170C436AA78B862C7D8C714F","019ce76a-6746-70d2-9223-3557547e1439","019ce768-b048-7627-b827-888248f65c31","","1255","
                    <div class=""stimulus-container"">
                        <img src=""images/causal_sequence/museum_causal/museum_causal_2.png"" class=""exp-image"">
                        <div class=""question-area"">
                            <p style=""font-size: 20px; font-weight: bold; margin: 0;"">Is there a person in this image?</p>
                        </div>
                    </div>","0","main_causal_task","2","museum_causal","","","",""
"","","","","","html-keyboard-response","39","276081","0.0-39.0","F3540556170C436AA78B862C7D8C714F","019ce76a-6746-70d2-9223-3557547e1439","019ce768-b048-7627-b827-888248f65c31","","null","
                    <div class=""stimulus-container"">
                        <img src=""images/causal_sequence/museum_causal/museum_causal_3.png"" class=""exp-image"">
                        <div class=""question-area""></div> 
                    </div>","null","","","","","","",""
"","","","","","html-button-response","40","276638","0.0-40.0","F3540556170C436AA78B862C7D8C714F","019ce76a-6746-70d2-9223-3557547e1439","019ce768-b048-7627-b827-888248f65c31","","556","
                    <div class=""stimulus-container"">
                        <img src=""images/causal_sequence/museum_causal/museum_causal_3.png"" class=""exp-image"">
                        <div class=""question-area"">
                            <p style=""font-size: 20px; font-weight: bold; margin: 0;"">Is there a person in this image?</p>
                        </div>
                    </div>","0","main_causal_task","3","museum_causal","","","",""
"","","","","","html-keyboard-response","41","281641","0.0-41.0","F3540556170C436AA78B862C7D8C714F","019ce76a-6746-70d2-9223-3557547e1439","019ce768-b048-7627-b827-888248f65c31","","null","
                    <div class=""stimulus-container"">
                        <img src=""images/causal_sequence/museum_causal/museum_causal_4.png"" class=""exp-image"">
                        <div class=""question-area""></div> 
                    </div>","null","","","","","","",""
"","","","","","html-button-response","42","283418","0.0-42.0","F3540556170C436AA78B862C7D8C714F","019ce76a-6746-70d2-9223-3557547e1439","019ce768-b048-7627-b827-888248f65c31","","1776","
                    <div class=""stimulus-container"">
                        <img src=""images/causal_sequence/museum_causal/museum_causal_4.png"" class=""exp-image"">
                        <div class=""question-area"">
                            <p style=""font-size: 20px; font-weight: bold; margin: 0;"">Is there a person in this image?</p>
                        </div>
                    </div>","0","main_causal_task","4","museum_causal","","","",""
"","","","","","html-keyboard-response","43","288420","0.0-43.0","F3540556170C436AA78B862C7D8C714F","019ce76a-6746-70d2-9223-3557547e1439","019ce768-b048-7627-b827-888248f65c31","","null","
                    <div class=""stimulus-container"">
                        <img src=""images/causal_sequence/museum_causal/museum_causal_5.png"" class=""exp-image"">
                        <div class=""question-area""></div> 
                    </div>","null","","","","","","",""
"","","","","","html-button-response","44","289248","0.0-44.0","F3540556170C436AA78B862C7D8C714F","019ce76a-6746-70d2-9223-3557547e1439","019ce768-b048-7627-b827-888248f65c31","","827","
                    <div class=""stimulus-container"">
                        <img src=""images/causal_sequence/museum_causal/museum_causal_5.png"" class=""exp-image"">
                        <div class=""question-area"">
                            <p style=""font-size: 20px; font-weight: bold; margin: 0;"">Is there a person in this image?</p>
                        </div>
                    </div>","0","main_causal_task","5","museum_causal","","","",""
"","","","","","html-keyboard-response","45","294250","0.0-45.0","F3540556170C436AA78B862C7D8C714F","019ce76a-6746-70d2-9223-3557547e1439","019ce768-b048-7627-b827-888248f65c31","","null","
                    <div class=""stimulus-container"">
                        <img src=""images/causal_sequence/museum_causal/museum_causal_6.png"" class=""exp-image"">
                        <div class=""question-area""></div> 
                    </div>","null","","","","","","",""
"","","","","","html-button-response","46","295299","0.0-46.0","F3540556170C436AA78B862C7D8C714F","019ce76a-6746-70d2-9223-3557547e1439","019ce768-b048-7627-b827-888248f65c31","","1047","
                    <div class=""stimulus-container"">
                        <img src=""images/causal_sequence/museum_causal/museum_causal_6.png"" class=""exp-image"">
                        <div class=""question-area"">
                            <p style=""font-size: 20px; font-weight: bold; margin: 0;"">Is there a person in this image?</p>
                        </div>
                    </div>","0","main_causal_task","6","museum_causal","","","",""
"","","","","","html-keyboard-response","47","300301","0.0-47.0","F3540556170C436AA78B862C7D8C714F","019ce76a-6746-70d2-9223-3557547e1439","019ce768-b048-7627-b827-888248f65c31","","null","
                    <div class=""stimulus-container"">
                        <img src=""images/causal_sequence/museum_causal/museum_causal_7.png"" class=""exp-image"">
                        <div class=""question-area""></div> 
                    </div>","null","","","","","","",""
"","","","","","html-button-response","48","301009","0.0-48.0","F3540556170C436AA78B862C7D8C714F","019ce76a-6746-70d2-9223-3557547e1439","019ce768-b048-7627-b827-888248f65c31","","706","
                    <div class=""stimulus-container"">
                        <img src=""images/causal_sequence/museum_causal/museum_causal_7.png"" class=""exp-image"">
                        <div class=""question-area"">
                            <p style=""font-size: 20px; font-weight: bold; margin: 0;"">Is there a person in this image?</p>
                        </div>
                    </div>","0","main_causal_task","7","museum_causal","","","",""
"","","","","","html-keyboard-response","49","306011","0.0-49.0","F3540556170C436AA78B862C7D8C714F","019ce76a-6746-70d2-9223-3557547e1439","019ce768-b048-7627-b827-888248f65c31","","null","
                    <div class=""stimulus-container"">
                        <img src=""images/causal_sequence/museum_causal/museum_causal_8.png"" class=""exp-image"">
                        <div class=""question-area""></div> 
                    </div>","null","","","","","","",""
"","","","","","html-button-response","50","306529","0.0-50.0","F3540556170C436AA78B862C7D8C714F","019ce76a-6746-70d2-9223-3557547e1439","019ce768-b048-7627-b827-888248f65c31","","517","
                    <div class=""stimulus-container"">
                        <img src=""images/causal_sequence/museum_causal/museum_causal_8.png"" class=""exp-image"">
                        <div class=""question-area"">
                            <p style=""font-size: 20px; font-weight: bold; margin: 0;"">Is there a person in this image?</p>
                        </div>
                    </div>","0","main_causal_task","8","museum_causal","","","",""
"","","","","","html-keyboard-response","51","311530","0.0-51.0","F3540556170C436AA78B862C7D8C714F","019ce76a-6746-70d2-9223-3557547e1439","019ce768-b048-7627-b827-888248f65c31","","null","
                    <div class=""stimulus-container"">
                        <img src=""images/causal_sequence/museum_causal/museum_causal_9.png"" class=""exp-image"">
                        <div class=""question-area""></div> 
                    </div>","null","","","","","","",""
"","","","","","html-button-response","52","312369","0.0-52.0","F3540556170C436AA78B862C7D8C714F","019ce76a-6746-70d2-9223-3557547e1439","019ce768-b048-7627-b827-888248f65c31","","838","
                    <div class=""stimulus-container"">
                        <img src=""images/causal_sequence/museum_causal/museum_causal_9.png"" class=""exp-image"">
                        <div class=""question-area"">
                            <p style=""font-size: 20px; font-weight: bold; margin: 0;"">Is there a person in this image?</p>
                        </div>
                    </div>","1","main_causal_task","9","museum_causal","","","",""
"","","","","","html-keyboard-response","53","313371","0.0-53.0","F3540556170C436AA78B862C7D8C714F","019ce76a-6746-70d2-9223-3557547e1439","019ce768-b048-7627-b827-888248f65c31","","null","<div style=""background-color: gray; width: 100vw; height: 100vh;""></div>","null","","","","","","",""
"","","","","","html-keyboard-response","54","318374","0.0-54.0","F3540556170C436AA78B862C7D8C714F","019ce76a-6746-70d2-9223-3557547e1439","019ce768-b048-7627-b827-888248f65c31","","null","
                    <div class=""stimulus-container"">
                        <img src=""images/causal_sequence/saving_a_cat_causal/saving_a_cat_causal_1.png"" class=""exp-image"">
                        <div class=""question-area""></div> 
                    </div>","null","","","","","","",""
"","","","","","html-button-response","55","319079","0.0-55.0","F3540556170C436AA78B862C7D8C714F","019ce76a-6746-70d2-9223-3557547e1439","019ce768-b048-7627-b827-888248f65c31","","704","
                    <div class=""stimulus-container"">
                        <img src=""images/causal_sequence/saving_a_cat_causal/saving_a_cat_causal_1.png"" class=""exp-image"">
                        <div class=""question-area"">
                            <p style=""font-size: 20px; font-weight: bold; margin: 0;"">Is there a person in this image?</p>
                        </div>
                    </div>","0","main_causal_task","1","saving_a_cat_causal","","","",""
"","","","","","html-keyboard-response","56","324081","0.0-56.0","F3540556170C436AA78B862C7D8C714F","019ce76a-6746-70d2-9223-3557547e1439","019ce768-b048-7627-b827-888248f65c31","","null","
                    <div class=""stimulus-container"">
                        <img src=""images/causal_sequence/saving_a_cat_causal/saving_a_cat_causal_2.png"" class=""exp-image"">
                        <div class=""question-area""></div> 
                    </div>","null","","","","","","",""
"","","","","","html-button-response","57","324900","0.0-57.0","F3540556170C436AA78B862C7D8C714F","019ce76a-6746-70d2-9223-3557547e1439","019ce768-b048-7627-b827-888248f65c31","","817","
                    <div class=""stimulus-container"">
                        <img src=""images/causal_sequence/saving_a_cat_causal/saving_a_cat_causal_2.png"" class=""exp-image"">
                        <div class=""question-area"">
                            <p style=""font-size: 20px; font-weight: bold; margin: 0;"">Is there a person in this image?</p>
                        </div>
                    </div>","1","main_causal_task","2","saving_a_cat_causal","","","",""
"","","","","","html-keyboard-response","58","329903","0.0-58.0","F3540556170C436AA78B862C7D8C714F","019ce76a-6746-70d2-9223-3557547e1439","019ce768-b048-7627-b827-888248f65c31","","null","
                    <div class=""stimulus-container"">
                        <img src=""images/causal_sequence/saving_a_cat_causal/saving_a_cat_causal_3.png"" class=""exp-image"">
                        <div class=""question-area""></div> 
                    </div>","null","","","","","","",""
"","","","","","html-button-response","59","330569","0.0-59.0","F3540556170C436AA78B862C7D8C714F","019ce76a-6746-70d2-9223-3557547e1439","019ce768-b048-7627-b827-888248f65c31","","665","
                    <div class=""stimulus-container"">
                        <img src=""images/causal_sequence/saving_a_cat_causal/saving_a_cat_causal_3.png"" class=""exp-image"">
                        <div class=""question-area"">
                            <p style=""font-size: 20px; font-weight: bold; margin: 0;"">Is there a person in this image?</p>
                        </div>
                    </div>","1","main_causal_task","3","saving_a_cat_causal","","","",""
"","","","","","html-keyboard-response","60","335572","0.0-60.0","F3540556170C436AA78B862C7D8C714F","019ce76a-6746-70d2-9223-3557547e1439","019ce768-b048-7627-b827-888248f65c31","","null","
                    <div class=""stimulus-container"">
                        <img src=""images/causal_sequence/saving_a_cat_causal/saving_a_cat_causal_4.png"" class=""exp-image"">
                        <div class=""question-area""></div> 
                    </div>","null","","","","","","",""
"","","","","","html-button-response","61","336459","0.0-61.0","F3540556170C436AA78B862C7D8C714F","019ce76a-6746-70d2-9223-3557547e1439","019ce768-b048-7627-b827-888248f65c31","","886","
                    <div class=""stimulus-container"">
                        <img src=""images/causal_sequence/saving_a_cat_causal/saving_a_cat_causal_4.png"" class=""exp-image"">
                        <div class=""question-area"">
                            <p style=""font-size: 20px; font-weight: bold; margin: 0;"">Is there a person in this image?</p>
                        </div>
                    </div>","0","main_causal_task","4","saving_a_cat_causal","","","",""
"","","","","","html-keyboard-response","62","341462","0.0-62.0","F3540556170C436AA78B862C7D8C714F","019ce76a-6746-70d2-9223-3557547e1439","019ce768-b048-7627-b827-888248f65c31","","null","
                    <div class=""stimulus-container"">
                        <img src=""images/causal_sequence/saving_a_cat_causal/saving_a_cat_causal_5.png"" class=""exp-image"">
                        <div class=""question-area""></div> 
                    </div>","null","","","","","","",""
"","","","","","html-button-response","63","342030","0.0-63.0","F3540556170C436AA78B862C7D8C714F","019ce76a-6746-70d2-9223-3557547e1439","019ce768-b048-7627-b827-888248f65c31","","567","
                    <div class=""stimulus-container"">
                        <img src=""images/causal_sequence/saving_a_cat_causal/saving_a_cat_causal_5.png"" class=""exp-image"">
                        <div class=""question-area"">
                            <p style=""font-size: 20px; font-weight: bold; margin: 0;"">Is there a person in this image?</p>
                        </div>
                    </div>","0","main_causal_task","5","saving_a_cat_causal","","","",""
"","","","","","html-keyboard-response","64","347033","0.0-64.0","F3540556170C436AA78B862C7D8C714F","019ce76a-6746-70d2-9223-3557547e1439","019ce768-b048-7627-b827-888248f65c31","","null","
                    <div class=""stimulus-container"">
                        <img src=""images/causal_sequence/saving_a_cat_causal/saving_a_cat_causal_6.png"" class=""exp-image"">
                        <div class=""question-area""></div> 
                    </div>","null","","","","","","",""
"","","","","","html-button-response","65","347830","0.0-65.0","F3540556170C436AA78B862C7D8C714F","019ce76a-6746-70d2-9223-3557547e1439","019ce768-b048-7627-b827-888248f65c31","","795","
                    <div class=""stimulus-container"">
                        <img src=""images/causal_sequence/saving_a_cat_causal/saving_a_cat_causal_6.png"" class=""exp-image"">
                        <div class=""question-area"">
                            <p style=""font-size: 20px; font-weight: bold; margin: 0;"">Is there a person in this image?</p>
                        </div>
                    </div>","0","main_causal_task","6","saving_a_cat_causal","","","",""
"","","","","","html-keyboard-response","66","352833","0.0-66.0","F3540556170C436AA78B862C7D8C714F","019ce76a-6746-70d2-9223-3557547e1439","019ce768-b048-7627-b827-888248f65c31","","null","
                    <div class=""stimulus-container"">
                        <img src=""images/causal_sequence/saving_a_cat_causal/saving_a_cat_causal_7.png"" class=""exp-image"">
                        <div class=""question-area""></div> 
                    </div>","null","","","","","","",""
"","","","","","html-button-response","67","353370","0.0-67.0","F3540556170C436AA78B862C7D8C714F","019ce76a-6746-70d2-9223-3557547e1439","019ce768-b048-7627-b827-888248f65c31","","535","
                    <div class=""stimulus-container"">
                        <img src=""images/causal_sequence/saving_a_cat_causal/saving_a_cat_causal_7.png"" class=""exp-image"">
                        <div class=""question-area"">
                            <p style=""font-size: 20px; font-weight: bold; margin: 0;"">Is there a person in this image?</p>
                        </div>
                    </div>","0","main_causal_task","7","saving_a_cat_causal","","","",""
"","","","","","html-keyboard-response","68","358373","0.0-68.0","F3540556170C436AA78B862C7D8C714F","019ce76a-6746-70d2-9223-3557547e1439","019ce768-b048-7627-b827-888248f65c31","","null","
                    <div class=""stimulus-container"">
                        <img src=""images/causal_sequence/saving_a_cat_causal/saving_a_cat_causal_8.png"" class=""exp-image"">
                        <div class=""question-area""></div> 
                    </div>","null","","","","","","",""
"","","","","","html-button-response","69","358841","0.0-69.0","F3540556170C436AA78B862C7D8C714F","019ce76a-6746-70d2-9223-3557547e1439","019ce768-b048-7627-b827-888248f65c31","","466","
                    <div class=""stimulus-container"">
                        <img src=""images/causal_sequence/saving_a_cat_causal/saving_a_cat_causal_8.png"" class=""exp-image"">
                        <div class=""question-area"">
                            <p style=""font-size: 20px; font-weight: bold; margin: 0;"">Is there a person in this image?</p>
                        </div>
                    </div>","0","main_causal_task","8","saving_a_cat_causal","","","",""
"","","","","","html-keyboard-response","70","363843","0.0-70.0","F3540556170C436AA78B862C7D8C714F","019ce76a-6746-70d2-9223-3557547e1439","019ce768-b048-7627-b827-888248f65c31","","null","
                    <div class=""stimulus-container"">
                        <img src=""images/causal_sequence/saving_a_cat_causal/saving_a_cat_causal_9.png"" class=""exp-image"">
                        <div class=""question-area""></div> 
                    </div>","null","","","","","","",""
"","","","","","html-button-response","71","364331","0.0-71.0","F3540556170C436AA78B862C7D8C714F","019ce76a-6746-70d2-9223-3557547e1439","019ce768-b048-7627-b827-888248f65c31","","486","
                    <div class=""stimulus-container"">
                        <img src=""images/causal_sequence/saving_a_cat_causal/saving_a_cat_causal_9.png"" class=""exp-image"">
                        <div class=""question-area"">
                            <p style=""font-size: 20px; font-weight: bold; margin: 0;"">Is there a person in this image?</p>
                        </div>
                    </div>","0","main_causal_task","9","saving_a_cat_causal","","","",""
"","","","","","html-keyboard-response","72","365333","0.0-72.0","F3540556170C436AA78B862C7D8C714F","019ce76a-6746-70d2-9223-3557547e1439","019ce768-b048-7627-b827-888248f65c31","","null","<div style=""background-color: gray; width: 100vw; height: 100vh;""></div>","null","","","","","","",""
"","","","","","html-keyboard-response","73","370336","0.0-73.0","F3540556170C436AA78B862C7D8C714F","019ce76a-6746-70d2-9223-3557547e1439","019ce768-b048-7627-b827-888248f65c31","","null","
                    <div class=""stimulus-container"">
                        <img src=""images/causal_sequence/the_performance_causal/the_performance_causal_1.png"" class=""exp-image"">
                        <div class=""question-area""></div> 
                    </div>","null","","","","","","",""
"","","","","","html-button-response","74","370701","0.0-74.0","F3540556170C436AA78B862C7D8C714F","019ce76a-6746-70d2-9223-3557547e1439","019ce768-b048-7627-b827-888248f65c31","","363","
                    <div class=""stimulus-container"">
                        <img src=""images/causal_sequence/the_performance_causal/the_performance_causal_1.png"" class=""exp-image"">
                        <div class=""question-area"">
                            <p style=""font-size: 20px; font-weight: bold; margin: 0;"">Is there a person in this image?</p>
                        </div>
                    </div>","0","main_causal_task","1","the_performance_causal","","","",""
"","","","","","html-keyboard-response","75","375703","0.0-75.0","F3540556170C436AA78B862C7D8C714F","019ce76a-6746-70d2-9223-3557547e1439","019ce768-b048-7627-b827-888248f65c31","","null","
                    <div class=""stimulus-container"">
                        <img src=""images/causal_sequence/the_performance_causal/the_performance_causal_2.png"" class=""exp-image"">
                        <div class=""question-area""></div> 
                    </div>","null","","","","","","",""
"","","","","","html-button-response","76","376041","0.0-76.0","F3540556170C436AA78B862C7D8C714F","019ce76a-6746-70d2-9223-3557547e1439","019ce768-b048-7627-b827-888248f65c31","","336","
                    <div class=""stimulus-container"">
                        <img src=""images/causal_sequence/the_performance_causal/the_performance_causal_2.png"" class=""exp-image"">
                        <div class=""question-area"">
                            <p style=""font-size: 20px; font-weight: bold; margin: 0;"">Is there a person in this image?</p>
                        </div>
                    </div>","0","main_causal_task","2","the_performance_causal","","","",""
"","","","","","html-keyboard-response","77","381043","0.0-77.0","F3540556170C436AA78B862C7D8C714F","019ce76a-6746-70d2-9223-3557547e1439","019ce768-b048-7627-b827-888248f65c31","","null","
                    <div class=""stimulus-container"">
                        <img src=""images/causal_sequence/the_performance_causal/the_performance_causal_3.png"" class=""exp-image"">
                        <div class=""question-area""></div> 
                    </div>","null","","","","","","",""
"","","","","","html-button-response","78","381521","0.0-78.0","F3540556170C436AA78B862C7D8C714F","019ce76a-6746-70d2-9223-3557547e1439","019ce768-b048-7627-b827-888248f65c31","","476","
                    <div class=""stimulus-container"">
                        <img src=""images/causal_sequence/the_performance_causal/the_performance_causal_3.png"" class=""exp-image"">
                        <div class=""question-area"">
                            <p style=""font-size: 20px; font-weight: bold; margin: 0;"">Is there a person in this image?</p>
                        </div>
                    </div>","0","main_causal_task","3","the_performance_causal","","","",""
"","","","","","html-keyboard-response","79","386523","0.0-79.0","F3540556170C436AA78B862C7D8C714F","019ce76a-6746-70d2-9223-3557547e1439","019ce768-b048-7627-b827-888248f65c31","","null","
                    <div class=""stimulus-container"">
                        <img src=""images/causal_sequence/the_performance_causal/the_performance_causal_4.png"" class=""exp-image"">
                        <div class=""question-area""></div> 
                    </div>","null","","","","","","",""
"","","","","","html-button-response","80","387351","0.0-80.0","F3540556170C436AA78B862C7D8C714F","019ce76a-6746-70d2-9223-3557547e1439","019ce768-b048-7627-b827-888248f65c31","","826","
                    <div class=""stimulus-container"">
                        <img src=""images/causal_sequence/the_performance_causal/the_performance_causal_4.png"" class=""exp-image"">
                        <div class=""question-area"">
                            <p style=""font-size: 20px; font-weight: bold; margin: 0;"">Is there a person in this image?</p>
                        </div>
                    </div>","0","main_causal_task","4","the_performance_causal","","","",""
"","","","","","html-keyboard-response","81","392354","0.0-81.0","F3540556170C436AA78B862C7D8C714F","019ce76a-6746-70d2-9223-3557547e1439","019ce768-b048-7627-b827-888248f65c31","","null","
                    <div class=""stimulus-container"">
                        <img src=""images/causal_sequence/the_performance_causal/the_performance_causal_5.png"" class=""exp-image"">
                        <div class=""question-area""></div> 
                    </div>","null","","","","","","",""
"","","","","","html-button-response","82","393161","0.0-82.0","F3540556170C436AA78B862C7D8C714F","019ce76a-6746-70d2-9223-3557547e1439","019ce768-b048-7627-b827-888248f65c31","","806","
                    <div class=""stimulus-container"">
                        <img src=""images/causal_sequence/the_performance_causal/the_performance_causal_5.png"" class=""exp-image"">
                        <div class=""question-area"">
                            <p style=""font-size: 20px; font-weight: bold; margin: 0;"">Is there a person in this image?</p>
                        </div>
                    </div>","0","main_causal_task","5","the_performance_causal","","","",""
"","","","","","html-keyboard-response","83","398163","0.0-83.0","F3540556170C436AA78B862C7D8C714F","019ce76a-6746-70d2-9223-3557547e1439","019ce768-b048-7627-b827-888248f65c31","","null","
                    <div class=""stimulus-container"">
                        <img src=""images/causal_sequence/the_performance_causal/the_performance_causal_6.png"" class=""exp-image"">
                        <div class=""question-area""></div> 
                    </div>","null","","","","","","",""
"","","","","","html-button-response","84","398762","0.0-84.0","F3540556170C436AA78B862C7D8C714F","019ce76a-6746-70d2-9223-3557547e1439","019ce768-b048-7627-b827-888248f65c31","","597","
                    <div class=""stimulus-container"">
                        <img src=""images/causal_sequence/the_performance_causal/the_performance_causal_6.png"" class=""exp-image"">
                        <div class=""question-area"">
                            <p style=""font-size: 20px; font-weight: bold; margin: 0;"">Is there a person in this image?</p>
                        </div>
                    </div>","0","main_causal_task","6","the_performance_causal","","","",""
"","","","","","html-keyboard-response","85","403764","0.0-85.0","F3540556170C436AA78B862C7D8C714F","019ce76a-6746-70d2-9223-3557547e1439","019ce768-b048-7627-b827-888248f65c31","","null","
                    <div class=""stimulus-container"">
                        <img src=""images/causal_sequence/the_performance_causal/the_performance_causal_7.png"" class=""exp-image"">
                        <div class=""question-area""></div> 
                    </div>","null","","","","","","",""
"","","","","","html-button-response","86","404241","0.0-86.0","F3540556170C436AA78B862C7D8C714F","019ce76a-6746-70d2-9223-3557547e1439","019ce768-b048-7627-b827-888248f65c31","","476","
                    <div class=""stimulus-container"">
                        <img src=""images/causal_sequence/the_performance_causal/the_performance_causal_7.png"" class=""exp-image"">
                        <div class=""question-area"">
                            <p style=""font-size: 20px; font-weight: bold; margin: 0;"">Is there a person in this image?</p>
                        </div>
                    </div>","0","main_causal_task","7","the_performance_causal","","","",""
"","","","","","html-keyboard-response","87","409243","0.0-87.0","F3540556170C436AA78B862C7D8C714F","019ce76a-6746-70d2-9223-3557547e1439","019ce768-b048-7627-b827-888248f65c31","","null","
                    <div class=""stimulus-container"">
                        <img src=""images/causal_sequence/the_performance_causal/the_performance_causal_8.png"" class=""exp-image"">
                        <div class=""question-area""></div> 
                    </div>","null","","","","","","",""
"","","","","","html-button-response","88","409762","0.0-88.0","F3540556170C436AA78B862C7D8C714F","019ce76a-6746-70d2-9223-3557547e1439","019ce768-b048-7627-b827-888248f65c31","","517","
                    <div class=""stimulus-container"">
                        <img src=""images/causal_sequence/the_performance_causal/the_performance_causal_8.png"" class=""exp-image"">
                        <div class=""question-area"">
                            <p style=""font-size: 20px; font-weight: bold; margin: 0;"">Is there a person in this image?</p>
                        </div>
                    </div>","0","main_causal_task","8","the_performance_causal","","","",""
"","","","","","html-keyboard-response","89","414764","0.0-89.0","F3540556170C436AA78B862C7D8C714F","019ce76a-6746-70d2-9223-3557547e1439","019ce768-b048-7627-b827-888248f65c31","","null","
                    <div class=""stimulus-container"">
                        <img src=""images/causal_sequence/the_performance_causal/the_performance_causal_9.png"" class=""exp-image"">
                        <div class=""question-area""></div> 
                    </div>","null","","","","","","",""
"","","","","","html-button-response","90","415262","0.0-90.0","F3540556170C436AA78B862C7D8C714F","019ce76a-6746-70d2-9223-3557547e1439","019ce768-b048-7627-b827-888248f65c31","","496","
                    <div class=""stimulus-container"">
                        <img src=""images/causal_sequence/the_performance_causal/the_performance_causal_9.png"" class=""exp-image"">
                        <div class=""question-area"">
                            <p style=""font-size: 20px; font-weight: bold; margin: 0;"">Is there a person in this image?</p>
                        </div>
                    </div>","0","main_causal_task","9","the_performance_causal","","","",""
"","","","","","html-keyboard-response","91","416263","0.0-91.0","F3540556170C436AA78B862C7D8C714F","019ce76a-6746-70d2-9223-3557547e1439","019ce768-b048-7627-b827-888248f65c31","","null","<div style=""background-color: gray; width: 100vw; height: 100vh;""></div>","null","","","","","","",""
"","","","","","html-keyboard-response","92","421265","0.0-92.0","F3540556170C436AA78B862C7D8C714F","019ce76a-6746-70d2-9223-3557547e1439","019ce768-b048-7627-b827-888248f65c31","","null","
                    <div class=""stimulus-container"">
                        <img src=""images/causal_sequence/package_causal/package_causal_1.png"" class=""exp-image"">
                        <div class=""question-area""></div> 
                    </div>","null","","","","","","",""
"","","","","","html-button-response","93","421872","0.0-93.0","F3540556170C436AA78B862C7D8C714F","019ce76a-6746-70d2-9223-3557547e1439","019ce768-b048-7627-b827-888248f65c31","","606","
                    <div class=""stimulus-container"">
                        <img src=""images/causal_sequence/package_causal/package_causal_1.png"" class=""exp-image"">
                        <div class=""question-area"">
                            <p style=""font-size: 20px; font-weight: bold; margin: 0;"">Is there a person in this image?</p>
                        </div>
                    </div>","0","main_causal_task","1","package_causal","","","",""
"","","","","","html-keyboard-response","94","426874","0.0-94.0","F3540556170C436AA78B862C7D8C714F","019ce76a-6746-70d2-9223-3557547e1439","019ce768-b048-7627-b827-888248f65c31","","null","
                    <div class=""stimulus-container"">
                        <img src=""images/causal_sequence/package_causal/package_causal_2.png"" class=""exp-image"">
                        <div class=""question-area""></div> 
                    </div>","null","","","","","","",""
"","","","","","html-button-response","95","427302","0.0-95.0","F3540556170C436AA78B862C7D8C714F","019ce76a-6746-70d2-9223-3557547e1439","019ce768-b048-7627-b827-888248f65c31","","427","
                    <div class=""stimulus-container"">
                        <img src=""images/causal_sequence/package_causal/package_causal_2.png"" class=""exp-image"">
                        <div class=""question-area"">
                            <p style=""font-size: 20px; font-weight: bold; margin: 0;"">Is there a person in this image?</p>
                        </div>
                    </div>","0","main_causal_task","2","package_causal","","","",""
"","","","","","html-keyboard-response","96","432304","0.0-96.0","F3540556170C436AA78B862C7D8C714F","019ce76a-6746-70d2-9223-3557547e1439","019ce768-b048-7627-b827-888248f65c31","","null","
                    <div class=""stimulus-container"">
                        <img src=""images/causal_sequence/package_causal/package_causal_3.png"" class=""exp-image"">
                        <div class=""question-area""></div> 
                    </div>","null","","","","","","",""
"","","","","","html-button-response","97","432662","0.0-97.0","F3540556170C436AA78B862C7D8C714F","019ce76a-6746-70d2-9223-3557547e1439","019ce768-b048-7627-b827-888248f65c31","","357","
                    <div class=""stimulus-container"">
                        <img src=""images/causal_sequence/package_causal/package_causal_3.png"" class=""exp-image"">
                        <div class=""question-area"">
                            <p style=""font-size: 20px; font-weight: bold; margin: 0;"">Is there a person in this image?</p>
                        </div>
                    </div>","0","main_causal_task","3","package_causal","","","",""
"","","","","","html-keyboard-response","98","437665","0.0-98.0","F3540556170C436AA78B862C7D8C714F","019ce76a-6746-70d2-9223-3557547e1439","019ce768-b048-7627-b827-888248f65c31","","null","
                    <div class=""stimulus-container"">
                        <img src=""images/causal_sequence/package_causal/package_causal_4.png"" class=""exp-image"">
                        <div class=""question-area""></div> 
                    </div>","null","","","","","","",""
"","","","","","html-button-response","99","438072","0.0-99.0","F3540556170C436AA78B862C7D8C714F","019ce76a-6746-70d2-9223-3557547e1439","019ce768-b048-7627-b827-888248f65c31","","406","
                    <div class=""stimulus-container"">
                        <img src=""images/causal_sequence/package_causal/package_causal_4.png"" class=""exp-image"">
                        <div class=""question-area"">
                            <p style=""font-size: 20px; font-weight: bold; margin: 0;"">Is there a person in this image?</p>
                        </div>
                    </div>","1","main_causal_task","4","package_causal","","","",""
"","","","","","html-keyboard-response","100","443074","0.0-100.0","F3540556170C436AA78B862C7D8C714F","019ce76a-6746-70d2-9223-3557547e1439","019ce768-b048-7627-b827-888248f65c31","","null","
                    <div class=""stimulus-container"">
                        <img src=""images/causal_sequence/package_causal/package_causal_5.png"" class=""exp-image"">
                        <div class=""question-area""></div> 
                    </div>","null","","","","","","",""
"","","","","","html-button-response","101","443692","0.0-101.0","F3540556170C436AA78B862C7D8C714F","019ce76a-6746-70d2-9223-3557547e1439","019ce768-b048-7627-b827-888248f65c31","","617","
                    <div class=""stimulus-container"">
                        <img src=""images/causal_sequence/package_causal/package_causal_5.png"" class=""exp-image"">
                        <div class=""question-area"">
                            <p style=""font-size: 20px; font-weight: bold; margin: 0;"">Is there a person in this image?</p>
                        </div>
                    </div>","0","main_causal_task","5","package_causal","","","",""
"","","","","","html-keyboard-response","102","448694","0.0-102.0","F3540556170C436AA78B862C7D8C714F","019ce76a-6746-70d2-9223-3557547e1439","019ce768-b048-7627-b827-888248f65c31","","null","
                    <div class=""stimulus-container"">
                        <img src=""images/causal_sequence/package_causal/package_causal_6.png"" class=""exp-image"">
                        <div class=""question-area""></div> 
                    </div>","null","","","","","","",""
"","","","","","html-button-response","103","449353","0.0-103.0","F3540556170C436AA78B862C7D8C714F","019ce76a-6746-70d2-9223-3557547e1439","019ce768-b048-7627-b827-888248f65c31","","657","
                    <div class=""stimulus-container"">
                        <img src=""images/causal_sequence/package_causal/package_causal_6.png"" class=""exp-image"">
                        <div class=""question-area"">
                            <p style=""font-size: 20px; font-weight: bold; margin: 0;"">Is there a person in this image?</p>
                        </div>
                    </div>","0","main_causal_task","6","package_causal","","","",""
"","","","","","html-keyboard-response","104","454356","0.0-104.0","F3540556170C436AA78B862C7D8C714F","019ce76a-6746-70d2-9223-3557547e1439","019ce768-b048-7627-b827-888248f65c31","","null","
                    <div class=""stimulus-container"">
                        <img src=""images/causal_sequence/package_causal/package_causal_7.png"" class=""exp-image"">
                        <div class=""question-area""></div> 
                    </div>","null","","","","","","",""
"","","","","","html-button-response","105","454973","0.0-105.0","F3540556170C436AA78B862C7D8C714F","019ce76a-6746-70d2-9223-3557547e1439","019ce768-b048-7627-b827-888248f65c31","","616","
                    <div class=""stimulus-container"">
                        <img src=""images/causal_sequence/package_causal/package_causal_7.png"" class=""exp-image"">
                        <div class=""question-area"">
                            <p style=""font-size: 20px; font-weight: bold; margin: 0;"">Is there a person in this image?</p>
                        </div>
                    </div>","0","main_causal_task","7","package_causal","","","",""
"","","","","","html-keyboard-response","106","459975","0.0-106.0","F3540556170C436AA78B862C7D8C714F","019ce76a-6746-70d2-9223-3557547e1439","019ce768-b048-7627-b827-888248f65c31","","null","
                    <div class=""stimulus-container"">
                        <img src=""images/causal_sequence/package_causal/package_causal_8.png"" class=""exp-image"">
                        <div class=""question-area""></div> 
                    </div>","null","","","","","","",""
"","","","","","html-button-response","107","460413","0.0-107.0","F3540556170C436AA78B862C7D8C714F","019ce76a-6746-70d2-9223-3557547e1439","019ce768-b048-7627-b827-888248f65c31","","436","
                    <div class=""stimulus-container"">
                        <img src=""images/causal_sequence/package_causal/package_causal_8.png"" class=""exp-image"">
                        <div class=""question-area"">
                            <p style=""font-size: 20px; font-weight: bold; margin: 0;"">Is there a person in this image?</p>
                        </div>
                    </div>","0","main_causal_task","8","package_causal","","","",""
"","","","","","html-keyboard-response","108","465415","0.0-108.0","F3540556170C436AA78B862C7D8C714F","019ce76a-6746-70d2-9223-3557547e1439","019ce768-b048-7627-b827-888248f65c31","","null","
                    <div class=""stimulus-container"">
                        <img src=""images/causal_sequence/package_causal/package_causal_9.png"" class=""exp-image"">
                        <div class=""question-area""></div> 
                    </div>","null","","","","","","",""
"","","","","","html-button-response","109","465953","0.0-109.0","F3540556170C436AA78B862C7D8C714F","019ce76a-6746-70d2-9223-3557547e1439","019ce768-b048-7627-b827-888248f65c31","","537","
                    <div class=""stimulus-container"">
                        <img src=""images/causal_sequence/package_causal/package_causal_9.png"" class=""exp-image"">
                        <div class=""question-area"">
                            <p style=""font-size: 20px; font-weight: bold; margin: 0;"">Is there a person in this image?</p>
                        </div>
                    </div>","0","main_causal_task","9","package_causal","","","",""
"","","","","","html-keyboard-response","110","466955","0.0-110.0","F3540556170C436AA78B862C7D8C714F","019ce76a-6746-70d2-9223-3557547e1439","019ce768-b048-7627-b827-888248f65c31","","null","<div style=""background-color: gray; width: 100vw; height: 100vh;""></div>","null","","","","","","",""
"","","","","","html-keyboard-response","111","471957","0.0-111.0","F3540556170C436AA78B862C7D8C714F","019ce76a-6746-70d2-9223-3557547e1439","019ce768-b048-7627-b827-888248f65c31","","null","
                    <div class=""stimulus-container"">
                        <img src=""images/causal_sequence/coin_causal/coin_causal_1.png"" class=""exp-image"">
                        <div class=""question-area""></div> 
                    </div>","null","","","","","","",""
"","","","","","html-button-response","112","472633","0.0-112.0","F3540556170C436AA78B862C7D8C714F","019ce76a-6746-70d2-9223-3557547e1439","019ce768-b048-7627-b827-888248f65c31","","675","
                    <div class=""stimulus-container"">
                        <img src=""images/causal_sequence/coin_causal/coin_causal_1.png"" class=""exp-image"">
                        <div class=""question-area"">
                            <p style=""font-size: 20px; font-weight: bold; margin: 0;"">Is there a person in this image?</p>
                        </div>
                    </div>","0","main_causal_task","1","coin_causal","","","",""
"","","","","","html-keyboard-response","113","477636","0.0-113.0","F3540556170C436AA78B862C7D8C714F","019ce76a-6746-70d2-9223-3557547e1439","019ce768-b048-7627-b827-888248f65c31","","null","
                    <div class=""stimulus-container"">
                        <img src=""images/causal_sequence/coin_causal/coin_causal_2.png"" class=""exp-image"">
                        <div class=""question-area""></div> 
                    </div>","null","","","","","","",""
"","","","","","html-button-response","114","478163","0.0-114.0","F3540556170C436AA78B862C7D8C714F","019ce76a-6746-70d2-9223-3557547e1439","019ce768-b048-7627-b827-888248f65c31","","526","
                    <div class=""stimulus-container"">
                        <img src=""images/causal_sequence/coin_causal/coin_causal_2.png"" class=""exp-image"">
                        <div class=""question-area"">
                            <p style=""font-size: 20px; font-weight: bold; margin: 0;"">Is there a person in this image?</p>
                        </div>
                    </div>","0","main_causal_task","2","coin_causal","","","",""
"","","","","","html-keyboard-response","115","483166","0.0-115.0","F3540556170C436AA78B862C7D8C714F","019ce76a-6746-70d2-9223-3557547e1439","019ce768-b048-7627-b827-888248f65c31","","null","
                    <div class=""stimulus-container"">
                        <img src=""images/causal_sequence/coin_causal/coin_causal_3.png"" class=""exp-image"">
                        <div class=""question-area""></div> 
                    </div>","null","","","","","","",""
"","","","","","html-button-response","116","483813","0.0-116.0","F3540556170C436AA78B862C7D8C714F","019ce76a-6746-70d2-9223-3557547e1439","019ce768-b048-7627-b827-888248f65c31","","646","
                    <div class=""stimulus-container"">
                        <img src=""images/causal_sequence/coin_causal/coin_causal_3.png"" class=""exp-image"">
                        <div class=""question-area"">
                            <p style=""font-size: 20px; font-weight: bold; margin: 0;"">Is there a person in this image?</p>
                        </div>
                    </div>","0","main_causal_task","3","coin_causal","","","",""
"","","","","","html-keyboard-response","117","488816","0.0-117.0","F3540556170C436AA78B862C7D8C714F","019ce76a-6746-70d2-9223-3557547e1439","019ce768-b048-7627-b827-888248f65c31","","null","
                    <div class=""stimulus-container"">
                        <img src=""images/causal_sequence/coin_causal/coin_causal_4.png"" class=""exp-image"">
                        <div class=""question-area""></div> 
                    </div>","null","","","","","","",""
"","","","","","html-button-response","118","489204","0.0-118.0","F3540556170C436AA78B862C7D8C714F","019ce76a-6746-70d2-9223-3557547e1439","019ce768-b048-7627-b827-888248f65c31","","387","
                    <div class=""stimulus-container"">
                        <img src=""images/causal_sequence/coin_causal/coin_causal_4.png"" class=""exp-image"">
                        <div class=""question-area"">
                            <p style=""font-size: 20px; font-weight: bold; margin: 0;"">Is there a person in this image?</p>
                        </div>
                    </div>","0","main_causal_task","4","coin_causal","","","",""
"","","","","","html-keyboard-response","119","494207","0.0-119.0","F3540556170C436AA78B862C7D8C714F","019ce76a-6746-70d2-9223-3557547e1439","019ce768-b048-7627-b827-888248f65c31","","null","
                    <div class=""stimulus-container"">
                        <img src=""images/causal_sequence/coin_causal/coin_causal_5.png"" class=""exp-image"">
                        <div class=""question-area""></div> 
                    </div>","null","","","","","","",""
"","","","","","html-button-response","120","494814","0.0-120.0","F3540556170C436AA78B862C7D8C714F","019ce76a-6746-70d2-9223-3557547e1439","019ce768-b048-7627-b827-888248f65c31","","606","
                    <div class=""stimulus-container"">
                        <img src=""images/causal_sequence/coin_causal/coin_causal_5.png"" class=""exp-image"">
                        <div class=""question-area"">
                            <p style=""font-size: 20px; font-weight: bold; margin: 0;"">Is there a person in this image?</p>
                        </div>
                    </div>","0","main_causal_task","5","coin_causal","","","",""
"","","","","","html-keyboard-response","121","499815","0.0-121.0","F3540556170C436AA78B862C7D8C714F","019ce76a-6746-70d2-9223-3557547e1439","019ce768-b048-7627-b827-888248f65c31","","null","
                    <div class=""stimulus-container"">
                        <img src=""images/causal_sequence/coin_causal/coin_causal_6.png"" class=""exp-image"">
                        <div class=""question-area""></div> 
                    </div>","null","","","","","","",""
"","","","","","html-button-response","122","500193","0.0-122.0","F3540556170C436AA78B862C7D8C714F","019ce76a-6746-70d2-9223-3557547e1439","019ce768-b048-7627-b827-888248f65c31","","378","
                    <div class=""stimulus-container"">
                        <img src=""images/causal_sequence/coin_causal/coin_causal_6.png"" class=""exp-image"">
                        <div class=""question-area"">
                            <p style=""font-size: 20px; font-weight: bold; margin: 0;"">Is there a person in this image?</p>
                        </div>
                    </div>","0","main_causal_task","6","coin_causal","","","",""
"","","","","","html-keyboard-response","123","505194","0.0-123.0","F3540556170C436AA78B862C7D8C714F","019ce76a-6746-70d2-9223-3557547e1439","019ce768-b048-7627-b827-888248f65c31","","null","
                    <div class=""stimulus-container"">
                        <img src=""images/causal_sequence/coin_causal/coin_causal_7.png"" class=""exp-image"">
                        <div class=""question-area""></div> 
                    </div>","null","","","","","","",""
"","","","","","html-button-response","124","506424","0.0-124.0","F3540556170C436AA78B862C7D8C714F","019ce76a-6746-70d2-9223-3557547e1439","019ce768-b048-7627-b827-888248f65c31","","1228","
                    <div class=""stimulus-container"">
                        <img src=""images/causal_sequence/coin_causal/coin_causal_7.png"" class=""exp-image"">
                        <div class=""question-area"">
                            <p style=""font-size: 20px; font-weight: bold; margin: 0;"">Is there a person in this image?</p>
                        </div>
                    </div>","1","main_causal_task","7","coin_causal","","","",""
"","","","","","html-keyboard-response","125","511427","0.0-125.0","F3540556170C436AA78B862C7D8C714F","019ce76a-6746-70d2-9223-3557547e1439","019ce768-b048-7627-b827-888248f65c31","","null","
                    <div class=""stimulus-container"">
                        <img src=""images/causal_sequence/coin_causal/coin_causal_8.png"" class=""exp-image"">
                        <div class=""question-area""></div> 
                    </div>","null","","","","","","",""
"","","","","","html-button-response","126","511934","0.0-126.0","F3540556170C436AA78B862C7D8C714F","019ce76a-6746-70d2-9223-3557547e1439","019ce768-b048-7627-b827-888248f65c31","","506","
                    <div class=""stimulus-container"">
                        <img src=""images/causal_sequence/coin_causal/coin_causal_8.png"" class=""exp-image"">
                        <div class=""question-area"">
                            <p style=""font-size: 20px; font-weight: bold; margin: 0;"">Is there a person in this image?</p>
                        </div>
                    </div>","0","main_causal_task","8","coin_causal","","","",""
"","","","","","html-keyboard-response","127","516936","0.0-127.0","F3540556170C436AA78B862C7D8C714F","019ce76a-6746-70d2-9223-3557547e1439","019ce768-b048-7627-b827-888248f65c31","","null","
                    <div class=""stimulus-container"">
                        <img src=""images/causal_sequence/coin_causal/coin_causal_9.png"" class=""exp-image"">
                        <div class=""question-area""></div> 
                    </div>","null","","","","","","",""
"","","","","","html-button-response","128","517424","0.0-128.0","F3540556170C436AA78B862C7D8C714F","019ce76a-6746-70d2-9223-3557547e1439","019ce768-b048-7627-b827-888248f65c31","","487","
                    <div class=""stimulus-container"">
                        <img src=""images/causal_sequence/coin_causal/coin_causal_9.png"" class=""exp-image"">
                        <div class=""question-area"">
                            <p style=""font-size: 20px; font-weight: bold; margin: 0;"">Is there a person in this image?</p>
                        </div>
                    </div>","0","main_causal_task","9","coin_causal","","","",""
"","","","","","instructions","129","519304","0.0-129.0","F3540556170C436AA78B862C7D8C714F","019ce76a-6746-70d2-9223-3557547e1439","019ce768-b048-7627-b827-888248f65c31","[{""page_index"":0,""viewing_time"":1879}]","1879","","","","","","","","",""
"","","","","","instructions","130","595266","0.0-130.0","F3540556170C436AA78B862C7D8C714F","019ce76a-6746-70d2-9223-3557547e1439","019ce768-b048-7627-b827-888248f65c31","[{""page_index"":0,""viewing_time"":75961}]","75962","","","","","","","","",""
"","","","","","html-keyboard-response","131","596269","0.0-131.0","F3540556170C436AA78B862C7D8C714F","019ce76a-6746-70d2-9223-3557547e1439","019ce768-b048-7627-b827-888248f65c31","","null","
        <div class=""stimulus-container"" style=""display: flex; align-items: center; justify-content: center; gap: 30px;"">
            <img src=""images/instructions/movie_1.png"" class=""exp-image"">
            <div style=""font-size: 40px; font-weight: bold; color: green; border: 5px solid green; padding: 25px; border-radius: 15px; background-color: #f0fff0;"">
                WORTH<br>$1
            </div>
        </div>
        <div class=""question-area""></div>","null","","","","","","",""
"","","","","","html-button-response","132","597466","0.0-132.0","F3540556170C436AA78B862C7D8C714F","019ce76a-6746-70d2-9223-3557547e1439","019ce768-b048-7627-b827-888248f65c31","","1196","
        <div class=""stimulus-container"" style=""display: flex; align-items: center; justify-content: center; gap: 30px;"">
            <img src=""images/instructions/movie_1.png"" class=""exp-image"">
            <div style=""font-size: 40px; font-weight: bold; color: green; border: 5px solid green; padding: 25px; border-radius: 15px; background-color: #f0fff0;"">
                WORTH<br>$1
            </div>
        </div>
        <div class=""question-area"">
            <p style=""font-size: 20px; font-weight: bold; margin: 0;"">Was there a person in this image?</p>
        </div>","0","","","","","","",""
"","","","","","instructions","133","604137","0.0-133.0","F3540556170C436AA78B862C7D8C714F","019ce76a-6746-70d2-9223-3557547e1439","019ce768-b048-7627-b827-888248f65c31","[{""page_index"":0,""viewing_time"":6669}]","6670","","","","","","","","",""
"","","","","","html-keyboard-response","134","614139","0.0-134.0","F3540556170C436AA78B862C7D8C714F","019ce76a-6746-70d2-9223-3557547e1439","019ce768-b048-7627-b827-888248f65c31","","null","
            <div class=""stimulus-container"" style=""display: flex; align-items: center; justify-content: center; gap: 30px;"">
                <img src=""images/causal_sequence/dog_causal/dog_causal_7.png"" class=""exp-image"">
                <div style=""font-size: 40px; font-weight: bold; color: green; border: 5px solid green; padding: 25px; border-radius: 15px; background-color: #f0fff0;"">
                    WORTH<br>$1
                </div>
            </div>
            <div class=""question-area""></div>","null","","","","","","",""
"","","","","","html-button-response","135","615157","0.0-135.0","F3540556170C436AA78B862C7D8C714F","019ce76a-6746-70d2-9223-3557547e1439","019ce768-b048-7627-b827-888248f65c31","","1016","
            <div class=""stimulus-container"" style=""display: flex; align-items: center; justify-content: center; gap: 30px;"">
                <img src=""images/causal_sequence/dog_causal/dog_causal_7.png"" class=""exp-image"">
                <div style=""font-size: 40px; font-weight: bold; color: green; border: 5px solid green; padding: 25px; border-radius: 15px; background-color: #f0fff0;"">
                    WORTH<br>$1
                </div>
            </div>
            <div class=""question-area"">
                <p style=""font-size: 20px; font-weight: bold; margin: 0;"">Was there a person in this image?</p>
            </div>","0","part2_value_learning","","dog_causal","7","","",""
"","","","","","html-keyboard-response","136","625159","0.0-136.0","F3540556170C436AA78B862C7D8C714F","019ce76a-6746-70d2-9223-3557547e1439","019ce768-b048-7627-b827-888248f65c31","","null","
            <div class=""stimulus-container"" style=""display: flex; align-items: center; justify-content: center; gap: 30px;"">
                <img src=""images/causal_sequence/the_performance_causal/the_performance_causal_4.png"" class=""exp-image"">
                <div style=""font-size: 40px; font-weight: bold; color: green; border: 5px solid green; padding: 25px; border-radius: 15px; background-color: #f0fff0;"">
                    WORTH<br>$1
                </div>
            </div>
            <div class=""question-area""></div>","null","","","","","","",""
"","","","","","html-button-response","137","625957","0.0-137.0","F3540556170C436AA78B862C7D8C714F","019ce76a-6746-70d2-9223-3557547e1439","019ce768-b048-7627-b827-888248f65c31","","797","
            <div class=""stimulus-container"" style=""display: flex; align-items: center; justify-content: center; gap: 30px;"">
                <img src=""images/causal_sequence/the_performance_causal/the_performance_causal_4.png"" class=""exp-image"">
                <div style=""font-size: 40px; font-weight: bold; color: green; border: 5px solid green; padding: 25px; border-radius: 15px; background-color: #f0fff0;"">
                    WORTH<br>$1
                </div>
            </div>
            <div class=""question-area"">
                <p style=""font-size: 20px; font-weight: bold; margin: 0;"">Was there a person in this image?</p>
            </div>","0","part2_value_learning","","the_performance_causal","4","","",""
"","","","","","html-keyboard-response","138","635960","0.0-138.0","F3540556170C436AA78B862C7D8C714F","019ce76a-6746-70d2-9223-3557547e1439","019ce768-b048-7627-b827-888248f65c31","","null","
            <div class=""stimulus-container"" style=""display: flex; align-items: center; justify-content: center; gap: 30px;"">
                <img src=""images/causal_sequence/coin_causal/coin_causal_6.png"" class=""exp-image"">
                <div style=""font-size: 40px; font-weight: bold; color: green; border: 5px solid green; padding: 25px; border-radius: 15px; background-color: #f0fff0;"">
                    WORTH<br>$1
                </div>
            </div>
            <div class=""question-area""></div>","null","","","","","","",""
"","","","","","html-button-response","139","636607","0.0-139.0","F3540556170C436AA78B862C7D8C714F","019ce76a-6746-70d2-9223-3557547e1439","019ce768-b048-7627-b827-888248f65c31","","646","
            <div class=""stimulus-container"" style=""display: flex; align-items: center; justify-content: center; gap: 30px;"">
                <img src=""images/causal_sequence/coin_causal/coin_causal_6.png"" class=""exp-image"">
                <div style=""font-size: 40px; font-weight: bold; color: green; border: 5px solid green; padding: 25px; border-radius: 15px; background-color: #f0fff0;"">
                    WORTH<br>$1
                </div>
            </div>
            <div class=""question-area"">
                <p style=""font-size: 20px; font-weight: bold; margin: 0;"">Was there a person in this image?</p>
            </div>","0","part2_value_learning","","coin_causal","6","","",""
"","","","","","html-keyboard-response","140","646610","0.0-140.0","F3540556170C436AA78B862C7D8C714F","019ce76a-6746-70d2-9223-3557547e1439","019ce768-b048-7627-b827-888248f65c31","","null","
            <div class=""stimulus-container"" style=""display: flex; align-items: center; justify-content: center; gap: 30px;"">
                <img src=""images/causal_sequence/museum_causal/museum_causal_4.png"" class=""exp-image"">
                <div style=""font-size: 40px; font-weight: bold; color: green; border: 5px solid green; padding: 25px; border-radius: 15px; background-color: #f0fff0;"">
                    WORTH<br>$1
                </div>
            </div>
            <div class=""question-area""></div>","null","","","","","","",""
"","","","","","html-button-response","141","648198","0.0-141.0","F3540556170C436AA78B862C7D8C714F","019ce76a-6746-70d2-9223-3557547e1439","019ce768-b048-7627-b827-888248f65c31","","1586","
            <div class=""stimulus-container"" style=""display: flex; align-items: center; justify-content: center; gap: 30px;"">
                <img src=""images/causal_sequence/museum_causal/museum_causal_4.png"" class=""exp-image"">
                <div style=""font-size: 40px; font-weight: bold; color: green; border: 5px solid green; padding: 25px; border-radius: 15px; background-color: #f0fff0;"">
                    WORTH<br>$1
                </div>
            </div>
            <div class=""question-area"">
                <p style=""font-size: 20px; font-weight: bold; margin: 0;"">Was there a person in this image?</p>
            </div>","1","part2_value_learning","","museum_causal","4","","",""
"","","","","","html-keyboard-response","142","658201","0.0-142.0","F3540556170C436AA78B862C7D8C714F","019ce76a-6746-70d2-9223-3557547e1439","019ce768-b048-7627-b827-888248f65c31","","null","
            <div class=""stimulus-container"" style=""display: flex; align-items: center; justify-content: center; gap: 30px;"">
                <img src=""images/causal_sequence/saving_a_cat_causal/saving_a_cat_causal_6.png"" class=""exp-image"">
                <div style=""font-size: 40px; font-weight: bold; color: green; border: 5px solid green; padding: 25px; border-radius: 15px; background-color: #f0fff0;"">
                    WORTH<br>$1
                </div>
            </div>
            <div class=""question-area""></div>","null","","","","","","",""
"","","","","","html-button-response","143","658868","0.0-143.0","F3540556170C436AA78B862C7D8C714F","019ce76a-6746-70d2-9223-3557547e1439","019ce768-b048-7627-b827-888248f65c31","","665","
            <div class=""stimulus-container"" style=""display: flex; align-items: center; justify-content: center; gap: 30px;"">
                <img src=""images/causal_sequence/saving_a_cat_causal/saving_a_cat_causal_6.png"" class=""exp-image"">
                <div style=""font-size: 40px; font-weight: bold; color: green; border: 5px solid green; padding: 25px; border-radius: 15px; background-color: #f0fff0;"">
                    WORTH<br>$1
                </div>
            </div>
            <div class=""question-area"">
                <p style=""font-size: 20px; font-weight: bold; margin: 0;"">Was there a person in this image?</p>
            </div>","0","part2_value_learning","","saving_a_cat_causal","6","","",""
"","","","","","html-keyboard-response","144","668871","0.0-144.0","F3540556170C436AA78B862C7D8C714F","019ce76a-6746-70d2-9223-3557547e1439","019ce768-b048-7627-b827-888248f65c31","","null","
            <div class=""stimulus-container"" style=""display: flex; align-items: center; justify-content: center; gap: 30px;"">
                <img src=""images/causal_sequence/package_causal/package_causal_4.png"" class=""exp-image"">
                <div style=""font-size: 40px; font-weight: bold; color: green; border: 5px solid green; padding: 25px; border-radius: 15px; background-color: #f0fff0;"">
                    WORTH<br>$1
                </div>
            </div>
            <div class=""question-area""></div>","null","","","","","","",""
"","","","","","html-button-response","145","669628","0.0-145.0","F3540556170C436AA78B862C7D8C714F","019ce76a-6746-70d2-9223-3557547e1439","019ce768-b048-7627-b827-888248f65c31","","756","
            <div class=""stimulus-container"" style=""display: flex; align-items: center; justify-content: center; gap: 30px;"">
                <img src=""images/causal_sequence/package_causal/package_causal_4.png"" class=""exp-image"">
                <div style=""font-size: 40px; font-weight: bold; color: green; border: 5px solid green; padding: 25px; border-radius: 15px; background-color: #f0fff0;"">
                    WORTH<br>$1
                </div>
            </div>
            <div class=""question-area"">
                <p style=""font-size: 20px; font-weight: bold; margin: 0;"">Was there a person in this image?</p>
            </div>","1","part2_value_learning","","package_causal","4","","",""
"","","","","","instructions","146","683729","0.0-146.0","F3540556170C436AA78B862C7D8C714F","019ce76a-6746-70d2-9223-3557547e1439","019ce768-b048-7627-b827-888248f65c31","[{""page_index"":0,""viewing_time"":14099}]","14100","","","","","","","","",""
"","","","","","instructions","147","686279","0.0-147.0","F3540556170C436AA78B862C7D8C714F","019ce76a-6746-70d2-9223-3557547e1439","019ce768-b048-7627-b827-888248f65c31","[{""page_index"":0,""viewing_time"":2549}]","2550","","","","","","","","",""
"","","","","","html-keyboard-response","148","696282","0.0-148.0-0.0","F3540556170C436AA78B862C7D8C714F","019ce76a-6746-70d2-9223-3557547e1439","019ce768-b048-7627-b827-888248f65c31","","null","
                        <div style=""font-family: Arial; margin-bottom: 20px;""><h3>Which image is more valuable?</h3></div>
                        <div class=""stimulus-container"" style=""display: flex; width: 1100px; justify-content: center; gap: 50px;"">
                            <img src=""images/causal_sequence/saving_a_cat_causal/saving_a_cat_causal_8.png"" class=""exp-image"">
                            <img src=""images/causal_sequence/saving_a_cat_causal/saving_a_cat_causal_4.png"" class=""exp-image"">
                        </div>","null","","","","","","",""
"","","","","","html-button-response","149","700419","0.0-148.0-1.0","F3540556170C436AA78B862C7D8C714F","019ce76a-6746-70d2-9223-3557547e1439","019ce768-b048-7627-b827-888248f65c31","","4136","
                        <div style=""font-family: Arial; margin-bottom: 20px;""><h3>Which image is more valuable?</h3></div>
                        <div class=""stimulus-container"" style=""display: flex; width: 1100px; justify-content: center; gap: 50px;"">
                            <img src=""images/causal_sequence/saving_a_cat_causal/saving_a_cat_causal_8.png"" class=""exp-image"">
                            <img src=""images/causal_sequence/saving_a_cat_causal/saving_a_cat_causal_4.png"" class=""exp-image"">
                        </div>","1","part3_final_choice","","saving_a_cat_causal","","6","4","-2"
"","","","","","html-keyboard-response","150","710422","0.0-149.0-0.0","F3540556170C436AA78B862C7D8C714F","019ce76a-6746-70d2-9223-3557547e1439","019ce768-b048-7627-b827-888248f65c31","","null","
                        <div style=""font-family: Arial; margin-bottom: 20px;""><h3>Which image is more valuable?</h3></div>
                        <div class=""stimulus-container"" style=""display: flex; width: 1100px; justify-content: center; gap: 50px;"">
                            <img src=""images/causal_sequence/coin_causal/coin_causal_8.png"" class=""exp-image"">
                            <img src=""images/causal_sequence/coin_causal/coin_causal_4.png"" class=""exp-image"">
                        </div>","null","","","","","","",""
"","","","","","html-button-response","151","711450","0.0-149.0-1.0","F3540556170C436AA78B862C7D8C714F","019ce76a-6746-70d2-9223-3557547e1439","019ce768-b048-7627-b827-888248f65c31","","1025","
                        <div style=""font-family: Arial; margin-bottom: 20px;""><h3>Which image is more valuable?</h3></div>
                        <div class=""stimulus-container"" style=""display: flex; width: 1100px; justify-content: center; gap: 50px;"">
                            <img src=""images/causal_sequence/coin_causal/coin_causal_8.png"" class=""exp-image"">
                            <img src=""images/causal_sequence/coin_causal/coin_causal_4.png"" class=""exp-image"">
                        </div>","0","part3_final_choice","","coin_causal","","6","8","2"
"","","","","","html-keyboard-response","152","721453","0.0-150.0-0.0","F3540556170C436AA78B862C7D8C714F","019ce76a-6746-70d2-9223-3557547e1439","019ce768-b048-7627-b827-888248f65c31","","null","
                        <div style=""font-family: Arial; margin-bottom: 20px;""><h3>Which image is more valuable?</h3></div>
                        <div class=""stimulus-container"" style=""display: flex; width: 1100px; justify-content: center; gap: 50px;"">
                            <img src=""images/causal_sequence/the_performance_causal/the_performance_causal_2.png"" class=""exp-image"">
                            <img src=""images/causal_sequence/the_performance_causal/the_performance_causal_6.png"" class=""exp-image"">
                        </div>","null","","","","","","",""
"","","","","","html-button-response","153","722550","0.0-150.0-1.0","F3540556170C436AA78B862C7D8C714F","019ce76a-6746-70d2-9223-3557547e1439","019ce768-b048-7627-b827-888248f65c31","","1096","
                        <div style=""font-family: Arial; margin-bottom: 20px;""><h3>Which image is more valuable?</h3></div>
                        <div class=""stimulus-container"" style=""display: flex; width: 1100px; justify-content: center; gap: 50px;"">
                            <img src=""images/causal_sequence/the_performance_causal/the_performance_causal_2.png"" class=""exp-image"">
                            <img src=""images/causal_sequence/the_performance_causal/the_performance_causal_6.png"" class=""exp-image"">
                        </div>","0","part3_final_choice","","the_performance_causal","","4","2","-2"
"","","","","","html-keyboard-response","154","732553","0.0-151.0-0.0","F3540556170C436AA78B862C7D8C714F","019ce76a-6746-70d2-9223-3557547e1439","019ce768-b048-7627-b827-888248f65c31","","null","
                        <div style=""font-family: Arial; margin-bottom: 20px;""><h3>Which image is more valuable?</h3></div>
                        <div class=""stimulus-container"" style=""display: flex; width: 1100px; justify-content: center; gap: 50px;"">
                            <img src=""images/causal_sequence/dog_causal/dog_causal_5.png"" class=""exp-image"">
                            <img src=""images/causal_sequence/dog_causal/dog_causal_9.png"" class=""exp-image"">
                        </div>","null","","","","","","",""
"","","","","","html-button-response","155","733760","0.0-151.0-1.0","F3540556170C436AA78B862C7D8C714F","019ce76a-6746-70d2-9223-3557547e1439","019ce768-b048-7627-b827-888248f65c31","","1205","
                        <div style=""font-family: Arial; margin-bottom: 20px;""><h3>Which image is more valuable?</h3></div>
                        <div class=""stimulus-container"" style=""display: flex; width: 1100px; justify-content: center; gap: 50px;"">
                            <img src=""images/causal_sequence/dog_causal/dog_causal_5.png"" class=""exp-image"">
                            <img src=""images/causal_sequence/dog_causal/dog_causal_9.png"" class=""exp-image"">
                        </div>","1","part3_final_choice","","dog_causal","","7","9","2"
"","","","","","html-keyboard-response","156","743763","0.0-152.0-0.0","F3540556170C436AA78B862C7D8C714F","019ce76a-6746-70d2-9223-3557547e1439","019ce768-b048-7627-b827-888248f65c31","","null","
                        <div style=""font-family: Arial; margin-bottom: 20px;""><h3>Which image is more valuable?</h3></div>
                        <div class=""stimulus-container"" style=""display: flex; width: 1100px; justify-content: center; gap: 50px;"">
                            <img src=""images/causal_sequence/package_causal/package_causal_2.png"" class=""exp-image"">
                            <img src=""images/causal_sequence/package_causal/package_causal_6.png"" class=""exp-image"">
                        </div>","null","","","","","","",""
"","","","","","html-button-response","157","744450","0.0-152.0-1.0","F3540556170C436AA78B862C7D8C714F","019ce76a-6746-70d2-9223-3557547e1439","019ce768-b048-7627-b827-888248f65c31","","686","
                        <div style=""font-family: Arial; margin-bottom: 20px;""><h3>Which image is more valuable?</h3></div>
                        <div class=""stimulus-container"" style=""display: flex; width: 1100px; justify-content: center; gap: 50px;"">
                            <img src=""images/causal_sequence/package_causal/package_causal_2.png"" class=""exp-image"">
                            <img src=""images/causal_sequence/package_causal/package_causal_6.png"" class=""exp-image"">
                        </div>","1","part3_final_choice","","package_causal","","4","6","2"
"","","","","","html-keyboard-response","158","754453","0.0-153.0-0.0","F3540556170C436AA78B862C7D8C714F","019ce76a-6746-70d2-9223-3557547e1439","019ce768-b048-7627-b827-888248f65c31","","null","
                        <div style=""font-family: Arial; margin-bottom: 20px;""><h3>Which image is more valuable?</h3></div>
                        <div class=""stimulus-container"" style=""display: flex; width: 1100px; justify-content: center; gap: 50px;"">
                            <img src=""images/causal_sequence/museum_causal/museum_causal_6.png"" class=""exp-image"">
                            <img src=""images/causal_sequence/museum_causal/museum_causal_2.png"" class=""exp-image"">
                        </div>","null","","","","","","",""
"","","","","","html-button-response","159","754961","0.0-153.0-1.0","F3540556170C436AA78B862C7D8C714F","019ce76a-6746-70d2-9223-3557547e1439","019ce768-b048-7627-b827-888248f65c31","","506","
                        <div style=""font-family: Arial; margin-bottom: 20px;""><h3>Which image is more valuable?</h3></div>
                        <div class=""stimulus-container"" style=""display: flex; width: 1100px; justify-content: center; gap: 50px;"">
                            <img src=""images/causal_sequence/museum_causal/museum_causal_6.png"" class=""exp-image"">
                            <img src=""images/causal_sequence/museum_causal/museum_causal_2.png"" class=""exp-image"">
                        </div>","0","part3_final_choice","","museum_causal","","4","6","2"
"","","","","","survey-text","160","805224","0.0-154.0","F3540556170C436AA78B862C7D8C714F","019ce76a-6746-70d2-9223-3557547e1439","019ce768-b048-7627-b827-888248f65c31","","50256","","{""gender"":""MALE"",""age"":""28"",""decision_strategy"":""By deciding which image would be useful in real world practical applictions (advertisements, website photos, etc.)"",""consistency_check"":""Same logic was used based on what I described before.""}","demographics_and_strategy","","","","","",""
"","","","","","instructions","161","819202","0.0-155.0","F3540556170C436AA78B862C7D8C714F","019ce76a-6746-70d2-9223-3557547e1439","019ce768-b048-7627-b827-888248f65c31","[{""page_index"":0,""viewing_time"":13977}]","13977","","","","","","","","",""
