"success","timeout","failed_images","failed_audio","failed_video","trial_type","trial_index","time_elapsed","internal_node_id","subject_id","study_id","session_id","view_history","rt","stimulus","response","task","image_index","folder","sequence_type","valuable_image_index","reward_type","chosen_image_index","target_X","correct_choice"
"true","false","[]","[]","[]","preload","0","18224","0.0-0.0","ECF154619CDF40F4B4F35C09126CAE01","019cf0b8-7e71-710f-a4ad-b3b02663bc43","019cf037-5203-781a-b900-108ccb1cab86","","","","","","","","","","","","",""
"","","","","","instructions","1","2657364","0.0-1.0","ECF154619CDF40F4B4F35C09126CAE01","019cf0b8-7e71-710f-a4ad-b3b02663bc43","019cf037-5203-781a-b900-108ccb1cab86","[{""page_index"":0,""viewing_time"":2639140}]","2639140","","","","","","","","","","",""
"","","","","","instructions","2","2660676","0.0-2.0","ECF154619CDF40F4B4F35C09126CAE01","019cf0b8-7e71-710f-a4ad-b3b02663bc43","019cf037-5203-781a-b900-108ccb1cab86","[{""page_index"":0,""viewing_time"":3312}]","3312","","","","","","","","","","",""
"true","","","","","fullscreen","3","4462792","0.0-3.0","ECF154619CDF40F4B4F35C09126CAE01","019cf0b8-7e71-710f-a4ad-b3b02663bc43","019cf037-5203-781a-b900-108ccb1cab86","","1801101","","","","","","","","","","",""
"","","","","","instructions","4","4466566","0.0-4.0","ECF154619CDF40F4B4F35C09126CAE01","019cf0b8-7e71-710f-a4ad-b3b02663bc43","019cf037-5203-781a-b900-108ccb1cab86","[{""page_index"":0,""viewing_time"":3773}]","3773","","","","","","","","","","",""
"","","","","","instructions","5","4472060","0.0-5.0","ECF154619CDF40F4B4F35C09126CAE01","019cf0b8-7e71-710f-a4ad-b3b02663bc43","019cf037-5203-781a-b900-108ccb1cab86","[{""page_index"":0,""viewing_time"":5494}]","5494","","","","","","","","","","",""
"","","","","","html-keyboard-response","6","4476060","0.0-6.0","ECF154619CDF40F4B4F35C09126CAE01","019cf0b8-7e71-710f-a4ad-b3b02663bc43","019cf037-5203-781a-b900-108ccb1cab86","","null","
                <div class=""stimulus-container"">
                    <img src=""images/instructions/movie_1.png"" class=""exp-image"">
                    <div class=""question-area""></div> 
                </div>","null","","","","","","","","",""
"","","","","","html-button-response","7","4476617","0.0-7.0","ECF154619CDF40F4B4F35C09126CAE01","019cf0b8-7e71-710f-a4ad-b3b02663bc43","019cf037-5203-781a-b900-108ccb1cab86","","556","
                <div class=""stimulus-container"">
                    <img src=""images/instructions/movie_1.png"" class=""exp-image"">
                    <div class=""question-area"">
                        <p style=""font-size: 20px; font-weight: bold; margin: 0;"">Was there a person in this image?</p>
                    </div>
                </div>","0","example_question","1","","","","","","",""
"","","","","","html-keyboard-response","8","4480623","0.0-8.0","ECF154619CDF40F4B4F35C09126CAE01","019cf0b8-7e71-710f-a4ad-b3b02663bc43","019cf037-5203-781a-b900-108ccb1cab86","","null","
                <div class=""stimulus-container"">
                    <img src=""images/instructions/movie_2.png"" class=""exp-image"">
                    <div class=""question-area""></div> 
                </div>","null","","","","","","","","",""
"","","","","","html-button-response","9","4481661","0.0-9.0","ECF154619CDF40F4B4F35C09126CAE01","019cf0b8-7e71-710f-a4ad-b3b02663bc43","019cf037-5203-781a-b900-108ccb1cab86","","1037","
                <div class=""stimulus-container"">
                    <img src=""images/instructions/movie_2.png"" class=""exp-image"">
                    <div class=""question-area"">
                        <p style=""font-size: 20px; font-weight: bold; margin: 0;"">Was there a person in this image?</p>
                    </div>
                </div>","0","example_question","2","","","","","","",""
"","","","","","html-keyboard-response","10","4485674","0.0-10.0","ECF154619CDF40F4B4F35C09126CAE01","019cf0b8-7e71-710f-a4ad-b3b02663bc43","019cf037-5203-781a-b900-108ccb1cab86","","null","
                <div class=""stimulus-container"">
                    <img src=""images/instructions/movie_3.png"" class=""exp-image"">
                    <div class=""question-area""></div> 
                </div>","null","","","","","","","","",""
"","","","","","html-button-response","11","4486019","0.0-11.0","ECF154619CDF40F4B4F35C09126CAE01","019cf0b8-7e71-710f-a4ad-b3b02663bc43","019cf037-5203-781a-b900-108ccb1cab86","","344","
                <div class=""stimulus-container"">
                    <img src=""images/instructions/movie_3.png"" class=""exp-image"">
                    <div class=""question-area"">
                        <p style=""font-size: 20px; font-weight: bold; margin: 0;"">Was there a person in this image?</p>
                    </div>
                </div>","0","example_question","3","","","","","","",""
"","","","","","html-keyboard-response","12","4490022","0.0-12.0","ECF154619CDF40F4B4F35C09126CAE01","019cf0b8-7e71-710f-a4ad-b3b02663bc43","019cf037-5203-781a-b900-108ccb1cab86","","null","
                <div class=""stimulus-container"">
                    <img src=""images/instructions/movie_4.png"" class=""exp-image"">
                    <div class=""question-area""></div> 
                </div>","null","","","","","","","","",""
"","","","","","html-button-response","13","4490621","0.0-13.0","ECF154619CDF40F4B4F35C09126CAE01","019cf0b8-7e71-710f-a4ad-b3b02663bc43","019cf037-5203-781a-b900-108ccb1cab86","","599","
                <div class=""stimulus-container"">
                    <img src=""images/instructions/movie_4.png"" class=""exp-image"">
                    <div class=""question-area"">
                        <p style=""font-size: 20px; font-weight: bold; margin: 0;"">Was there a person in this image?</p>
                    </div>
                </div>","0","example_question","4","","","","","","",""
"","","","","","instructions","14","4491978","0.0-14.0","ECF154619CDF40F4B4F35C09126CAE01","019cf0b8-7e71-710f-a4ad-b3b02663bc43","019cf037-5203-781a-b900-108ccb1cab86","[{""page_index"":0,""viewing_time"":1357}]","1357","","","","","","","","","","",""
"","","","","","instructions","15","4492617","0.0-15.0","ECF154619CDF40F4B4F35C09126CAE01","019cf0b8-7e71-710f-a4ad-b3b02663bc43","019cf037-5203-781a-b900-108ccb1cab86","[{""page_index"":0,""viewing_time"":639}]","639","","","","","","","","","","",""
"","","","","","html-keyboard-response","16","4493619","0.0-16.0","ECF154619CDF40F4B4F35C09126CAE01","019cf0b8-7e71-710f-a4ad-b3b02663bc43","019cf037-5203-781a-b900-108ccb1cab86","","null","<div style=""background-color: white; width: 100vw; height: 100vh;""></div>","null","","","","","","","","",""
"","","","","","html-keyboard-response","17","4498619","0.0-17.0","ECF154619CDF40F4B4F35C09126CAE01","019cf0b8-7e71-710f-a4ad-b3b02663bc43","019cf037-5203-781a-b900-108ccb1cab86","","null","
                <div class=""stimulus-container"">
                    <img src=""images/causal_sequence/the_performance_causal/the_performance_causal_1.png"" class=""exp-image"">
                    <div class=""question-area""></div> 
                </div>","null","","","","","","","","",""
"","","","","","html-button-response","18","4499128","0.0-18.0","ECF154619CDF40F4B4F35C09126CAE01","019cf0b8-7e71-710f-a4ad-b3b02663bc43","019cf037-5203-781a-b900-108ccb1cab86","","508","
                <div class=""stimulus-container"">
                    <img src=""images/causal_sequence/the_performance_causal/the_performance_causal_1.png"" class=""exp-image"">
                    <div class=""question-area"">
                        <p style=""font-size: 20px; font-weight: bold; margin: 0;"">Is there a person in this image?</p>
                    </div>
                </div>","0","main_experiment_trial","1","the_performance_causal","causal_sequence","","","","",""
"","","","","","html-keyboard-response","19","4504143","0.0-19.0","ECF154619CDF40F4B4F35C09126CAE01","019cf0b8-7e71-710f-a4ad-b3b02663bc43","019cf037-5203-781a-b900-108ccb1cab86","","null","
                <div class=""stimulus-container"">
                    <img src=""images/causal_sequence/the_performance_causal/the_performance_causal_2.png"" class=""exp-image"">
                    <div class=""question-area""></div> 
                </div>","null","","","","","","","","",""
"","","","","","html-button-response","20","4504473","0.0-20.0","ECF154619CDF40F4B4F35C09126CAE01","019cf0b8-7e71-710f-a4ad-b3b02663bc43","019cf037-5203-781a-b900-108ccb1cab86","","330","
                <div class=""stimulus-container"">
                    <img src=""images/causal_sequence/the_performance_causal/the_performance_causal_2.png"" class=""exp-image"">
                    <div class=""question-area"">
                        <p style=""font-size: 20px; font-weight: bold; margin: 0;"">Is there a person in this image?</p>
                    </div>
                </div>","0","main_experiment_trial","2","the_performance_causal","causal_sequence","","","","",""
"","","","","","html-keyboard-response","21","4509479","0.0-21.0","ECF154619CDF40F4B4F35C09126CAE01","019cf0b8-7e71-710f-a4ad-b3b02663bc43","019cf037-5203-781a-b900-108ccb1cab86","","null","
                <div class=""stimulus-container"">
                    <img src=""images/causal_sequence/the_performance_causal/the_performance_causal_3.png"" class=""exp-image"">
                    <div class=""question-area""></div> 
                </div>","null","","","","","","","","",""
"","","","","","html-button-response","22","4509964","0.0-22.0","ECF154619CDF40F4B4F35C09126CAE01","019cf0b8-7e71-710f-a4ad-b3b02663bc43","019cf037-5203-781a-b900-108ccb1cab86","","485","
                <div class=""stimulus-container"">
                    <img src=""images/causal_sequence/the_performance_causal/the_performance_causal_3.png"" class=""exp-image"">
                    <div class=""question-area"">
                        <p style=""font-size: 20px; font-weight: bold; margin: 0;"">Is there a person in this image?</p>
                    </div>
                </div>","0","main_experiment_trial","3","the_performance_causal","causal_sequence","","","","",""
"","","","","","html-keyboard-response","23","4514977","0.0-23.0","ECF154619CDF40F4B4F35C09126CAE01","019cf0b8-7e71-710f-a4ad-b3b02663bc43","019cf037-5203-781a-b900-108ccb1cab86","","null","
                <div class=""stimulus-container"">
                    <img src=""images/causal_sequence/the_performance_causal/the_performance_causal_4.png"" class=""exp-image"">
                    <div class=""question-area""></div> 
                </div>","null","","","","","","","","",""
"","","","","","html-button-response","24","4515660","0.0-24.0","ECF154619CDF40F4B4F35C09126CAE01","019cf0b8-7e71-710f-a4ad-b3b02663bc43","019cf037-5203-781a-b900-108ccb1cab86","","682","
                <div class=""stimulus-container"">
                    <img src=""images/causal_sequence/the_performance_causal/the_performance_causal_4.png"" class=""exp-image"">
                    <div class=""question-area"">
                        <p style=""font-size: 20px; font-weight: bold; margin: 0;"">Is there a person in this image?</p>
                    </div>
                </div>","0","main_experiment_trial","4","the_performance_causal","causal_sequence","","","","",""
"","","","","","html-keyboard-response","25","4520666","0.0-25.0","ECF154619CDF40F4B4F35C09126CAE01","019cf0b8-7e71-710f-a4ad-b3b02663bc43","019cf037-5203-781a-b900-108ccb1cab86","","null","
                <div class=""stimulus-container"">
                    <img src=""images/causal_sequence/the_performance_causal/the_performance_causal_5.png"" class=""exp-image"">
                    <div class=""question-area""></div> 
                </div>","null","","","","","","","","",""
"","","","","","html-button-response","26","4521152","0.0-26.0","ECF154619CDF40F4B4F35C09126CAE01","019cf0b8-7e71-710f-a4ad-b3b02663bc43","019cf037-5203-781a-b900-108ccb1cab86","","486","
                <div class=""stimulus-container"">
                    <img src=""images/causal_sequence/the_performance_causal/the_performance_causal_5.png"" class=""exp-image"">
                    <div class=""question-area"">
                        <p style=""font-size: 20px; font-weight: bold; margin: 0;"">Is there a person in this image?</p>
                    </div>
                </div>","0","main_experiment_trial","5","the_performance_causal","causal_sequence","","","","",""
"","","","","","html-keyboard-response","27","4526163","0.0-27.0","ECF154619CDF40F4B4F35C09126CAE01","019cf0b8-7e71-710f-a4ad-b3b02663bc43","019cf037-5203-781a-b900-108ccb1cab86","","null","
                <div class=""stimulus-container"">
                    <img src=""images/causal_sequence/the_performance_causal/the_performance_causal_6.png"" class=""exp-image"">
                    <div class=""question-area""></div> 
                </div>","null","","","","","","","","",""
"","","","","","html-button-response","28","4526505","0.0-28.0","ECF154619CDF40F4B4F35C09126CAE01","019cf0b8-7e71-710f-a4ad-b3b02663bc43","019cf037-5203-781a-b900-108ccb1cab86","","342","
                <div class=""stimulus-container"">
                    <img src=""images/causal_sequence/the_performance_causal/the_performance_causal_6.png"" class=""exp-image"">
                    <div class=""question-area"">
                        <p style=""font-size: 20px; font-weight: bold; margin: 0;"">Is there a person in this image?</p>
                    </div>
                </div>","0","main_experiment_trial","6","the_performance_causal","causal_sequence","","","","",""
"","","","","","html-keyboard-response","29","4531506","0.0-29.0","ECF154619CDF40F4B4F35C09126CAE01","019cf0b8-7e71-710f-a4ad-b3b02663bc43","019cf037-5203-781a-b900-108ccb1cab86","","null","
                <div class=""stimulus-container"">
                    <img src=""images/causal_sequence/the_performance_causal/the_performance_causal_7.png"" class=""exp-image"">
                    <div class=""question-area""></div> 
                </div>","null","","","","","","","","",""
"","","","","","html-button-response","30","4531828","0.0-30.0","ECF154619CDF40F4B4F35C09126CAE01","019cf0b8-7e71-710f-a4ad-b3b02663bc43","019cf037-5203-781a-b900-108ccb1cab86","","321","
                <div class=""stimulus-container"">
                    <img src=""images/causal_sequence/the_performance_causal/the_performance_causal_7.png"" class=""exp-image"">
                    <div class=""question-area"">
                        <p style=""font-size: 20px; font-weight: bold; margin: 0;"">Is there a person in this image?</p>
                    </div>
                </div>","0","main_experiment_trial","7","the_performance_causal","causal_sequence","","","","",""
"","","","","","html-keyboard-response","31","4536829","0.0-31.0","ECF154619CDF40F4B4F35C09126CAE01","019cf0b8-7e71-710f-a4ad-b3b02663bc43","019cf037-5203-781a-b900-108ccb1cab86","","null","
                <div class=""stimulus-container"">
                    <img src=""images/causal_sequence/the_performance_causal/the_performance_causal_8.png"" class=""exp-image"">
                    <div class=""question-area""></div> 
                </div>","null","","","","","","","","",""
"","","","","","html-button-response","32","4537310","0.0-32.0","ECF154619CDF40F4B4F35C09126CAE01","019cf0b8-7e71-710f-a4ad-b3b02663bc43","019cf037-5203-781a-b900-108ccb1cab86","","481","
                <div class=""stimulus-container"">
                    <img src=""images/causal_sequence/the_performance_causal/the_performance_causal_8.png"" class=""exp-image"">
                    <div class=""question-area"">
                        <p style=""font-size: 20px; font-weight: bold; margin: 0;"">Is there a person in this image?</p>
                    </div>
                </div>","0","main_experiment_trial","8","the_performance_causal","causal_sequence","","","","",""
"","","","","","html-keyboard-response","33","4542310","0.0-33.0","ECF154619CDF40F4B4F35C09126CAE01","019cf0b8-7e71-710f-a4ad-b3b02663bc43","019cf037-5203-781a-b900-108ccb1cab86","","null","
                <div class=""stimulus-container"">
                    <img src=""images/causal_sequence/the_performance_causal/the_performance_causal_9.png"" class=""exp-image"">
                    <div class=""question-area""></div> 
                </div>","null","","","","","","","","",""
"","","","","","html-button-response","34","4542833","0.0-34.0","ECF154619CDF40F4B4F35C09126CAE01","019cf0b8-7e71-710f-a4ad-b3b02663bc43","019cf037-5203-781a-b900-108ccb1cab86","","523","
                <div class=""stimulus-container"">
                    <img src=""images/causal_sequence/the_performance_causal/the_performance_causal_9.png"" class=""exp-image"">
                    <div class=""question-area"">
                        <p style=""font-size: 20px; font-weight: bold; margin: 0;"">Is there a person in this image?</p>
                    </div>
                </div>","0","main_experiment_trial","9","the_performance_causal","causal_sequence","","","","",""
"","","","","","html-keyboard-response","35","4547845","0.0-35.0","ECF154619CDF40F4B4F35C09126CAE01","019cf0b8-7e71-710f-a4ad-b3b02663bc43","019cf037-5203-781a-b900-108ccb1cab86","","null","
                <div class=""stimulus-container"">
                    <img src=""images/causal_sequence/the_performance_causal/the_performance_causal_ten.png"" class=""exp-image"">
                    <div class=""question-area""></div> 
                </div>","null","","","","","","","","",""
"","","","","","html-button-response","36","4548475","0.0-36.0","ECF154619CDF40F4B4F35C09126CAE01","019cf0b8-7e71-710f-a4ad-b3b02663bc43","019cf037-5203-781a-b900-108ccb1cab86","","630","
                <div class=""stimulus-container"">
                    <img src=""images/causal_sequence/the_performance_causal/the_performance_causal_ten.png"" class=""exp-image"">
                    <div class=""question-area"">
                        <p style=""font-size: 20px; font-weight: bold; margin: 0;"">Is there a person in this image?</p>
                    </div>
                </div>","0","main_experiment_trial","ten","the_performance_causal","causal_sequence","","","","",""
"","","","","","html-keyboard-response","37","4549478","0.0-37.0","ECF154619CDF40F4B4F35C09126CAE01","019cf0b8-7e71-710f-a4ad-b3b02663bc43","019cf037-5203-781a-b900-108ccb1cab86","","null","<div style=""background-color: white; width: 100vw; height: 100vh;""></div>","null","","","","","","","","",""
"","","","","","html-keyboard-response","38","4554480","0.0-38.0","ECF154619CDF40F4B4F35C09126CAE01","019cf0b8-7e71-710f-a4ad-b3b02663bc43","019cf037-5203-781a-b900-108ccb1cab86","","null","
                <div class=""stimulus-container"">
                    <img src=""images/schematic_sequence/supermarket_scheme/supermarket_scheme_1.png"" class=""exp-image"">
                    <div class=""question-area""></div> 
                </div>","null","","","","","","","","",""
"","","","","","html-button-response","39","4555733","0.0-39.0","ECF154619CDF40F4B4F35C09126CAE01","019cf0b8-7e71-710f-a4ad-b3b02663bc43","019cf037-5203-781a-b900-108ccb1cab86","","1253","
                <div class=""stimulus-container"">
                    <img src=""images/schematic_sequence/supermarket_scheme/supermarket_scheme_1.png"" class=""exp-image"">
                    <div class=""question-area"">
                        <p style=""font-size: 20px; font-weight: bold; margin: 0;"">Is there a person in this image?</p>
                    </div>
                </div>","1","main_experiment_trial","1","supermarket_scheme","schematic_sequence","","","","",""
"","","","","","html-keyboard-response","40","4560737","0.0-40.0","ECF154619CDF40F4B4F35C09126CAE01","019cf0b8-7e71-710f-a4ad-b3b02663bc43","019cf037-5203-781a-b900-108ccb1cab86","","null","
                <div class=""stimulus-container"">
                    <img src=""images/schematic_sequence/supermarket_scheme/supermarket_scheme_2.png"" class=""exp-image"">
                    <div class=""question-area""></div> 
                </div>","null","","","","","","","","",""
"","","","","","html-button-response","41","4561667","0.0-41.0","ECF154619CDF40F4B4F35C09126CAE01","019cf0b8-7e71-710f-a4ad-b3b02663bc43","019cf037-5203-781a-b900-108ccb1cab86","","930","
                <div class=""stimulus-container"">
                    <img src=""images/schematic_sequence/supermarket_scheme/supermarket_scheme_2.png"" class=""exp-image"">
                    <div class=""question-area"">
                        <p style=""font-size: 20px; font-weight: bold; margin: 0;"">Is there a person in this image?</p>
                    </div>
                </div>","1","main_experiment_trial","2","supermarket_scheme","schematic_sequence","","","","",""
"","","","","","html-keyboard-response","42","4566672","0.0-42.0","ECF154619CDF40F4B4F35C09126CAE01","019cf0b8-7e71-710f-a4ad-b3b02663bc43","019cf037-5203-781a-b900-108ccb1cab86","","null","
                <div class=""stimulus-container"">
                    <img src=""images/schematic_sequence/supermarket_scheme/supermarket_scheme_3.png"" class=""exp-image"">
                    <div class=""question-area""></div> 
                </div>","null","","","","","","","","",""
"","","","","","html-button-response","43","4567191","0.0-43.0","ECF154619CDF40F4B4F35C09126CAE01","019cf0b8-7e71-710f-a4ad-b3b02663bc43","019cf037-5203-781a-b900-108ccb1cab86","","519","
                <div class=""stimulus-container"">
                    <img src=""images/schematic_sequence/supermarket_scheme/supermarket_scheme_3.png"" class=""exp-image"">
                    <div class=""question-area"">
                        <p style=""font-size: 20px; font-weight: bold; margin: 0;"">Is there a person in this image?</p>
                    </div>
                </div>","1","main_experiment_trial","3","supermarket_scheme","schematic_sequence","","","","",""
"","","","","","html-keyboard-response","44","4572191","0.0-44.0","ECF154619CDF40F4B4F35C09126CAE01","019cf0b8-7e71-710f-a4ad-b3b02663bc43","019cf037-5203-781a-b900-108ccb1cab86","","null","
                <div class=""stimulus-container"">
                    <img src=""images/schematic_sequence/supermarket_scheme/supermarket_scheme_4.png"" class=""exp-image"">
                    <div class=""question-area""></div> 
                </div>","null","","","","","","","","",""
"","","","","","html-button-response","45","4572743","0.0-45.0","ECF154619CDF40F4B4F35C09126CAE01","019cf0b8-7e71-710f-a4ad-b3b02663bc43","019cf037-5203-781a-b900-108ccb1cab86","","551","
                <div class=""stimulus-container"">
                    <img src=""images/schematic_sequence/supermarket_scheme/supermarket_scheme_4.png"" class=""exp-image"">
                    <div class=""question-area"">
                        <p style=""font-size: 20px; font-weight: bold; margin: 0;"">Is there a person in this image?</p>
                    </div>
                </div>","0","main_experiment_trial","4","supermarket_scheme","schematic_sequence","","","","",""
"","","","","","html-keyboard-response","46","4577746","0.0-46.0","ECF154619CDF40F4B4F35C09126CAE01","019cf0b8-7e71-710f-a4ad-b3b02663bc43","019cf037-5203-781a-b900-108ccb1cab86","","null","
                <div class=""stimulus-container"">
                    <img src=""images/schematic_sequence/supermarket_scheme/supermarket_scheme_5.png"" class=""exp-image"">
                    <div class=""question-area""></div> 
                </div>","null","","","","","","","","",""
"","","","","","html-button-response","47","4579150","0.0-47.0","ECF154619CDF40F4B4F35C09126CAE01","019cf0b8-7e71-710f-a4ad-b3b02663bc43","019cf037-5203-781a-b900-108ccb1cab86","","1404","
                <div class=""stimulus-container"">
                    <img src=""images/schematic_sequence/supermarket_scheme/supermarket_scheme_5.png"" class=""exp-image"">
                    <div class=""question-area"">
                        <p style=""font-size: 20px; font-weight: bold; margin: 0;"">Is there a person in this image?</p>
                    </div>
                </div>","1","main_experiment_trial","5","supermarket_scheme","schematic_sequence","","","","",""
"","","","","","html-keyboard-response","48","4584153","0.0-48.0","ECF154619CDF40F4B4F35C09126CAE01","019cf0b8-7e71-710f-a4ad-b3b02663bc43","019cf037-5203-781a-b900-108ccb1cab86","","null","
                <div class=""stimulus-container"">
                    <img src=""images/schematic_sequence/supermarket_scheme/supermarket_scheme_6.png"" class=""exp-image"">
                    <div class=""question-area""></div> 
                </div>","null","","","","","","","","",""
"","","","","","html-button-response","49","4585160","0.0-49.0","ECF154619CDF40F4B4F35C09126CAE01","019cf0b8-7e71-710f-a4ad-b3b02663bc43","019cf037-5203-781a-b900-108ccb1cab86","","1007","
                <div class=""stimulus-container"">
                    <img src=""images/schematic_sequence/supermarket_scheme/supermarket_scheme_6.png"" class=""exp-image"">
                    <div class=""question-area"">
                        <p style=""font-size: 20px; font-weight: bold; margin: 0;"">Is there a person in this image?</p>
                    </div>
                </div>","0","main_experiment_trial","6","supermarket_scheme","schematic_sequence","","","","",""
"","","","","","html-keyboard-response","50","4590172","0.0-50.0","ECF154619CDF40F4B4F35C09126CAE01","019cf0b8-7e71-710f-a4ad-b3b02663bc43","019cf037-5203-781a-b900-108ccb1cab86","","null","
                <div class=""stimulus-container"">
                    <img src=""images/schematic_sequence/supermarket_scheme/supermarket_scheme_7.png"" class=""exp-image"">
                    <div class=""question-area""></div> 
                </div>","null","","","","","","","","",""
"","","","","","html-button-response","51","4591394","0.0-51.0","ECF154619CDF40F4B4F35C09126CAE01","019cf0b8-7e71-710f-a4ad-b3b02663bc43","019cf037-5203-781a-b900-108ccb1cab86","","1222","
                <div class=""stimulus-container"">
                    <img src=""images/schematic_sequence/supermarket_scheme/supermarket_scheme_7.png"" class=""exp-image"">
                    <div class=""question-area"">
                        <p style=""font-size: 20px; font-weight: bold; margin: 0;"">Is there a person in this image?</p>
                    </div>
                </div>","0","main_experiment_trial","7","supermarket_scheme","schematic_sequence","","","","",""
"","","","","","html-keyboard-response","52","4596401","0.0-52.0","ECF154619CDF40F4B4F35C09126CAE01","019cf0b8-7e71-710f-a4ad-b3b02663bc43","019cf037-5203-781a-b900-108ccb1cab86","","null","
                <div class=""stimulus-container"">
                    <img src=""images/schematic_sequence/supermarket_scheme/supermarket_scheme_8.png"" class=""exp-image"">
                    <div class=""question-area""></div> 
                </div>","null","","","","","","","","",""
"","","","","","html-button-response","53","4597225","0.0-53.0","ECF154619CDF40F4B4F35C09126CAE01","019cf0b8-7e71-710f-a4ad-b3b02663bc43","019cf037-5203-781a-b900-108ccb1cab86","","824","
                <div class=""stimulus-container"">
                    <img src=""images/schematic_sequence/supermarket_scheme/supermarket_scheme_8.png"" class=""exp-image"">
                    <div class=""question-area"">
                        <p style=""font-size: 20px; font-weight: bold; margin: 0;"">Is there a person in this image?</p>
                    </div>
                </div>","0","main_experiment_trial","8","supermarket_scheme","schematic_sequence","","","","",""
"","","","","","html-keyboard-response","54","4602598","0.0-54.0","ECF154619CDF40F4B4F35C09126CAE01","019cf0b8-7e71-710f-a4ad-b3b02663bc43","019cf037-5203-781a-b900-108ccb1cab86","","null","
                <div class=""stimulus-container"">
                    <img src=""images/schematic_sequence/supermarket_scheme/supermarket_scheme_9.png"" class=""exp-image"">
                    <div class=""question-area""></div> 
                </div>","null","","","","","","","","",""
"","","","","","html-button-response","55","4604111","0.0-55.0","ECF154619CDF40F4B4F35C09126CAE01","019cf0b8-7e71-710f-a4ad-b3b02663bc43","019cf037-5203-781a-b900-108ccb1cab86","","1513","
                <div class=""stimulus-container"">
                    <img src=""images/schematic_sequence/supermarket_scheme/supermarket_scheme_9.png"" class=""exp-image"">
                    <div class=""question-area"">
                        <p style=""font-size: 20px; font-weight: bold; margin: 0;"">Is there a person in this image?</p>
                    </div>
                </div>","0","main_experiment_trial","9","supermarket_scheme","schematic_sequence","","","","",""
"","","","","","html-keyboard-response","56","4609346","0.0-56.0","ECF154619CDF40F4B4F35C09126CAE01","019cf0b8-7e71-710f-a4ad-b3b02663bc43","019cf037-5203-781a-b900-108ccb1cab86","","null","
                <div class=""stimulus-container"">
                    <img src=""images/schematic_sequence/supermarket_scheme/supermarket_scheme_ten.png"" class=""exp-image"">
                    <div class=""question-area""></div> 
                </div>","null","","","","","","","","",""
"","","","","","html-button-response","57","4610730","0.0-57.0","ECF154619CDF40F4B4F35C09126CAE01","019cf0b8-7e71-710f-a4ad-b3b02663bc43","019cf037-5203-781a-b900-108ccb1cab86","","1384","
                <div class=""stimulus-container"">
                    <img src=""images/schematic_sequence/supermarket_scheme/supermarket_scheme_ten.png"" class=""exp-image"">
                    <div class=""question-area"">
                        <p style=""font-size: 20px; font-weight: bold; margin: 0;"">Is there a person in this image?</p>
                    </div>
                </div>","1","main_experiment_trial","ten","supermarket_scheme","schematic_sequence","","","","",""
"","","","","","html-keyboard-response","58","4611746","0.0-58.0","ECF154619CDF40F4B4F35C09126CAE01","019cf0b8-7e71-710f-a4ad-b3b02663bc43","019cf037-5203-781a-b900-108ccb1cab86","","null","<div style=""background-color: white; width: 100vw; height: 100vh;""></div>","null","","","","","","","","",""
"","","","","","html-keyboard-response","59","4616746","0.0-59.0","ECF154619CDF40F4B4F35C09126CAE01","019cf0b8-7e71-710f-a4ad-b3b02663bc43","019cf037-5203-781a-b900-108ccb1cab86","","null","
                <div class=""stimulus-container"">
                    <img src=""images/causal_sequence/saving_a_cat_causal/saving_a_cat_causal_1.png"" class=""exp-image"">
                    <div class=""question-area""></div> 
                </div>","null","","","","","","","","",""
"","","","","","html-button-response","60","4617369","0.0-60.0","ECF154619CDF40F4B4F35C09126CAE01","019cf0b8-7e71-710f-a4ad-b3b02663bc43","019cf037-5203-781a-b900-108ccb1cab86","","623","
                <div class=""stimulus-container"">
                    <img src=""images/causal_sequence/saving_a_cat_causal/saving_a_cat_causal_1.png"" class=""exp-image"">
                    <div class=""question-area"">
                        <p style=""font-size: 20px; font-weight: bold; margin: 0;"">Is there a person in this image?</p>
                    </div>
                </div>","0","main_experiment_trial","1","saving_a_cat_causal","causal_sequence","","","","",""
"","","","","","html-keyboard-response","61","4622382","0.0-61.0","ECF154619CDF40F4B4F35C09126CAE01","019cf0b8-7e71-710f-a4ad-b3b02663bc43","019cf037-5203-781a-b900-108ccb1cab86","","null","
                <div class=""stimulus-container"">
                    <img src=""images/causal_sequence/saving_a_cat_causal/saving_a_cat_causal_2.png"" class=""exp-image"">
                    <div class=""question-area""></div> 
                </div>","null","","","","","","","","",""
"","","","","","html-button-response","62","4624439","0.0-62.0","ECF154619CDF40F4B4F35C09126CAE01","019cf0b8-7e71-710f-a4ad-b3b02663bc43","019cf037-5203-781a-b900-108ccb1cab86","","2057","
                <div class=""stimulus-container"">
                    <img src=""images/causal_sequence/saving_a_cat_causal/saving_a_cat_causal_2.png"" class=""exp-image"">
                    <div class=""question-area"">
                        <p style=""font-size: 20px; font-weight: bold; margin: 0;"">Is there a person in this image?</p>
                    </div>
                </div>","1","main_experiment_trial","2","saving_a_cat_causal","causal_sequence","","","","",""
"","","","","","html-keyboard-response","63","4629444","0.0-63.0","ECF154619CDF40F4B4F35C09126CAE01","019cf0b8-7e71-710f-a4ad-b3b02663bc43","019cf037-5203-781a-b900-108ccb1cab86","","null","
                <div class=""stimulus-container"">
                    <img src=""images/causal_sequence/saving_a_cat_causal/saving_a_cat_causal_3.png"" class=""exp-image"">
                    <div class=""question-area""></div> 
                </div>","null","","","","","","","","",""
"","","","","","html-button-response","64","4630734","0.0-64.0","ECF154619CDF40F4B4F35C09126CAE01","019cf0b8-7e71-710f-a4ad-b3b02663bc43","019cf037-5203-781a-b900-108ccb1cab86","","1290","
                <div class=""stimulus-container"">
                    <img src=""images/causal_sequence/saving_a_cat_causal/saving_a_cat_causal_3.png"" class=""exp-image"">
                    <div class=""question-area"">
                        <p style=""font-size: 20px; font-weight: bold; margin: 0;"">Is there a person in this image?</p>
                    </div>
                </div>","1","main_experiment_trial","3","saving_a_cat_causal","causal_sequence","","","","",""
"","","","","","html-keyboard-response","65","4636042","0.0-65.0","ECF154619CDF40F4B4F35C09126CAE01","019cf0b8-7e71-710f-a4ad-b3b02663bc43","019cf037-5203-781a-b900-108ccb1cab86","","null","
                <div class=""stimulus-container"">
                    <img src=""images/causal_sequence/saving_a_cat_causal/saving_a_cat_causal_4.png"" class=""exp-image"">
                    <div class=""question-area""></div> 
                </div>","null","","","","","","","","",""
"","","","","","html-button-response","66","4637415","0.0-66.0","ECF154619CDF40F4B4F35C09126CAE01","019cf0b8-7e71-710f-a4ad-b3b02663bc43","019cf037-5203-781a-b900-108ccb1cab86","","1373","
                <div class=""stimulus-container"">
                    <img src=""images/causal_sequence/saving_a_cat_causal/saving_a_cat_causal_4.png"" class=""exp-image"">
                    <div class=""question-area"">
                        <p style=""font-size: 20px; font-weight: bold; margin: 0;"">Is there a person in this image?</p>
                    </div>
                </div>","0","main_experiment_trial","4","saving_a_cat_causal","causal_sequence","","","","",""
"","","","","","html-keyboard-response","67","4642423","0.0-67.0","ECF154619CDF40F4B4F35C09126CAE01","019cf0b8-7e71-710f-a4ad-b3b02663bc43","019cf037-5203-781a-b900-108ccb1cab86","","null","
                <div class=""stimulus-container"">
                    <img src=""images/causal_sequence/saving_a_cat_causal/saving_a_cat_causal_5.png"" class=""exp-image"">
                    <div class=""question-area""></div> 
                </div>","null","","","","","","","","",""
"","","","","","html-button-response","68","4642840","0.0-68.0","ECF154619CDF40F4B4F35C09126CAE01","019cf0b8-7e71-710f-a4ad-b3b02663bc43","019cf037-5203-781a-b900-108ccb1cab86","","417","
                <div class=""stimulus-container"">
                    <img src=""images/causal_sequence/saving_a_cat_causal/saving_a_cat_causal_5.png"" class=""exp-image"">
                    <div class=""question-area"">
                        <p style=""font-size: 20px; font-weight: bold; margin: 0;"">Is there a person in this image?</p>
                    </div>
                </div>","0","main_experiment_trial","5","saving_a_cat_causal","causal_sequence","","","","",""
"","","","","","html-keyboard-response","69","4647841","0.0-69.0","ECF154619CDF40F4B4F35C09126CAE01","019cf0b8-7e71-710f-a4ad-b3b02663bc43","019cf037-5203-781a-b900-108ccb1cab86","","null","
                <div class=""stimulus-container"">
                    <img src=""images/causal_sequence/saving_a_cat_causal/saving_a_cat_causal_6.png"" class=""exp-image"">
                    <div class=""question-area""></div> 
                </div>","null","","","","","","","","",""
"","","","","","html-button-response","70","4648451","0.0-70.0","ECF154619CDF40F4B4F35C09126CAE01","019cf0b8-7e71-710f-a4ad-b3b02663bc43","019cf037-5203-781a-b900-108ccb1cab86","","610","
                <div class=""stimulus-container"">
                    <img src=""images/causal_sequence/saving_a_cat_causal/saving_a_cat_causal_6.png"" class=""exp-image"">
                    <div class=""question-area"">
                        <p style=""font-size: 20px; font-weight: bold; margin: 0;"">Is there a person in this image?</p>
                    </div>
                </div>","0","main_experiment_trial","6","saving_a_cat_causal","causal_sequence","","","","",""
"","","","","","html-keyboard-response","71","4653465","0.0-71.0","ECF154619CDF40F4B4F35C09126CAE01","019cf0b8-7e71-710f-a4ad-b3b02663bc43","019cf037-5203-781a-b900-108ccb1cab86","","null","
                <div class=""stimulus-container"">
                    <img src=""images/causal_sequence/saving_a_cat_causal/saving_a_cat_causal_7.png"" class=""exp-image"">
                    <div class=""question-area""></div> 
                </div>","null","","","","","","","","",""
"","","","","","html-button-response","72","4654788","0.0-72.0","ECF154619CDF40F4B4F35C09126CAE01","019cf0b8-7e71-710f-a4ad-b3b02663bc43","019cf037-5203-781a-b900-108ccb1cab86","","1324","
                <div class=""stimulus-container"">
                    <img src=""images/causal_sequence/saving_a_cat_causal/saving_a_cat_causal_7.png"" class=""exp-image"">
                    <div class=""question-area"">
                        <p style=""font-size: 20px; font-weight: bold; margin: 0;"">Is there a person in this image?</p>
                    </div>
                </div>","0","main_experiment_trial","7","saving_a_cat_causal","causal_sequence","","","","",""
"","","","","","html-keyboard-response","73","4659789","0.0-73.0","ECF154619CDF40F4B4F35C09126CAE01","019cf0b8-7e71-710f-a4ad-b3b02663bc43","019cf037-5203-781a-b900-108ccb1cab86","","null","
                <div class=""stimulus-container"">
                    <img src=""images/causal_sequence/saving_a_cat_causal/saving_a_cat_causal_8.png"" class=""exp-image"">
                    <div class=""question-area""></div> 
                </div>","null","","","","","","","","",""
"","","","","","html-button-response","74","4660779","0.0-74.0","ECF154619CDF40F4B4F35C09126CAE01","019cf0b8-7e71-710f-a4ad-b3b02663bc43","019cf037-5203-781a-b900-108ccb1cab86","","990","
                <div class=""stimulus-container"">
                    <img src=""images/causal_sequence/saving_a_cat_causal/saving_a_cat_causal_8.png"" class=""exp-image"">
                    <div class=""question-area"">
                        <p style=""font-size: 20px; font-weight: bold; margin: 0;"">Is there a person in this image?</p>
                    </div>
                </div>","0","main_experiment_trial","8","saving_a_cat_causal","causal_sequence","","","","",""
"","","","","","html-keyboard-response","75","4665780","0.0-75.0","ECF154619CDF40F4B4F35C09126CAE01","019cf0b8-7e71-710f-a4ad-b3b02663bc43","019cf037-5203-781a-b900-108ccb1cab86","","null","
                <div class=""stimulus-container"">
                    <img src=""images/causal_sequence/saving_a_cat_causal/saving_a_cat_causal_9.png"" class=""exp-image"">
                    <div class=""question-area""></div> 
                </div>","null","","","","","","","","",""
"","","","","","html-button-response","76","4666231","0.0-76.0","ECF154619CDF40F4B4F35C09126CAE01","019cf0b8-7e71-710f-a4ad-b3b02663bc43","019cf037-5203-781a-b900-108ccb1cab86","","451","
                <div class=""stimulus-container"">
                    <img src=""images/causal_sequence/saving_a_cat_causal/saving_a_cat_causal_9.png"" class=""exp-image"">
                    <div class=""question-area"">
                        <p style=""font-size: 20px; font-weight: bold; margin: 0;"">Is there a person in this image?</p>
                    </div>
                </div>","0","main_experiment_trial","9","saving_a_cat_causal","causal_sequence","","","","",""
"","","","","","html-keyboard-response","77","4671233","0.0-77.0","ECF154619CDF40F4B4F35C09126CAE01","019cf0b8-7e71-710f-a4ad-b3b02663bc43","019cf037-5203-781a-b900-108ccb1cab86","","null","
                <div class=""stimulus-container"">
                    <img src=""images/causal_sequence/saving_a_cat_causal/saving_a_cat_causal_ten.png"" class=""exp-image"">
                    <div class=""question-area""></div> 
                </div>","null","","","","","","","","",""
"","","","","","html-button-response","78","4671641","0.0-78.0","ECF154619CDF40F4B4F35C09126CAE01","019cf0b8-7e71-710f-a4ad-b3b02663bc43","019cf037-5203-781a-b900-108ccb1cab86","","408","
                <div class=""stimulus-container"">
                    <img src=""images/causal_sequence/saving_a_cat_causal/saving_a_cat_causal_ten.png"" class=""exp-image"">
                    <div class=""question-area"">
                        <p style=""font-size: 20px; font-weight: bold; margin: 0;"">Is there a person in this image?</p>
                    </div>
                </div>","0","main_experiment_trial","ten","saving_a_cat_causal","causal_sequence","","","","",""
"","","","","","html-keyboard-response","79","4672644","0.0-79.0","ECF154619CDF40F4B4F35C09126CAE01","019cf0b8-7e71-710f-a4ad-b3b02663bc43","019cf037-5203-781a-b900-108ccb1cab86","","null","<div style=""background-color: white; width: 100vw; height: 100vh;""></div>","null","","","","","","","","",""
"","","","","","html-keyboard-response","80","4677656","0.0-80.0","ECF154619CDF40F4B4F35C09126CAE01","019cf0b8-7e71-710f-a4ad-b3b02663bc43","019cf037-5203-781a-b900-108ccb1cab86","","null","
                <div class=""stimulus-container"">
                    <img src=""images/causal_sequence/museum_causal/museum_causal_1.png"" class=""exp-image"">
                    <div class=""question-area""></div> 
                </div>","null","","","","","","","","",""
"","","","","","html-button-response","81","4678417","0.0-81.0","ECF154619CDF40F4B4F35C09126CAE01","019cf0b8-7e71-710f-a4ad-b3b02663bc43","019cf037-5203-781a-b900-108ccb1cab86","","760","
                <div class=""stimulus-container"">
                    <img src=""images/causal_sequence/museum_causal/museum_causal_1.png"" class=""exp-image"">
                    <div class=""question-area"">
                        <p style=""font-size: 20px; font-weight: bold; margin: 0;"">Is there a person in this image?</p>
                    </div>
                </div>","0","main_experiment_trial","1","museum_causal","causal_sequence","","","","",""
"","","","","","html-keyboard-response","82","4683427","0.0-82.0","ECF154619CDF40F4B4F35C09126CAE01","019cf0b8-7e71-710f-a4ad-b3b02663bc43","019cf037-5203-781a-b900-108ccb1cab86","","null","
                <div class=""stimulus-container"">
                    <img src=""images/causal_sequence/museum_causal/museum_causal_2.png"" class=""exp-image"">
                    <div class=""question-area""></div> 
                </div>","null","","","","","","","","",""
"","","","","","html-button-response","83","4684551","0.0-83.0","ECF154619CDF40F4B4F35C09126CAE01","019cf0b8-7e71-710f-a4ad-b3b02663bc43","019cf037-5203-781a-b900-108ccb1cab86","","1123","
                <div class=""stimulus-container"">
                    <img src=""images/causal_sequence/museum_causal/museum_causal_2.png"" class=""exp-image"">
                    <div class=""question-area"">
                        <p style=""font-size: 20px; font-weight: bold; margin: 0;"">Is there a person in this image?</p>
                    </div>
                </div>","0","main_experiment_trial","2","museum_causal","causal_sequence","","","","",""
"","","","","","html-keyboard-response","84","4689560","0.0-84.0","ECF154619CDF40F4B4F35C09126CAE01","019cf0b8-7e71-710f-a4ad-b3b02663bc43","019cf037-5203-781a-b900-108ccb1cab86","","null","
                <div class=""stimulus-container"">
                    <img src=""images/causal_sequence/museum_causal/museum_causal_3.png"" class=""exp-image"">
                    <div class=""question-area""></div> 
                </div>","null","","","","","","","","",""
"","","","","","html-button-response","85","4690253","0.0-85.0","ECF154619CDF40F4B4F35C09126CAE01","019cf0b8-7e71-710f-a4ad-b3b02663bc43","019cf037-5203-781a-b900-108ccb1cab86","","693","
                <div class=""stimulus-container"">
                    <img src=""images/causal_sequence/museum_causal/museum_causal_3.png"" class=""exp-image"">
                    <div class=""question-area"">
                        <p style=""font-size: 20px; font-weight: bold; margin: 0;"">Is there a person in this image?</p>
                    </div>
                </div>","0","main_experiment_trial","3","museum_causal","causal_sequence","","","","",""
"","","","","","html-keyboard-response","86","4695266","0.0-86.0","ECF154619CDF40F4B4F35C09126CAE01","019cf0b8-7e71-710f-a4ad-b3b02663bc43","019cf037-5203-781a-b900-108ccb1cab86","","null","
                <div class=""stimulus-container"">
                    <img src=""images/causal_sequence/museum_causal/museum_causal_4.png"" class=""exp-image"">
                    <div class=""question-area""></div> 
                </div>","null","","","","","","","","",""
"","","","","","html-button-response","87","4697237","0.0-87.0","ECF154619CDF40F4B4F35C09126CAE01","019cf0b8-7e71-710f-a4ad-b3b02663bc43","019cf037-5203-781a-b900-108ccb1cab86","","1970","
                <div class=""stimulus-container"">
                    <img src=""images/causal_sequence/museum_causal/museum_causal_4.png"" class=""exp-image"">
                    <div class=""question-area"">
                        <p style=""font-size: 20px; font-weight: bold; margin: 0;"">Is there a person in this image?</p>
                    </div>
                </div>","1","main_experiment_trial","4","museum_causal","causal_sequence","","","","",""
"","","","","","html-keyboard-response","88","4702244","0.0-88.0","ECF154619CDF40F4B4F35C09126CAE01","019cf0b8-7e71-710f-a4ad-b3b02663bc43","019cf037-5203-781a-b900-108ccb1cab86","","null","
                <div class=""stimulus-container"">
                    <img src=""images/causal_sequence/museum_causal/museum_causal_5.png"" class=""exp-image"">
                    <div class=""question-area""></div> 
                </div>","null","","","","","","","","",""
"","","","","","html-button-response","89","4704595","0.0-89.0","ECF154619CDF40F4B4F35C09126CAE01","019cf0b8-7e71-710f-a4ad-b3b02663bc43","019cf037-5203-781a-b900-108ccb1cab86","","2350","
                <div class=""stimulus-container"">
                    <img src=""images/causal_sequence/museum_causal/museum_causal_5.png"" class=""exp-image"">
                    <div class=""question-area"">
                        <p style=""font-size: 20px; font-weight: bold; margin: 0;"">Is there a person in this image?</p>
                    </div>
                </div>","0","main_experiment_trial","5","museum_causal","causal_sequence","","","","",""
"","","","","","html-keyboard-response","90","4709606","0.0-90.0","ECF154619CDF40F4B4F35C09126CAE01","019cf0b8-7e71-710f-a4ad-b3b02663bc43","019cf037-5203-781a-b900-108ccb1cab86","","null","
                <div class=""stimulus-container"">
                    <img src=""images/causal_sequence/museum_causal/museum_causal_6.png"" class=""exp-image"">
                    <div class=""question-area""></div> 
                </div>","null","","","","","","","","",""
"","","","","","html-button-response","91","4711944","0.0-91.0","ECF154619CDF40F4B4F35C09126CAE01","019cf0b8-7e71-710f-a4ad-b3b02663bc43","019cf037-5203-781a-b900-108ccb1cab86","","2338","
                <div class=""stimulus-container"">
                    <img src=""images/causal_sequence/museum_causal/museum_causal_6.png"" class=""exp-image"">
                    <div class=""question-area"">
                        <p style=""font-size: 20px; font-weight: bold; margin: 0;"">Is there a person in this image?</p>
                    </div>
                </div>","0","main_experiment_trial","6","museum_causal","causal_sequence","","","","",""
"","","","","","html-keyboard-response","92","4716954","0.0-92.0","ECF154619CDF40F4B4F35C09126CAE01","019cf0b8-7e71-710f-a4ad-b3b02663bc43","019cf037-5203-781a-b900-108ccb1cab86","","null","
                <div class=""stimulus-container"">
                    <img src=""images/causal_sequence/museum_causal/museum_causal_7.png"" class=""exp-image"">
                    <div class=""question-area""></div> 
                </div>","null","","","","","","","","",""
"","","","","","html-button-response","93","4718036","0.0-93.0","ECF154619CDF40F4B4F35C09126CAE01","019cf0b8-7e71-710f-a4ad-b3b02663bc43","019cf037-5203-781a-b900-108ccb1cab86","","1082","
                <div class=""stimulus-container"">
                    <img src=""images/causal_sequence/museum_causal/museum_causal_7.png"" class=""exp-image"">
                    <div class=""question-area"">
                        <p style=""font-size: 20px; font-weight: bold; margin: 0;"">Is there a person in this image?</p>
                    </div>
                </div>","1","main_experiment_trial","7","museum_causal","causal_sequence","","","","",""
"","","","","","html-keyboard-response","94","4723048","0.0-94.0","ECF154619CDF40F4B4F35C09126CAE01","019cf0b8-7e71-710f-a4ad-b3b02663bc43","019cf037-5203-781a-b900-108ccb1cab86","","null","
                <div class=""stimulus-container"">
                    <img src=""images/causal_sequence/museum_causal/museum_causal_8.png"" class=""exp-image"">
                    <div class=""question-area""></div> 
                </div>","null","","","","","","","","",""
"","","","","","html-button-response","95","4724624","0.0-95.0","ECF154619CDF40F4B4F35C09126CAE01","019cf0b8-7e71-710f-a4ad-b3b02663bc43","019cf037-5203-781a-b900-108ccb1cab86","","1575","
                <div class=""stimulus-container"">
                    <img src=""images/causal_sequence/museum_causal/museum_causal_8.png"" class=""exp-image"">
                    <div class=""question-area"">
                        <p style=""font-size: 20px; font-weight: bold; margin: 0;"">Is there a person in this image?</p>
                    </div>
                </div>","0","main_experiment_trial","8","museum_causal","causal_sequence","","","","",""
"","","","","","html-keyboard-response","96","4729640","0.0-96.0","ECF154619CDF40F4B4F35C09126CAE01","019cf0b8-7e71-710f-a4ad-b3b02663bc43","019cf037-5203-781a-b900-108ccb1cab86","","null","
                <div class=""stimulus-container"">
                    <img src=""images/causal_sequence/museum_causal/museum_causal_9.png"" class=""exp-image"">
                    <div class=""question-area""></div> 
                </div>","null","","","","","","","","",""
"","","","","","html-button-response","97","4730988","0.0-97.0","ECF154619CDF40F4B4F35C09126CAE01","019cf0b8-7e71-710f-a4ad-b3b02663bc43","019cf037-5203-781a-b900-108ccb1cab86","","1348","
                <div class=""stimulus-container"">
                    <img src=""images/causal_sequence/museum_causal/museum_causal_9.png"" class=""exp-image"">
                    <div class=""question-area"">
                        <p style=""font-size: 20px; font-weight: bold; margin: 0;"">Is there a person in this image?</p>
                    </div>
                </div>","1","main_experiment_trial","9","museum_causal","causal_sequence","","","","",""
"","","","","","html-keyboard-response","98","4735989","0.0-98.0","ECF154619CDF40F4B4F35C09126CAE01","019cf0b8-7e71-710f-a4ad-b3b02663bc43","019cf037-5203-781a-b900-108ccb1cab86","","null","
                <div class=""stimulus-container"">
                    <img src=""images/causal_sequence/museum_causal/museum_causal_ten.png"" class=""exp-image"">
                    <div class=""question-area""></div> 
                </div>","null","","","","","","","","",""
"","","","","","html-button-response","99","4737449","0.0-99.0","ECF154619CDF40F4B4F35C09126CAE01","019cf0b8-7e71-710f-a4ad-b3b02663bc43","019cf037-5203-781a-b900-108ccb1cab86","","1459","
                <div class=""stimulus-container"">
                    <img src=""images/causal_sequence/museum_causal/museum_causal_ten.png"" class=""exp-image"">
                    <div class=""question-area"">
                        <p style=""font-size: 20px; font-weight: bold; margin: 0;"">Is there a person in this image?</p>
                    </div>
                </div>","0","main_experiment_trial","ten","museum_causal","causal_sequence","","","","",""
"","","","","","html-keyboard-response","100","4738455","0.0-100.0","ECF154619CDF40F4B4F35C09126CAE01","019cf0b8-7e71-710f-a4ad-b3b02663bc43","019cf037-5203-781a-b900-108ccb1cab86","","null","<div style=""background-color: white; width: 100vw; height: 100vh;""></div>","null","","","","","","","","",""
"","","","","","html-keyboard-response","101","4743456","0.0-101.0","ECF154619CDF40F4B4F35C09126CAE01","019cf0b8-7e71-710f-a4ad-b3b02663bc43","019cf037-5203-781a-b900-108ccb1cab86","","null","
                <div class=""stimulus-container"">
                    <img src=""images/schematic_sequence/interview_scheme/interview_scheme_1.png"" class=""exp-image"">
                    <div class=""question-area""></div> 
                </div>","null","","","","","","","","",""
"","","","","","html-button-response","102","4744275","0.0-102.0","ECF154619CDF40F4B4F35C09126CAE01","019cf0b8-7e71-710f-a4ad-b3b02663bc43","019cf037-5203-781a-b900-108ccb1cab86","","818","
                <div class=""stimulus-container"">
                    <img src=""images/schematic_sequence/interview_scheme/interview_scheme_1.png"" class=""exp-image"">
                    <div class=""question-area"">
                        <p style=""font-size: 20px; font-weight: bold; margin: 0;"">Is there a person in this image?</p>
                    </div>
                </div>","1","main_experiment_trial","1","interview_scheme","schematic_sequence","","","","",""
"","","","","","html-keyboard-response","103","4749288","0.0-103.0","ECF154619CDF40F4B4F35C09126CAE01","019cf0b8-7e71-710f-a4ad-b3b02663bc43","019cf037-5203-781a-b900-108ccb1cab86","","null","
                <div class=""stimulus-container"">
                    <img src=""images/schematic_sequence/interview_scheme/interview_scheme_2.png"" class=""exp-image"">
                    <div class=""question-area""></div> 
                </div>","null","","","","","","","","",""
"","","","","","html-button-response","104","4749736","0.0-104.0","ECF154619CDF40F4B4F35C09126CAE01","019cf0b8-7e71-710f-a4ad-b3b02663bc43","019cf037-5203-781a-b900-108ccb1cab86","","448","
                <div class=""stimulus-container"">
                    <img src=""images/schematic_sequence/interview_scheme/interview_scheme_2.png"" class=""exp-image"">
                    <div class=""question-area"">
                        <p style=""font-size: 20px; font-weight: bold; margin: 0;"">Is there a person in this image?</p>
                    </div>
                </div>","1","main_experiment_trial","2","interview_scheme","schematic_sequence","","","","",""
"","","","","","html-keyboard-response","105","4754737","0.0-105.0","ECF154619CDF40F4B4F35C09126CAE01","019cf0b8-7e71-710f-a4ad-b3b02663bc43","019cf037-5203-781a-b900-108ccb1cab86","","null","
                <div class=""stimulus-container"">
                    <img src=""images/schematic_sequence/interview_scheme/interview_scheme_3.png"" class=""exp-image"">
                    <div class=""question-area""></div> 
                </div>","null","","","","","","","","",""
"","","","","","html-button-response","106","4755272","0.0-106.0","ECF154619CDF40F4B4F35C09126CAE01","019cf0b8-7e71-710f-a4ad-b3b02663bc43","019cf037-5203-781a-b900-108ccb1cab86","","535","
                <div class=""stimulus-container"">
                    <img src=""images/schematic_sequence/interview_scheme/interview_scheme_3.png"" class=""exp-image"">
                    <div class=""question-area"">
                        <p style=""font-size: 20px; font-weight: bold; margin: 0;"">Is there a person in this image?</p>
                    </div>
                </div>","1","main_experiment_trial","3","interview_scheme","schematic_sequence","","","","",""
"","","","","","html-keyboard-response","107","4760273","0.0-107.0","ECF154619CDF40F4B4F35C09126CAE01","019cf0b8-7e71-710f-a4ad-b3b02663bc43","019cf037-5203-781a-b900-108ccb1cab86","","null","
                <div class=""stimulus-container"">
                    <img src=""images/schematic_sequence/interview_scheme/interview_scheme_4.png"" class=""exp-image"">
                    <div class=""question-area""></div> 
                </div>","null","","","","","","","","",""
"","","","","","html-button-response","108","4761247","0.0-108.0","ECF154619CDF40F4B4F35C09126CAE01","019cf0b8-7e71-710f-a4ad-b3b02663bc43","019cf037-5203-781a-b900-108ccb1cab86","","973","
                <div class=""stimulus-container"">
                    <img src=""images/schematic_sequence/interview_scheme/interview_scheme_4.png"" class=""exp-image"">
                    <div class=""question-area"">
                        <p style=""font-size: 20px; font-weight: bold; margin: 0;"">Is there a person in this image?</p>
                    </div>
                </div>","1","main_experiment_trial","4","interview_scheme","schematic_sequence","","","","",""
"","","","","","html-keyboard-response","109","4766248","0.0-109.0","ECF154619CDF40F4B4F35C09126CAE01","019cf0b8-7e71-710f-a4ad-b3b02663bc43","019cf037-5203-781a-b900-108ccb1cab86","","null","
                <div class=""stimulus-container"">
                    <img src=""images/schematic_sequence/interview_scheme/interview_scheme_5.png"" class=""exp-image"">
                    <div class=""question-area""></div> 
                </div>","null","","","","","","","","",""
"","","","","","html-button-response","110","4766751","0.0-110.0","ECF154619CDF40F4B4F35C09126CAE01","019cf0b8-7e71-710f-a4ad-b3b02663bc43","019cf037-5203-781a-b900-108ccb1cab86","","503","
                <div class=""stimulus-container"">
                    <img src=""images/schematic_sequence/interview_scheme/interview_scheme_5.png"" class=""exp-image"">
                    <div class=""question-area"">
                        <p style=""font-size: 20px; font-weight: bold; margin: 0;"">Is there a person in this image?</p>
                    </div>
                </div>","0","main_experiment_trial","5","interview_scheme","schematic_sequence","","","","",""
"","","","","","html-keyboard-response","111","4771764","0.0-111.0","ECF154619CDF40F4B4F35C09126CAE01","019cf0b8-7e71-710f-a4ad-b3b02663bc43","019cf037-5203-781a-b900-108ccb1cab86","","null","
                <div class=""stimulus-container"">
                    <img src=""images/schematic_sequence/interview_scheme/interview_scheme_6.png"" class=""exp-image"">
                    <div class=""question-area""></div> 
                </div>","null","","","","","","","","",""
"","","","","","html-button-response","112","4772735","0.0-112.0","ECF154619CDF40F4B4F35C09126CAE01","019cf0b8-7e71-710f-a4ad-b3b02663bc43","019cf037-5203-781a-b900-108ccb1cab86","","971","
                <div class=""stimulus-container"">
                    <img src=""images/schematic_sequence/interview_scheme/interview_scheme_6.png"" class=""exp-image"">
                    <div class=""question-area"">
                        <p style=""font-size: 20px; font-weight: bold; margin: 0;"">Is there a person in this image?</p>
                    </div>
                </div>","0","main_experiment_trial","6","interview_scheme","schematic_sequence","","","","",""
"","","","","","html-keyboard-response","113","4777736","0.0-113.0","ECF154619CDF40F4B4F35C09126CAE01","019cf0b8-7e71-710f-a4ad-b3b02663bc43","019cf037-5203-781a-b900-108ccb1cab86","","null","
                <div class=""stimulus-container"">
                    <img src=""images/schematic_sequence/interview_scheme/interview_scheme_7.png"" class=""exp-image"">
                    <div class=""question-area""></div> 
                </div>","null","","","","","","","","",""
"","","","","","html-button-response","114","4778120","0.0-114.0","ECF154619CDF40F4B4F35C09126CAE01","019cf0b8-7e71-710f-a4ad-b3b02663bc43","019cf037-5203-781a-b900-108ccb1cab86","","383","
                <div class=""stimulus-container"">
                    <img src=""images/schematic_sequence/interview_scheme/interview_scheme_7.png"" class=""exp-image"">
                    <div class=""question-area"">
                        <p style=""font-size: 20px; font-weight: bold; margin: 0;"">Is there a person in this image?</p>
                    </div>
                </div>","0","main_experiment_trial","7","interview_scheme","schematic_sequence","","","","",""
"","","","","","html-keyboard-response","115","4783136","0.0-115.0","ECF154619CDF40F4B4F35C09126CAE01","019cf0b8-7e71-710f-a4ad-b3b02663bc43","019cf037-5203-781a-b900-108ccb1cab86","","null","
                <div class=""stimulus-container"">
                    <img src=""images/schematic_sequence/interview_scheme/interview_scheme_8.png"" class=""exp-image"">
                    <div class=""question-area""></div> 
                </div>","null","","","","","","","","",""
"","","","","","html-button-response","116","4783593","0.0-116.0","ECF154619CDF40F4B4F35C09126CAE01","019cf0b8-7e71-710f-a4ad-b3b02663bc43","019cf037-5203-781a-b900-108ccb1cab86","","457","
                <div class=""stimulus-container"">
                    <img src=""images/schematic_sequence/interview_scheme/interview_scheme_8.png"" class=""exp-image"">
                    <div class=""question-area"">
                        <p style=""font-size: 20px; font-weight: bold; margin: 0;"">Is there a person in this image?</p>
                    </div>
                </div>","0","main_experiment_trial","8","interview_scheme","schematic_sequence","","","","",""
"","","","","","html-keyboard-response","117","4788604","0.0-117.0","ECF154619CDF40F4B4F35C09126CAE01","019cf0b8-7e71-710f-a4ad-b3b02663bc43","019cf037-5203-781a-b900-108ccb1cab86","","null","
                <div class=""stimulus-container"">
                    <img src=""images/schematic_sequence/interview_scheme/interview_scheme_9.png"" class=""exp-image"">
                    <div class=""question-area""></div> 
                </div>","null","","","","","","","","",""
"","","","","","html-button-response","118","4789257","0.0-118.0","ECF154619CDF40F4B4F35C09126CAE01","019cf0b8-7e71-710f-a4ad-b3b02663bc43","019cf037-5203-781a-b900-108ccb1cab86","","654","
                <div class=""stimulus-container"">
                    <img src=""images/schematic_sequence/interview_scheme/interview_scheme_9.png"" class=""exp-image"">
                    <div class=""question-area"">
                        <p style=""font-size: 20px; font-weight: bold; margin: 0;"">Is there a person in this image?</p>
                    </div>
                </div>","0","main_experiment_trial","9","interview_scheme","schematic_sequence","","","","",""
"","","","","","html-keyboard-response","119","4794259","0.0-119.0","ECF154619CDF40F4B4F35C09126CAE01","019cf0b8-7e71-710f-a4ad-b3b02663bc43","019cf037-5203-781a-b900-108ccb1cab86","","null","
                <div class=""stimulus-container"">
                    <img src=""images/schematic_sequence/interview_scheme/interview_scheme_ten.png"" class=""exp-image"">
                    <div class=""question-area""></div> 
                </div>","null","","","","","","","","",""
"","","","","","html-button-response","120","4795109","0.0-120.0","ECF154619CDF40F4B4F35C09126CAE01","019cf0b8-7e71-710f-a4ad-b3b02663bc43","019cf037-5203-781a-b900-108ccb1cab86","","850","
                <div class=""stimulus-container"">
                    <img src=""images/schematic_sequence/interview_scheme/interview_scheme_ten.png"" class=""exp-image"">
                    <div class=""question-area"">
                        <p style=""font-size: 20px; font-weight: bold; margin: 0;"">Is there a person in this image?</p>
                    </div>
                </div>","0","main_experiment_trial","ten","interview_scheme","schematic_sequence","","","","",""
"","","","","","html-keyboard-response","121","4796111","0.0-121.0","ECF154619CDF40F4B4F35C09126CAE01","019cf0b8-7e71-710f-a4ad-b3b02663bc43","019cf037-5203-781a-b900-108ccb1cab86","","null","<div style=""background-color: white; width: 100vw; height: 100vh;""></div>","null","","","","","","","","",""
"","","","","","html-keyboard-response","122","4801112","0.0-122.0","ECF154619CDF40F4B4F35C09126CAE01","019cf0b8-7e71-710f-a4ad-b3b02663bc43","019cf037-5203-781a-b900-108ccb1cab86","","null","
                <div class=""stimulus-container"">
                    <img src=""images/causal_sequence/package_causal/package_causal_1.png"" class=""exp-image"">
                    <div class=""question-area""></div> 
                </div>","null","","","","","","","","",""
"","","","","","html-button-response","123","4801617","0.0-123.0","ECF154619CDF40F4B4F35C09126CAE01","019cf0b8-7e71-710f-a4ad-b3b02663bc43","019cf037-5203-781a-b900-108ccb1cab86","","505","
                <div class=""stimulus-container"">
                    <img src=""images/causal_sequence/package_causal/package_causal_1.png"" class=""exp-image"">
                    <div class=""question-area"">
                        <p style=""font-size: 20px; font-weight: bold; margin: 0;"">Is there a person in this image?</p>
                    </div>
                </div>","0","main_experiment_trial","1","package_causal","causal_sequence","","","","",""
"","","","","","html-keyboard-response","124","4806625","0.0-124.0","ECF154619CDF40F4B4F35C09126CAE01","019cf0b8-7e71-710f-a4ad-b3b02663bc43","019cf037-5203-781a-b900-108ccb1cab86","","null","
                <div class=""stimulus-container"">
                    <img src=""images/causal_sequence/package_causal/package_causal_2.png"" class=""exp-image"">
                    <div class=""question-area""></div> 
                </div>","null","","","","","","","","",""
"","","","","","html-button-response","125","4807264","0.0-125.0","ECF154619CDF40F4B4F35C09126CAE01","019cf0b8-7e71-710f-a4ad-b3b02663bc43","019cf037-5203-781a-b900-108ccb1cab86","","639","
                <div class=""stimulus-container"">
                    <img src=""images/causal_sequence/package_causal/package_causal_2.png"" class=""exp-image"">
                    <div class=""question-area"">
                        <p style=""font-size: 20px; font-weight: bold; margin: 0;"">Is there a person in this image?</p>
                    </div>
                </div>","0","main_experiment_trial","2","package_causal","causal_sequence","","","","",""
"","","","","","html-keyboard-response","126","4812265","0.0-126.0","ECF154619CDF40F4B4F35C09126CAE01","019cf0b8-7e71-710f-a4ad-b3b02663bc43","019cf037-5203-781a-b900-108ccb1cab86","","null","
                <div class=""stimulus-container"">
                    <img src=""images/causal_sequence/package_causal/package_causal_3.png"" class=""exp-image"">
                    <div class=""question-area""></div> 
                </div>","null","","","","","","","","",""
"","","","","","html-button-response","127","4812742","0.0-127.0","ECF154619CDF40F4B4F35C09126CAE01","019cf0b8-7e71-710f-a4ad-b3b02663bc43","019cf037-5203-781a-b900-108ccb1cab86","","477","
                <div class=""stimulus-container"">
                    <img src=""images/causal_sequence/package_causal/package_causal_3.png"" class=""exp-image"">
                    <div class=""question-area"">
                        <p style=""font-size: 20px; font-weight: bold; margin: 0;"">Is there a person in this image?</p>
                    </div>
                </div>","0","main_experiment_trial","3","package_causal","causal_sequence","","","","",""
"","","","","","html-keyboard-response","128","4817744","0.0-128.0","ECF154619CDF40F4B4F35C09126CAE01","019cf0b8-7e71-710f-a4ad-b3b02663bc43","019cf037-5203-781a-b900-108ccb1cab86","","null","
                <div class=""stimulus-container"">
                    <img src=""images/causal_sequence/package_causal/package_causal_4.png"" class=""exp-image"">
                    <div class=""question-area""></div> 
                </div>","null","","","","","","","","",""
"","","","","","html-button-response","129","4819440","0.0-129.0","ECF154619CDF40F4B4F35C09126CAE01","019cf0b8-7e71-710f-a4ad-b3b02663bc43","019cf037-5203-781a-b900-108ccb1cab86","","1696","
                <div class=""stimulus-container"">
                    <img src=""images/causal_sequence/package_causal/package_causal_4.png"" class=""exp-image"">
                    <div class=""question-area"">
                        <p style=""font-size: 20px; font-weight: bold; margin: 0;"">Is there a person in this image?</p>
                    </div>
                </div>","1","main_experiment_trial","4","package_causal","causal_sequence","","","","",""
"","","","","","html-keyboard-response","130","4824441","0.0-130.0","ECF154619CDF40F4B4F35C09126CAE01","019cf0b8-7e71-710f-a4ad-b3b02663bc43","019cf037-5203-781a-b900-108ccb1cab86","","null","
                <div class=""stimulus-container"">
                    <img src=""images/causal_sequence/package_causal/package_causal_5.png"" class=""exp-image"">
                    <div class=""question-area""></div> 
                </div>","null","","","","","","","","",""
"","","","","","html-button-response","131","4824907","0.0-131.0","ECF154619CDF40F4B4F35C09126CAE01","019cf0b8-7e71-710f-a4ad-b3b02663bc43","019cf037-5203-781a-b900-108ccb1cab86","","466","
                <div class=""stimulus-container"">
                    <img src=""images/causal_sequence/package_causal/package_causal_5.png"" class=""exp-image"">
                    <div class=""question-area"">
                        <p style=""font-size: 20px; font-weight: bold; margin: 0;"">Is there a person in this image?</p>
                    </div>
                </div>","0","main_experiment_trial","5","package_causal","causal_sequence","","","","",""
"","","","","","html-keyboard-response","132","4830041","0.0-132.0","ECF154619CDF40F4B4F35C09126CAE01","019cf0b8-7e71-710f-a4ad-b3b02663bc43","019cf037-5203-781a-b900-108ccb1cab86","","null","
                <div class=""stimulus-container"">
                    <img src=""images/causal_sequence/package_causal/package_causal_6.png"" class=""exp-image"">
                    <div class=""question-area""></div> 
                </div>","null","","","","","","","","",""
"","","","","","html-button-response","133","4831988","0.0-133.0","ECF154619CDF40F4B4F35C09126CAE01","019cf0b8-7e71-710f-a4ad-b3b02663bc43","019cf037-5203-781a-b900-108ccb1cab86","","1947","
                <div class=""stimulus-container"">
                    <img src=""images/causal_sequence/package_causal/package_causal_6.png"" class=""exp-image"">
                    <div class=""question-area"">
                        <p style=""font-size: 20px; font-weight: bold; margin: 0;"">Is there a person in this image?</p>
                    </div>
                </div>","0","main_experiment_trial","6","package_causal","causal_sequence","","","","",""
"","","","","","html-keyboard-response","134","4837028","0.0-134.0","ECF154619CDF40F4B4F35C09126CAE01","019cf0b8-7e71-710f-a4ad-b3b02663bc43","019cf037-5203-781a-b900-108ccb1cab86","","null","
                <div class=""stimulus-container"">
                    <img src=""images/causal_sequence/package_causal/package_causal_7.png"" class=""exp-image"">
                    <div class=""question-area""></div> 
                </div>","null","","","","","","","","",""
"","","","","","html-button-response","135","4839263","0.0-135.0","ECF154619CDF40F4B4F35C09126CAE01","019cf0b8-7e71-710f-a4ad-b3b02663bc43","019cf037-5203-781a-b900-108ccb1cab86","","2235","
                <div class=""stimulus-container"">
                    <img src=""images/causal_sequence/package_causal/package_causal_7.png"" class=""exp-image"">
                    <div class=""question-area"">
                        <p style=""font-size: 20px; font-weight: bold; margin: 0;"">Is there a person in this image?</p>
                    </div>
                </div>","0","main_experiment_trial","7","package_causal","causal_sequence","","","","",""
"","","","","","html-keyboard-response","136","4844266","0.0-136.0","ECF154619CDF40F4B4F35C09126CAE01","019cf0b8-7e71-710f-a4ad-b3b02663bc43","019cf037-5203-781a-b900-108ccb1cab86","","null","
                <div class=""stimulus-container"">
                    <img src=""images/causal_sequence/package_causal/package_causal_8.png"" class=""exp-image"">
                    <div class=""question-area""></div> 
                </div>","null","","","","","","","","",""
"","","","","","html-button-response","137","4845031","0.0-137.0","ECF154619CDF40F4B4F35C09126CAE01","019cf0b8-7e71-710f-a4ad-b3b02663bc43","019cf037-5203-781a-b900-108ccb1cab86","","765","
                <div class=""stimulus-container"">
                    <img src=""images/causal_sequence/package_causal/package_causal_8.png"" class=""exp-image"">
                    <div class=""question-area"">
                        <p style=""font-size: 20px; font-weight: bold; margin: 0;"">Is there a person in this image?</p>
                    </div>
                </div>","0","main_experiment_trial","8","package_causal","causal_sequence","","","","",""
"","","","","","html-keyboard-response","138","4850034","0.0-138.0","ECF154619CDF40F4B4F35C09126CAE01","019cf0b8-7e71-710f-a4ad-b3b02663bc43","019cf037-5203-781a-b900-108ccb1cab86","","null","
                <div class=""stimulus-container"">
                    <img src=""images/causal_sequence/package_causal/package_causal_9.png"" class=""exp-image"">
                    <div class=""question-area""></div> 
                </div>","null","","","","","","","","",""
"","","","","","html-button-response","139","4850551","0.0-139.0","ECF154619CDF40F4B4F35C09126CAE01","019cf0b8-7e71-710f-a4ad-b3b02663bc43","019cf037-5203-781a-b900-108ccb1cab86","","517","
                <div class=""stimulus-container"">
                    <img src=""images/causal_sequence/package_causal/package_causal_9.png"" class=""exp-image"">
                    <div class=""question-area"">
                        <p style=""font-size: 20px; font-weight: bold; margin: 0;"">Is there a person in this image?</p>
                    </div>
                </div>","0","main_experiment_trial","9","package_causal","causal_sequence","","","","",""
"","","","","","html-keyboard-response","140","4855564","0.0-140.0","ECF154619CDF40F4B4F35C09126CAE01","019cf0b8-7e71-710f-a4ad-b3b02663bc43","019cf037-5203-781a-b900-108ccb1cab86","","null","
                <div class=""stimulus-container"">
                    <img src=""images/causal_sequence/package_causal/package_causal_ten.png"" class=""exp-image"">
                    <div class=""question-area""></div> 
                </div>","null","","","","","","","","",""
"","","","","","html-button-response","141","4856278","0.0-141.0","ECF154619CDF40F4B4F35C09126CAE01","019cf0b8-7e71-710f-a4ad-b3b02663bc43","019cf037-5203-781a-b900-108ccb1cab86","","714","
                <div class=""stimulus-container"">
                    <img src=""images/causal_sequence/package_causal/package_causal_ten.png"" class=""exp-image"">
                    <div class=""question-area"">
                        <p style=""font-size: 20px; font-weight: bold; margin: 0;"">Is there a person in this image?</p>
                    </div>
                </div>","0","main_experiment_trial","ten","package_causal","causal_sequence","","","","",""
"","","","","","html-keyboard-response","142","4857291","0.0-142.0","ECF154619CDF40F4B4F35C09126CAE01","019cf0b8-7e71-710f-a4ad-b3b02663bc43","019cf037-5203-781a-b900-108ccb1cab86","","null","<div style=""background-color: white; width: 100vw; height: 100vh;""></div>","null","","","","","","","","",""
"","","","","","html-keyboard-response","143","4862293","0.0-143.0","ECF154619CDF40F4B4F35C09126CAE01","019cf0b8-7e71-710f-a4ad-b3b02663bc43","019cf037-5203-781a-b900-108ccb1cab86","","null","
                <div class=""stimulus-container"">
                    <img src=""images/schematic_sequence/restaurant_scheme/restaurant_scheme_1.png"" class=""exp-image"">
                    <div class=""question-area""></div> 
                </div>","null","","","","","","","","",""
"","","","","","html-button-response","144","4863643","0.0-144.0","ECF154619CDF40F4B4F35C09126CAE01","019cf0b8-7e71-710f-a4ad-b3b02663bc43","019cf037-5203-781a-b900-108ccb1cab86","","1350","
                <div class=""stimulus-container"">
                    <img src=""images/schematic_sequence/restaurant_scheme/restaurant_scheme_1.png"" class=""exp-image"">
                    <div class=""question-area"">
                        <p style=""font-size: 20px; font-weight: bold; margin: 0;"">Is there a person in this image?</p>
                    </div>
                </div>","0","main_experiment_trial","1","restaurant_scheme","schematic_sequence","","","","",""
"","","","","","html-keyboard-response","145","4868645","0.0-145.0","ECF154619CDF40F4B4F35C09126CAE01","019cf0b8-7e71-710f-a4ad-b3b02663bc43","019cf037-5203-781a-b900-108ccb1cab86","","null","
                <div class=""stimulus-container"">
                    <img src=""images/schematic_sequence/restaurant_scheme/restaurant_scheme_2.png"" class=""exp-image"">
                    <div class=""question-area""></div> 
                </div>","null","","","","","","","","",""
"","","","","","html-button-response","146","4869119","0.0-146.0","ECF154619CDF40F4B4F35C09126CAE01","019cf0b8-7e71-710f-a4ad-b3b02663bc43","019cf037-5203-781a-b900-108ccb1cab86","","475","
                <div class=""stimulus-container"">
                    <img src=""images/schematic_sequence/restaurant_scheme/restaurant_scheme_2.png"" class=""exp-image"">
                    <div class=""question-area"">
                        <p style=""font-size: 20px; font-weight: bold; margin: 0;"">Is there a person in this image?</p>
                    </div>
                </div>","1","main_experiment_trial","2","restaurant_scheme","schematic_sequence","","","","",""
"","","","","","html-keyboard-response","147","4874120","0.0-147.0","ECF154619CDF40F4B4F35C09126CAE01","019cf0b8-7e71-710f-a4ad-b3b02663bc43","019cf037-5203-781a-b900-108ccb1cab86","","null","
                <div class=""stimulus-container"">
                    <img src=""images/schematic_sequence/restaurant_scheme/restaurant_scheme_3.png"" class=""exp-image"">
                    <div class=""question-area""></div> 
                </div>","null","","","","","","","","",""
"","","","","","html-button-response","148","4875053","0.0-148.0","ECF154619CDF40F4B4F35C09126CAE01","019cf0b8-7e71-710f-a4ad-b3b02663bc43","019cf037-5203-781a-b900-108ccb1cab86","","932","
                <div class=""stimulus-container"">
                    <img src=""images/schematic_sequence/restaurant_scheme/restaurant_scheme_3.png"" class=""exp-image"">
                    <div class=""question-area"">
                        <p style=""font-size: 20px; font-weight: bold; margin: 0;"">Is there a person in this image?</p>
                    </div>
                </div>","1","main_experiment_trial","3","restaurant_scheme","schematic_sequence","","","","",""
"","","","","","html-keyboard-response","149","4880055","0.0-149.0","ECF154619CDF40F4B4F35C09126CAE01","019cf0b8-7e71-710f-a4ad-b3b02663bc43","019cf037-5203-781a-b900-108ccb1cab86","","null","
                <div class=""stimulus-container"">
                    <img src=""images/schematic_sequence/restaurant_scheme/restaurant_scheme_4.png"" class=""exp-image"">
                    <div class=""question-area""></div> 
                </div>","null","","","","","","","","",""
"","","","","","html-button-response","150","4880483","0.0-150.0","ECF154619CDF40F4B4F35C09126CAE01","019cf0b8-7e71-710f-a4ad-b3b02663bc43","019cf037-5203-781a-b900-108ccb1cab86","","428","
                <div class=""stimulus-container"">
                    <img src=""images/schematic_sequence/restaurant_scheme/restaurant_scheme_4.png"" class=""exp-image"">
                    <div class=""question-area"">
                        <p style=""font-size: 20px; font-weight: bold; margin: 0;"">Is there a person in this image?</p>
                    </div>
                </div>","0","main_experiment_trial","4","restaurant_scheme","schematic_sequence","","","","",""
"","","","","","html-keyboard-response","151","4885492","0.0-151.0","ECF154619CDF40F4B4F35C09126CAE01","019cf0b8-7e71-710f-a4ad-b3b02663bc43","019cf037-5203-781a-b900-108ccb1cab86","","null","
                <div class=""stimulus-container"">
                    <img src=""images/schematic_sequence/restaurant_scheme/restaurant_scheme_5.png"" class=""exp-image"">
                    <div class=""question-area""></div> 
                </div>","null","","","","","","","","",""
"","","","","","html-button-response","152","4886318","0.0-152.0","ECF154619CDF40F4B4F35C09126CAE01","019cf0b8-7e71-710f-a4ad-b3b02663bc43","019cf037-5203-781a-b900-108ccb1cab86","","826","
                <div class=""stimulus-container"">
                    <img src=""images/schematic_sequence/restaurant_scheme/restaurant_scheme_5.png"" class=""exp-image"">
                    <div class=""question-area"">
                        <p style=""font-size: 20px; font-weight: bold; margin: 0;"">Is there a person in this image?</p>
                    </div>
                </div>","0","main_experiment_trial","5","restaurant_scheme","schematic_sequence","","","","",""
"","","","","","html-keyboard-response","153","4891334","0.0-153.0","ECF154619CDF40F4B4F35C09126CAE01","019cf0b8-7e71-710f-a4ad-b3b02663bc43","019cf037-5203-781a-b900-108ccb1cab86","","null","
                <div class=""stimulus-container"">
                    <img src=""images/schematic_sequence/restaurant_scheme/restaurant_scheme_6.png"" class=""exp-image"">
                    <div class=""question-area""></div> 
                </div>","null","","","","","","","","",""
"","","","","","html-button-response","154","4892572","0.0-154.0","ECF154619CDF40F4B4F35C09126CAE01","019cf0b8-7e71-710f-a4ad-b3b02663bc43","019cf037-5203-781a-b900-108ccb1cab86","","1237","
                <div class=""stimulus-container"">
                    <img src=""images/schematic_sequence/restaurant_scheme/restaurant_scheme_6.png"" class=""exp-image"">
                    <div class=""question-area"">
                        <p style=""font-size: 20px; font-weight: bold; margin: 0;"">Is there a person in this image?</p>
                    </div>
                </div>","1","main_experiment_trial","6","restaurant_scheme","schematic_sequence","","","","",""
"","","","","","html-keyboard-response","155","4897575","0.0-155.0","ECF154619CDF40F4B4F35C09126CAE01","019cf0b8-7e71-710f-a4ad-b3b02663bc43","019cf037-5203-781a-b900-108ccb1cab86","","null","
                <div class=""stimulus-container"">
                    <img src=""images/schematic_sequence/restaurant_scheme/restaurant_scheme_7.png"" class=""exp-image"">
                    <div class=""question-area""></div> 
                </div>","null","","","","","","","","",""
"","","","","","html-button-response","156","4898598","0.0-156.0","ECF154619CDF40F4B4F35C09126CAE01","019cf0b8-7e71-710f-a4ad-b3b02663bc43","019cf037-5203-781a-b900-108ccb1cab86","","1022","
                <div class=""stimulus-container"">
                    <img src=""images/schematic_sequence/restaurant_scheme/restaurant_scheme_7.png"" class=""exp-image"">
                    <div class=""question-area"">
                        <p style=""font-size: 20px; font-weight: bold; margin: 0;"">Is there a person in this image?</p>
                    </div>
                </div>","1","main_experiment_trial","7","restaurant_scheme","schematic_sequence","","","","",""
"","","","","","html-keyboard-response","157","4903608","0.0-157.0","ECF154619CDF40F4B4F35C09126CAE01","019cf0b8-7e71-710f-a4ad-b3b02663bc43","019cf037-5203-781a-b900-108ccb1cab86","","null","
                <div class=""stimulus-container"">
                    <img src=""images/schematic_sequence/restaurant_scheme/restaurant_scheme_8.png"" class=""exp-image"">
                    <div class=""question-area""></div> 
                </div>","null","","","","","","","","",""
"","","","","","html-button-response","158","4904427","0.0-158.0","ECF154619CDF40F4B4F35C09126CAE01","019cf0b8-7e71-710f-a4ad-b3b02663bc43","019cf037-5203-781a-b900-108ccb1cab86","","818","
                <div class=""stimulus-container"">
                    <img src=""images/schematic_sequence/restaurant_scheme/restaurant_scheme_8.png"" class=""exp-image"">
                    <div class=""question-area"">
                        <p style=""font-size: 20px; font-weight: bold; margin: 0;"">Is there a person in this image?</p>
                    </div>
                </div>","0","main_experiment_trial","8","restaurant_scheme","schematic_sequence","","","","",""
"","","","","","html-keyboard-response","159","4909435","0.0-159.0","ECF154619CDF40F4B4F35C09126CAE01","019cf0b8-7e71-710f-a4ad-b3b02663bc43","019cf037-5203-781a-b900-108ccb1cab86","","null","
                <div class=""stimulus-container"">
                    <img src=""images/schematic_sequence/restaurant_scheme/restaurant_scheme_9.png"" class=""exp-image"">
                    <div class=""question-area""></div> 
                </div>","null","","","","","","","","",""
"","","","","","html-button-response","160","4909920","0.0-160.0","ECF154619CDF40F4B4F35C09126CAE01","019cf0b8-7e71-710f-a4ad-b3b02663bc43","019cf037-5203-781a-b900-108ccb1cab86","","484","
                <div class=""stimulus-container"">
                    <img src=""images/schematic_sequence/restaurant_scheme/restaurant_scheme_9.png"" class=""exp-image"">
                    <div class=""question-area"">
                        <p style=""font-size: 20px; font-weight: bold; margin: 0;"">Is there a person in this image?</p>
                    </div>
                </div>","0","main_experiment_trial","9","restaurant_scheme","schematic_sequence","","","","",""
"","","","","","html-keyboard-response","161","4914922","0.0-161.0","ECF154619CDF40F4B4F35C09126CAE01","019cf0b8-7e71-710f-a4ad-b3b02663bc43","019cf037-5203-781a-b900-108ccb1cab86","","null","
                <div class=""stimulus-container"">
                    <img src=""images/schematic_sequence/restaurant_scheme/restaurant_scheme_ten.png"" class=""exp-image"">
                    <div class=""question-area""></div> 
                </div>","null","","","","","","","","",""
"","","","","","html-button-response","162","4917923","0.0-162.0","ECF154619CDF40F4B4F35C09126CAE01","019cf0b8-7e71-710f-a4ad-b3b02663bc43","019cf037-5203-781a-b900-108ccb1cab86","","null","
                <div class=""stimulus-container"">
                    <img src=""images/schematic_sequence/restaurant_scheme/restaurant_scheme_ten.png"" class=""exp-image"">
                    <div class=""question-area"">
                        <p style=""font-size: 20px; font-weight: bold; margin: 0;"">Is there a person in this image?</p>
                    </div>
                </div>","null","main_experiment_trial","ten","restaurant_scheme","schematic_sequence","","","","",""
"","","","","","html-keyboard-response","163","4918929","0.0-163.0","ECF154619CDF40F4B4F35C09126CAE01","019cf0b8-7e71-710f-a4ad-b3b02663bc43","019cf037-5203-781a-b900-108ccb1cab86","","null","<div style=""background-color: white; width: 100vw; height: 100vh;""></div>","null","","","","","","","","",""
"","","","","","html-keyboard-response","164","4923936","0.0-164.0","ECF154619CDF40F4B4F35C09126CAE01","019cf0b8-7e71-710f-a4ad-b3b02663bc43","019cf037-5203-781a-b900-108ccb1cab86","","null","
                <div class=""stimulus-container"">
                    <img src=""images/schematic_sequence/dinner_party_scheme/dinner_party_scheme_1.png"" class=""exp-image"">
                    <div class=""question-area""></div> 
                </div>","null","","","","","","","","",""
"","","","","","html-button-response","165","4924841","0.0-165.0","ECF154619CDF40F4B4F35C09126CAE01","019cf0b8-7e71-710f-a4ad-b3b02663bc43","019cf037-5203-781a-b900-108ccb1cab86","","904","
                <div class=""stimulus-container"">
                    <img src=""images/schematic_sequence/dinner_party_scheme/dinner_party_scheme_1.png"" class=""exp-image"">
                    <div class=""question-area"">
                        <p style=""font-size: 20px; font-weight: bold; margin: 0;"">Is there a person in this image?</p>
                    </div>
                </div>","0","main_experiment_trial","1","dinner_party_scheme","schematic_sequence","","","","",""
"","","","","","html-keyboard-response","166","4929841","0.0-166.0","ECF154619CDF40F4B4F35C09126CAE01","019cf0b8-7e71-710f-a4ad-b3b02663bc43","019cf037-5203-781a-b900-108ccb1cab86","","null","
                <div class=""stimulus-container"">
                    <img src=""images/schematic_sequence/dinner_party_scheme/dinner_party_scheme_2.png"" class=""exp-image"">
                    <div class=""question-area""></div> 
                </div>","null","","","","","","","","",""
"","","","","","html-button-response","167","4930310","0.0-167.0","ECF154619CDF40F4B4F35C09126CAE01","019cf0b8-7e71-710f-a4ad-b3b02663bc43","019cf037-5203-781a-b900-108ccb1cab86","","468","
                <div class=""stimulus-container"">
                    <img src=""images/schematic_sequence/dinner_party_scheme/dinner_party_scheme_2.png"" class=""exp-image"">
                    <div class=""question-area"">
                        <p style=""font-size: 20px; font-weight: bold; margin: 0;"">Is there a person in this image?</p>
                    </div>
                </div>","0","main_experiment_trial","2","dinner_party_scheme","schematic_sequence","","","","",""
"","","","","","html-keyboard-response","168","4935323","0.0-168.0","ECF154619CDF40F4B4F35C09126CAE01","019cf0b8-7e71-710f-a4ad-b3b02663bc43","019cf037-5203-781a-b900-108ccb1cab86","","null","
                <div class=""stimulus-container"">
                    <img src=""images/schematic_sequence/dinner_party_scheme/dinner_party_scheme_3.png"" class=""exp-image"">
                    <div class=""question-area""></div> 
                </div>","null","","","","","","","","",""
"","","","","","html-button-response","169","4936108","0.0-169.0","ECF154619CDF40F4B4F35C09126CAE01","019cf0b8-7e71-710f-a4ad-b3b02663bc43","019cf037-5203-781a-b900-108ccb1cab86","","784","
                <div class=""stimulus-container"">
                    <img src=""images/schematic_sequence/dinner_party_scheme/dinner_party_scheme_3.png"" class=""exp-image"">
                    <div class=""question-area"">
                        <p style=""font-size: 20px; font-weight: bold; margin: 0;"">Is there a person in this image?</p>
                    </div>
                </div>","0","main_experiment_trial","3","dinner_party_scheme","schematic_sequence","","","","",""
"","","","","","html-keyboard-response","170","4941109","0.0-170.0","ECF154619CDF40F4B4F35C09126CAE01","019cf0b8-7e71-710f-a4ad-b3b02663bc43","019cf037-5203-781a-b900-108ccb1cab86","","null","
                <div class=""stimulus-container"">
                    <img src=""images/schematic_sequence/dinner_party_scheme/dinner_party_scheme_4.png"" class=""exp-image"">
                    <div class=""question-area""></div> 
                </div>","null","","","","","","","","",""
"","","","","","html-button-response","171","4941874","0.0-171.0","ECF154619CDF40F4B4F35C09126CAE01","019cf0b8-7e71-710f-a4ad-b3b02663bc43","019cf037-5203-781a-b900-108ccb1cab86","","765","
                <div class=""stimulus-container"">
                    <img src=""images/schematic_sequence/dinner_party_scheme/dinner_party_scheme_4.png"" class=""exp-image"">
                    <div class=""question-area"">
                        <p style=""font-size: 20px; font-weight: bold; margin: 0;"">Is there a person in this image?</p>
                    </div>
                </div>","0","main_experiment_trial","4","dinner_party_scheme","schematic_sequence","","","","",""
"","","","","","html-keyboard-response","172","4946880","0.0-172.0","ECF154619CDF40F4B4F35C09126CAE01","019cf0b8-7e71-710f-a4ad-b3b02663bc43","019cf037-5203-781a-b900-108ccb1cab86","","null","
                <div class=""stimulus-container"">
                    <img src=""images/schematic_sequence/dinner_party_scheme/dinner_party_scheme_5.png"" class=""exp-image"">
                    <div class=""question-area""></div> 
                </div>","null","","","","","","","","",""
"","","","","","html-button-response","173","4948184","0.0-173.0","ECF154619CDF40F4B4F35C09126CAE01","019cf0b8-7e71-710f-a4ad-b3b02663bc43","019cf037-5203-781a-b900-108ccb1cab86","","1304","
                <div class=""stimulus-container"">
                    <img src=""images/schematic_sequence/dinner_party_scheme/dinner_party_scheme_5.png"" class=""exp-image"">
                    <div class=""question-area"">
                        <p style=""font-size: 20px; font-weight: bold; margin: 0;"">Is there a person in this image?</p>
                    </div>
                </div>","0","main_experiment_trial","5","dinner_party_scheme","schematic_sequence","","","","",""
"","","","","","html-keyboard-response","174","4953189","0.0-174.0","ECF154619CDF40F4B4F35C09126CAE01","019cf0b8-7e71-710f-a4ad-b3b02663bc43","019cf037-5203-781a-b900-108ccb1cab86","","null","
                <div class=""stimulus-container"">
                    <img src=""images/schematic_sequence/dinner_party_scheme/dinner_party_scheme_6.png"" class=""exp-image"">
                    <div class=""question-area""></div> 
                </div>","null","","","","","","","","",""
"","","","","","html-button-response","175","4954370","0.0-175.0","ECF154619CDF40F4B4F35C09126CAE01","019cf0b8-7e71-710f-a4ad-b3b02663bc43","019cf037-5203-781a-b900-108ccb1cab86","","1180","
                <div class=""stimulus-container"">
                    <img src=""images/schematic_sequence/dinner_party_scheme/dinner_party_scheme_6.png"" class=""exp-image"">
                    <div class=""question-area"">
                        <p style=""font-size: 20px; font-weight: bold; margin: 0;"">Is there a person in this image?</p>
                    </div>
                </div>","0","main_experiment_trial","6","dinner_party_scheme","schematic_sequence","","","","",""
"","","","","","html-keyboard-response","176","4959374","0.0-176.0","ECF154619CDF40F4B4F35C09126CAE01","019cf0b8-7e71-710f-a4ad-b3b02663bc43","019cf037-5203-781a-b900-108ccb1cab86","","null","
                <div class=""stimulus-container"">
                    <img src=""images/schematic_sequence/dinner_party_scheme/dinner_party_scheme_7.png"" class=""exp-image"">
                    <div class=""question-area""></div> 
                </div>","null","","","","","","","","",""
"","","","","","html-button-response","177","4959867","0.0-177.0","ECF154619CDF40F4B4F35C09126CAE01","019cf0b8-7e71-710f-a4ad-b3b02663bc43","019cf037-5203-781a-b900-108ccb1cab86","","493","
                <div class=""stimulus-container"">
                    <img src=""images/schematic_sequence/dinner_party_scheme/dinner_party_scheme_7.png"" class=""exp-image"">
                    <div class=""question-area"">
                        <p style=""font-size: 20px; font-weight: bold; margin: 0;"">Is there a person in this image?</p>
                    </div>
                </div>","0","main_experiment_trial","7","dinner_party_scheme","schematic_sequence","","","","",""
"","","","","","html-keyboard-response","178","4964870","0.0-178.0","ECF154619CDF40F4B4F35C09126CAE01","019cf0b8-7e71-710f-a4ad-b3b02663bc43","019cf037-5203-781a-b900-108ccb1cab86","","null","
                <div class=""stimulus-container"">
                    <img src=""images/schematic_sequence/dinner_party_scheme/dinner_party_scheme_8.png"" class=""exp-image"">
                    <div class=""question-area""></div> 
                </div>","null","","","","","","","","",""
"","","","","","html-button-response","179","4965203","0.0-179.0","ECF154619CDF40F4B4F35C09126CAE01","019cf0b8-7e71-710f-a4ad-b3b02663bc43","019cf037-5203-781a-b900-108ccb1cab86","","332","
                <div class=""stimulus-container"">
                    <img src=""images/schematic_sequence/dinner_party_scheme/dinner_party_scheme_8.png"" class=""exp-image"">
                    <div class=""question-area"">
                        <p style=""font-size: 20px; font-weight: bold; margin: 0;"">Is there a person in this image?</p>
                    </div>
                </div>","0","main_experiment_trial","8","dinner_party_scheme","schematic_sequence","","","","",""
"","","","","","html-keyboard-response","180","4970206","0.0-180.0","ECF154619CDF40F4B4F35C09126CAE01","019cf0b8-7e71-710f-a4ad-b3b02663bc43","019cf037-5203-781a-b900-108ccb1cab86","","null","
                <div class=""stimulus-container"">
                    <img src=""images/schematic_sequence/dinner_party_scheme/dinner_party_scheme_9.png"" class=""exp-image"">
                    <div class=""question-area""></div> 
                </div>","null","","","","","","","","",""
"","","","","","html-button-response","181","4970676","0.0-181.0","ECF154619CDF40F4B4F35C09126CAE01","019cf0b8-7e71-710f-a4ad-b3b02663bc43","019cf037-5203-781a-b900-108ccb1cab86","","470","
                <div class=""stimulus-container"">
                    <img src=""images/schematic_sequence/dinner_party_scheme/dinner_party_scheme_9.png"" class=""exp-image"">
                    <div class=""question-area"">
                        <p style=""font-size: 20px; font-weight: bold; margin: 0;"">Is there a person in this image?</p>
                    </div>
                </div>","0","main_experiment_trial","9","dinner_party_scheme","schematic_sequence","","","","",""
