"success","timeout","failed_images","failed_audio","failed_video","trial_type","trial_index","time_elapsed","internal_node_id","view_history","rt","stimulus","response","task","folder","sequence_type","img_idx","value","version","comparison_type","block_story","block_info","left_path","right_path"
"true","false","[]","[]","[]","preload","0","1939","0.0-0.0","","","","","","","","","","","","","","",""
"","","","","","instructions","1","4191","0.0-1.0","[{""page_index"":0,""viewing_time"":2251}]","2251","","","","","","","","","","","","",""
"","","","","","instructions","2","6426","0.0-2.0","[{""page_index"":0,""viewing_time"":2229}]","2234","","","","","","","","","","","","",""
"true","","","","","fullscreen","3","8807","0.0-3.0","","1379","","","","","","","","","","","","",""
"","","","","","instructions","4","12405","0.0-4.0","[{""page_index"":0,""viewing_time"":3598}]","3598","","","","","","","","","","","","",""
"","","","","","html-keyboard-response","5","14406","0.0-5.0","","null","<div class=""transition-square""></div>","null","","","","","","","","","","",""
"","","","","","html-keyboard-response","6","19414","0.0-6.0","","null","<div class=""stimulus-container""><img src=""images_story_vs_info/story_3_1.png"" class=""exp-image""><div class=""question-area""></div></div>","null","","","","","","","","","","",""
"","","","","","html-button-response","7","22422","0.0-7.0","","null","<div class=""stimulus-container""><img src=""images_story_vs_info/story_3_1.png"" class=""exp-image""><div class=""question-area""><p style=""font-size: 20px; font-weight: bold; margin: 0;"">Is there a person in the description or image?</p></div></div>","null","observation","story_3","story","1","","","","","","",""
"","","","","","html-keyboard-response","8","27429","0.0-8.0","","null","<div class=""stimulus-container""><img src=""images_story_vs_info/story_3_2.png"" class=""exp-image""><div class=""question-area""></div></div>","null","","","","","","","","","","",""
"","","","","","html-button-response","9","28755","0.0-9.0","","1319","<div class=""stimulus-container""><img src=""images_story_vs_info/story_3_2.png"" class=""exp-image""><div class=""question-area""><p style=""font-size: 20px; font-weight: bold; margin: 0;"">Is there a person in the description or image?</p></div></div>","0","observation","story_3","story","2","","","","","","",""
"","","","","","html-keyboard-response","10","33761","0.0-10.0","","null","<div class=""stimulus-container""><img src=""images_story_vs_info/story_3_3.png"" class=""exp-image""><div class=""question-area""></div></div>","null","","","","","","","","","","",""
"","","","","","html-button-response","11","35122","0.0-11.0","","1353","<div class=""stimulus-container""><img src=""images_story_vs_info/story_3_3.png"" class=""exp-image""><div class=""question-area""><p style=""font-size: 20px; font-weight: bold; margin: 0;"">Is there a person in the description or image?</p></div></div>","0","observation","story_3","story","3","","","","","","",""
"","","","","","html-keyboard-response","12","40128","0.0-12.0","","null","<div class=""stimulus-container""><img src=""images_story_vs_info/story_3_4.png"" class=""exp-image""><div class=""question-area""></div></div>","null","","","","","","","","","","",""
"","","","","","html-button-response","13","42322","0.0-13.0","","2187","<div class=""stimulus-container""><img src=""images_story_vs_info/story_3_4.png"" class=""exp-image""><div class=""question-area""><p style=""font-size: 20px; font-weight: bold; margin: 0;"">Is there a person in the description or image?</p></div></div>","1","observation","story_3","story","4","","","","","","",""
"","","","","","html-keyboard-response","14","47329","0.0-14.0","","null","<div class=""stimulus-container""><img src=""images_story_vs_info/story_3_5.png"" class=""exp-image""><div class=""question-area""></div></div>","null","","","","","","","","","","",""
"","","","","","html-button-response","15","50336","0.0-15.0","","null","<div class=""stimulus-container""><img src=""images_story_vs_info/story_3_5.png"" class=""exp-image""><div class=""question-area""><p style=""font-size: 20px; font-weight: bold; margin: 0;"">Is there a person in the description or image?</p></div></div>","null","observation","story_3","story","5","","","","","","",""
"","","","","","html-keyboard-response","16","52338","0.0-16.0","","null","<div class=""transition-square""></div>","null","","","","","","","","","","",""
"","","","","","html-keyboard-response","17","57346","0.0-17.0","","null","<div class=""stimulus-container""><img src=""images_story_vs_info/story_1_1.png"" class=""exp-image""><div class=""question-area""></div></div>","null","","","","","","","","","","",""
"","","","","","html-button-response","18","58771","0.0-18.0","","1417","<div class=""stimulus-container""><img src=""images_story_vs_info/story_1_1.png"" class=""exp-image""><div class=""question-area""><p style=""font-size: 20px; font-weight: bold; margin: 0;"">Is there a person in the description or image?</p></div></div>","1","observation","story_1","story","1","","","","","","",""
"","","","","","html-keyboard-response","19","63778","0.0-19.0","","null","<div class=""stimulus-container""><img src=""images_story_vs_info/story_1_2.png"" class=""exp-image""><div class=""question-area""></div></div>","null","","","","","","","","","","",""
"","","","","","html-button-response","20","65955","0.0-20.0","","2170","<div class=""stimulus-container""><img src=""images_story_vs_info/story_1_2.png"" class=""exp-image""><div class=""question-area""><p style=""font-size: 20px; font-weight: bold; margin: 0;"">Is there a person in the description or image?</p></div></div>","1","observation","story_1","story","2","","","","","","",""
"","","","","","html-keyboard-response","21","70962","0.0-21.0","","null","<div class=""stimulus-container""><img src=""images_story_vs_info/story_1_3.png"" class=""exp-image""><div class=""question-area""></div></div>","null","","","","","","","","","","",""
"","","","","","html-button-response","22","72355","0.0-22.0","","1385","<div class=""stimulus-container""><img src=""images_story_vs_info/story_1_3.png"" class=""exp-image""><div class=""question-area""><p style=""font-size: 20px; font-weight: bold; margin: 0;"">Is there a person in the description or image?</p></div></div>","1","observation","story_1","story","3","","","","","","",""
"","","","","","html-keyboard-response","23","77361","0.0-23.0","","null","<div class=""stimulus-container""><img src=""images_story_vs_info/story_1_4.png"" class=""exp-image""><div class=""question-area""></div></div>","null","","","","","","","","","","",""
"","","","","","html-button-response","24","78822","0.0-24.0","","1453","<div class=""stimulus-container""><img src=""images_story_vs_info/story_1_4.png"" class=""exp-image""><div class=""question-area""><p style=""font-size: 20px; font-weight: bold; margin: 0;"">Is there a person in the description or image?</p></div></div>","1","observation","story_1","story","4","","","","","","",""
"","","","","","html-keyboard-response","25","83828","0.0-25.0","","null","<div class=""stimulus-container""><img src=""images_story_vs_info/story_1_5.png"" class=""exp-image""><div class=""question-area""></div></div>","null","","","","","","","","","","",""
"","","","","","html-button-response","26","84971","0.0-26.0","","1136","<div class=""stimulus-container""><img src=""images_story_vs_info/story_1_5.png"" class=""exp-image""><div class=""question-area""><p style=""font-size: 20px; font-weight: bold; margin: 0;"">Is there a person in the description or image?</p></div></div>","1","observation","story_1","story","5","","","","","","",""
"","","","","","html-keyboard-response","27","86972","0.0-27.0","","null","<div class=""transition-square""></div>","null","","","","","","","","","","",""
"","","","","","html-keyboard-response","28","91979","0.0-28.0","","null","<div class=""stimulus-container""><img src=""images_story_vs_info/info_2_1.png"" class=""exp-image""><div class=""question-area""></div></div>","null","","","","","","","","","","",""
"","","","","","html-button-response","29","92671","0.0-29.0","","684","<div class=""stimulus-container""><img src=""images_story_vs_info/info_2_1.png"" class=""exp-image""><div class=""question-area""><p style=""font-size: 20px; font-weight: bold; margin: 0;"">Is there a person in the description or image?</p></div></div>","1","observation","info_2","info","1","","","","","","",""
"","","","","","html-keyboard-response","30","97677","0.0-30.0","","null","<div class=""stimulus-container""><img src=""images_story_vs_info/info_2_2.png"" class=""exp-image""><div class=""question-area""></div></div>","null","","","","","","","","","","",""
"","","","","","html-button-response","31","98321","0.0-31.0","","637","<div class=""stimulus-container""><img src=""images_story_vs_info/info_2_2.png"" class=""exp-image""><div class=""question-area""><p style=""font-size: 20px; font-weight: bold; margin: 0;"">Is there a person in the description or image?</p></div></div>","1","observation","info_2","info","2","","","","","","",""
"","","","","","html-keyboard-response","32","103327","0.0-32.0","","null","<div class=""stimulus-container""><img src=""images_story_vs_info/info_2_3.png"" class=""exp-image""><div class=""question-area""></div></div>","null","","","","","","","","","","",""
"","","","","","html-button-response","33","104838","0.0-33.0","","1502","<div class=""stimulus-container""><img src=""images_story_vs_info/info_2_3.png"" class=""exp-image""><div class=""question-area""><p style=""font-size: 20px; font-weight: bold; margin: 0;"">Is there a person in the description or image?</p></div></div>","1","observation","info_2","info","3","","","","","","",""
"","","","","","html-keyboard-response","34","109844","0.0-34.0","","null","<div class=""stimulus-container""><img src=""images_story_vs_info/info_2_4.png"" class=""exp-image""><div class=""question-area""></div></div>","null","","","","","","","","","","",""
"","","","","","html-button-response","35","111259","0.0-35.0","","1408","<div class=""stimulus-container""><img src=""images_story_vs_info/info_2_4.png"" class=""exp-image""><div class=""question-area""><p style=""font-size: 20px; font-weight: bold; margin: 0;"">Is there a person in the description or image?</p></div></div>","1","observation","info_2","info","4","","","","","","",""
"","","","","","html-keyboard-response","36","116266","0.0-36.0","","null","<div class=""stimulus-container""><img src=""images_story_vs_info/info_2_5.png"" class=""exp-image""><div class=""question-area""></div></div>","null","","","","","","","","","","",""
"","","","","","html-button-response","37","117386","0.0-37.0","","1113","<div class=""stimulus-container""><img src=""images_story_vs_info/info_2_5.png"" class=""exp-image""><div class=""question-area""><p style=""font-size: 20px; font-weight: bold; margin: 0;"">Is there a person in the description or image?</p></div></div>","1","observation","info_2","info","5","","","","","","",""
"","","","","","html-keyboard-response","38","119387","0.0-38.0","","null","<div class=""transition-square""></div>","null","","","","","","","","","","",""
"","","","","","html-keyboard-response","39","124395","0.0-39.0","","null","<div class=""stimulus-container""><img src=""images_story_vs_info/info_4_1.png"" class=""exp-image""><div class=""question-area""></div></div>","null","","","","","","","","","","",""
"","","","","","html-button-response","40","125054","0.0-40.0","","652","<div class=""stimulus-container""><img src=""images_story_vs_info/info_4_1.png"" class=""exp-image""><div class=""question-area""><p style=""font-size: 20px; font-weight: bold; margin: 0;"">Is there a person in the description or image?</p></div></div>","1","observation","info_4","info","1","","","","","","",""
"","","","","","html-keyboard-response","41","130061","0.0-41.0","","null","<div class=""stimulus-container""><img src=""images_story_vs_info/info_4_2.png"" class=""exp-image""><div class=""question-area""></div></div>","null","","","","","","","","","","",""
"","","","","","html-button-response","42","130903","0.0-42.0","","836","<div class=""stimulus-container""><img src=""images_story_vs_info/info_4_2.png"" class=""exp-image""><div class=""question-area""><p style=""font-size: 20px; font-weight: bold; margin: 0;"">Is there a person in the description or image?</p></div></div>","1","observation","info_4","info","2","","","","","","",""
"","","","","","html-keyboard-response","43","135909","0.0-43.0","","null","<div class=""stimulus-container""><img src=""images_story_vs_info/info_4_3.png"" class=""exp-image""><div class=""question-area""></div></div>","null","","","","","","","","","","",""
"","","","","","html-button-response","44","138588","0.0-44.0","","2671","<div class=""stimulus-container""><img src=""images_story_vs_info/info_4_3.png"" class=""exp-image""><div class=""question-area""><p style=""font-size: 20px; font-weight: bold; margin: 0;"">Is there a person in the description or image?</p></div></div>","1","observation","info_4","info","3","","","","","","",""
"","","","","","html-keyboard-response","45","143593","0.0-45.0","","null","<div class=""stimulus-container""><img src=""images_story_vs_info/info_4_4.png"" class=""exp-image""><div class=""question-area""></div></div>","null","","","","","","","","","","",""
"","","","","","html-button-response","46","144654","0.0-46.0","","1053","<div class=""stimulus-container""><img src=""images_story_vs_info/info_4_4.png"" class=""exp-image""><div class=""question-area""><p style=""font-size: 20px; font-weight: bold; margin: 0;"">Is there a person in the description or image?</p></div></div>","1","observation","info_4","info","4","","","","","","",""
"","","","","","html-keyboard-response","47","149661","0.0-47.0","","null","<div class=""stimulus-container""><img src=""images_story_vs_info/info_4_5.png"" class=""exp-image""><div class=""question-area""></div></div>","null","","","","","","","","","","",""
"","","","","","html-button-response","48","150554","0.0-48.0","","885","<div class=""stimulus-container""><img src=""images_story_vs_info/info_4_5.png"" class=""exp-image""><div class=""question-area""><p style=""font-size: 20px; font-weight: bold; margin: 0;"">Is there a person in the description or image?</p></div></div>","1","observation","info_4","info","5","","","","","","",""
"","","","","","instructions","49","188980","0.0-49.0","[{""page_index"":0,""viewing_time"":38426}]","38426","","","","","","","","","","","","",""
"","","","","","html-button-response","50","191937","0.0-50.0","","2951","<div class=""stimulus-container""><p style=""font-family:Arial; font-size:20px;"">The event is reaching its end...</p><img src=""images_story_vs_info/info_2_5.png"" class=""exp-image""></div>","0","","","","","","","","","","",""
"","","","","","html-button-response","51","198903","0.0-51.0","","6961","<div class=""stimulus-container""><p style=""font-family:Arial; font-size:20px;"">The outcome:</p><img src=""images_story_vs_info/info_2_6_a.png"" class=""exp-image""><div class=""value-tag val-high"">This outcome is worth: $100</div></div>","0","learning","info_2","","","$100","a","","","","",""
"","","","","","html-button-response","52","201336","0.0-52.0","","2427","<div class=""stimulus-container""><p style=""font-family:Arial; font-size:20px;"">The event is reaching its end...</p><img src=""images_story_vs_info/info_4_5.png"" class=""exp-image""></div>","0","","","","","","","","","","",""
"","","","","","html-button-response","53","207921","0.0-53.0","","6580","<div class=""stimulus-container""><p style=""font-family:Arial; font-size:20px;"">The outcome:</p><img src=""images_story_vs_info/info_4_6_b.png"" class=""exp-image""><div class=""value-tag val-low"">This outcome is worth: $0</div></div>","0","learning","info_4","","","$0","b","","","","",""
"","","","","","html-button-response","54","209220","0.0-54.0","","1294","<div class=""stimulus-container""><p style=""font-family:Arial; font-size:20px;"">The event is reaching its end...</p><img src=""images_story_vs_info/story_3_5.png"" class=""exp-image""></div>","0","","","","","","","","","","",""
"","","","","","html-button-response","55","216203","0.0-55.0","","6978","<div class=""stimulus-container""><p style=""font-family:Arial; font-size:20px;"">The outcome:</p><img src=""images_story_vs_info/story_3_6_a.png"" class=""exp-image""><div class=""value-tag val-high"">This outcome is worth: $100</div></div>","0","learning","story_3","","","$100","a","","","","",""
"","","","","","html-button-response","56","219678","0.0-56.0","","3470","<div class=""stimulus-container""><p style=""font-family:Arial; font-size:20px;"">The event is reaching its end...</p><img src=""images_story_vs_info/story_1_5.png"" class=""exp-image""></div>","0","","","","","","","","","","",""
"","","","","","html-button-response","57","228041","0.0-57.0","","8357","<div class=""stimulus-container""><p style=""font-family:Arial; font-size:20px;"">The outcome:</p><img src=""images_story_vs_info/story_1_6_b.png"" class=""exp-image""><div class=""value-tag val-low"">This outcome is worth: $0</div></div>","0","learning","story_1","","","$0","b","","","","",""
"","","","","","instructions","58","232872","0.0-58.0","[{""page_index"":0,""viewing_time"":4830}]","4830","","","","","","","","","","","","",""
"","","","","","html-button-response","59","235519","0.0-59.0","","2638","
                <div style=""font-family: Arial; margin-bottom: 20px;""><h3>Which image is worth <b>more money</b>?</h3></div>
                <div class=""stimulus-container"" style=""display: flex; flex-direction: row; width: 800px; justify-content: center; gap: 30px;"">
                    <img src=""images_story_vs_info/info_2_2.png"" class=""small-image"">
                    <img src=""images_story_vs_info/story_3_2.png"" class=""small-image"">
                </div>","1","choice_comparison","","","2","","","Valuable_Story_vs_Info","story_3","info_2","images_story_vs_info/info_2_2.png","images_story_vs_info/story_3_2.png"
"","","","","","html-button-response","60","238294","0.0-60.0","","2766","
                <div style=""font-family: Arial; margin-bottom: 20px;""><h3>Which image is worth <b>more money</b>?</h3></div>
                <div class=""stimulus-container"" style=""display: flex; flex-direction: row; width: 800px; justify-content: center; gap: 30px;"">
                    <img src=""images_story_vs_info/info_4_5.png"" class=""small-image"">
                    <img src=""images_story_vs_info/story_1_5.png"" class=""small-image"">
                </div>","1","choice_comparison","","","5","","","Neutral_Story_vs_Info","story_1","info_4","images_story_vs_info/info_4_5.png","images_story_vs_info/story_1_5.png"
"","","","","","html-button-response","61","240302","0.0-61.0","","1997","
                <div style=""font-family: Arial; margin-bottom: 20px;""><h3>Which image is worth <b>more money</b>?</h3></div>
                <div class=""stimulus-container"" style=""display: flex; flex-direction: row; width: 800px; justify-content: center; gap: 30px;"">
                    <img src=""images_story_vs_info/story_1_2.png"" class=""small-image"">
                    <img src=""images_story_vs_info/info_4_2.png"" class=""small-image"">
                </div>","1","choice_comparison","","","2","","","Neutral_Story_vs_Info","story_1","info_4","images_story_vs_info/story_1_2.png","images_story_vs_info/info_4_2.png"
"","","","","","html-button-response","62","241778","0.0-62.0","","1468","
                <div style=""font-family: Arial; margin-bottom: 20px;""><h3>Which image is worth <b>more money</b>?</h3></div>
                <div class=""stimulus-container"" style=""display: flex; flex-direction: row; width: 800px; justify-content: center; gap: 30px;"">
                    <img src=""images_story_vs_info/info_4_1.png"" class=""small-image"">
                    <img src=""images_story_vs_info/story_1_1.png"" class=""small-image"">
                </div>","0","choice_comparison","","","1","","","Neutral_Story_vs_Info","story_1","info_4","images_story_vs_info/info_4_1.png","images_story_vs_info/story_1_1.png"
"","","","","","html-button-response","63","243753","0.0-63.0","","1966","
                <div style=""font-family: Arial; margin-bottom: 20px;""><h3>Which image is worth <b>more money</b>?</h3></div>
                <div class=""stimulus-container"" style=""display: flex; flex-direction: row; width: 800px; justify-content: center; gap: 30px;"">
                    <img src=""images_story_vs_info/info_2_5.png"" class=""small-image"">
                    <img src=""images_story_vs_info/story_3_5.png"" class=""small-image"">
                </div>","0","choice_comparison","","","5","","","Valuable_Story_vs_Info","story_3","info_2","images_story_vs_info/info_2_5.png","images_story_vs_info/story_3_5.png"
"","","","","","html-button-response","64","246085","0.0-64.0","","2322","
                <div style=""font-family: Arial; margin-bottom: 20px;""><h3>Which image is worth <b>more money</b>?</h3></div>
                <div class=""stimulus-container"" style=""display: flex; flex-direction: row; width: 800px; justify-content: center; gap: 30px;"">
                    <img src=""images_story_vs_info/info_2_4.png"" class=""small-image"">
                    <img src=""images_story_vs_info/story_3_4.png"" class=""small-image"">
                </div>","1","choice_comparison","","","4","","","Valuable_Story_vs_Info","story_3","info_2","images_story_vs_info/info_2_4.png","images_story_vs_info/story_3_4.png"
"","","","","","html-button-response","65","248345","0.0-65.0","","2251","
                <div style=""font-family: Arial; margin-bottom: 20px;""><h3>Which image is worth <b>more money</b>?</h3></div>
                <div class=""stimulus-container"" style=""display: flex; flex-direction: row; width: 800px; justify-content: center; gap: 30px;"">
                    <img src=""images_story_vs_info/story_3_3.png"" class=""small-image"">
                    <img src=""images_story_vs_info/info_2_3.png"" class=""small-image"">
                </div>","1","choice_comparison","","","3","","","Valuable_Story_vs_Info","story_3","info_2","images_story_vs_info/story_3_3.png","images_story_vs_info/info_2_3.png"
"","","","","","html-button-response","66","251274","0.0-66.0","","2920","
                <div style=""font-family: Arial; margin-bottom: 20px;""><h3>Which image is worth <b>more money</b>?</h3></div>
                <div class=""stimulus-container"" style=""display: flex; flex-direction: row; width: 800px; justify-content: center; gap: 30px;"">
                    <img src=""images_story_vs_info/story_1_3.png"" class=""small-image"">
                    <img src=""images_story_vs_info/info_4_3.png"" class=""small-image"">
                </div>","1","choice_comparison","","","3","","","Neutral_Story_vs_Info","story_1","info_4","images_story_vs_info/story_1_3.png","images_story_vs_info/info_4_3.png"
"","","","","","html-button-response","67","253053","0.0-67.0","","1770","
                <div style=""font-family: Arial; margin-bottom: 20px;""><h3>Which image is worth <b>more money</b>?</h3></div>
                <div class=""stimulus-container"" style=""display: flex; flex-direction: row; width: 800px; justify-content: center; gap: 30px;"">
                    <img src=""images_story_vs_info/story_3_6_b.png"" class=""small-image"">
                    <img src=""images_story_vs_info/info_2_6_b.png"" class=""small-image"">
                </div>","0","choice_comparison","","","6","","","Valuable_Story_vs_Info","story_3","info_2","images_story_vs_info/story_3_6_b.png","images_story_vs_info/info_2_6_b.png"
"","","","","","html-button-response","68","255702","0.0-68.0","","2640","
                <div style=""font-family: Arial; margin-bottom: 20px;""><h3>Which image is worth <b>more money</b>?</h3></div>
                <div class=""stimulus-container"" style=""display: flex; flex-direction: row; width: 800px; justify-content: center; gap: 30px;"">
                    <img src=""images_story_vs_info/info_2_1.png"" class=""small-image"">
                    <img src=""images_story_vs_info/story_3_1.png"" class=""small-image"">
                </div>","1","choice_comparison","","","1","","","Valuable_Story_vs_Info","story_3","info_2","images_story_vs_info/info_2_1.png","images_story_vs_info/story_3_1.png"
"","","","","","html-button-response","69","257270","0.0-69.0","","1557","
                <div style=""font-family: Arial; margin-bottom: 20px;""><h3>Which image is worth <b>more money</b>?</h3></div>
                <div class=""stimulus-container"" style=""display: flex; flex-direction: row; width: 800px; justify-content: center; gap: 30px;"">
                    <img src=""images_story_vs_info/story_1_6_b.png"" class=""small-image"">
                    <img src=""images_story_vs_info/info_4_6_b.png"" class=""small-image"">
                </div>","0","choice_comparison","","","6","","","Neutral_Story_vs_Info","story_1","info_4","images_story_vs_info/story_1_6_b.png","images_story_vs_info/info_4_6_b.png"
"","","","","","html-button-response","70","258439","0.0-70.0","","1159","
                <div style=""font-family: Arial; margin-bottom: 20px;""><h3>Which image is worth <b>more money</b>?</h3></div>
                <div class=""stimulus-container"" style=""display: flex; flex-direction: row; width: 800px; justify-content: center; gap: 30px;"">
                    <img src=""images_story_vs_info/story_1_4.png"" class=""small-image"">
                    <img src=""images_story_vs_info/info_4_4.png"" class=""small-image"">
                </div>","0","choice_comparison","","","4","","","Neutral_Story_vs_Info","story_1","info_4","images_story_vs_info/story_1_4.png","images_story_vs_info/info_4_4.png"
"","","","","","survey-text","71","269123","0.0-71.0","","10681","","{""choice_strategy"":""memory"",""gender"":""female"",""age"":""34""}","","","","","","","","","","",""
"","","","","","instructions","72","272603","0.0-72.0","[{""page_index"":0,""viewing_time"":3479}]","3480","","","","","","","","","","","","",""
