"success","timeout","failed_images","failed_audio","failed_video","trial_type","trial_index","time_elapsed","internal_node_id","subject_id","study_id","session_id","view_history","rt","stimulus","response","task","image_index","folder","sequence_type","presentation_order","valuable_image_index","reward_type","target_X","l_dist","r_dist","chosen_image_index","selected_after_X","correct_choice"
"true","false","[]","[]","[]","preload","0","15074","0.0-0.0","23A5EE68CA014CDDA6AEF3FBA2EE2A37","019d6685-093e-7e7d-82d6-766414f631c6","019d6630-2071-75cb-8026-6699844a2719","","","","","","","","","","","","","","","","",""
"","","","","","instructions","1","19129","0.0-1.0","23A5EE68CA014CDDA6AEF3FBA2EE2A37","019d6685-093e-7e7d-82d6-766414f631c6","019d6630-2071-75cb-8026-6699844a2719","[{""page_index"":0,""viewing_time"":4054}]","4055","","","","","","","","","","","","","","",""
"","","","","","instructions","2","23413","0.0-2.0","23A5EE68CA014CDDA6AEF3FBA2EE2A37","019d6685-093e-7e7d-82d6-766414f631c6","019d6630-2071-75cb-8026-6699844a2719","[{""page_index"":0,""viewing_time"":4283}]","4284","","","","","","","","","","","","","","",""
"true","","","","","fullscreen","3","26226","0.0-3.0","23A5EE68CA014CDDA6AEF3FBA2EE2A37","019d6685-093e-7e7d-82d6-766414f631c6","019d6630-2071-75cb-8026-6699844a2719","","1797","","","","","","","","","","","","","","",""
"","","","","","instructions","4","34017","0.0-4.0","23A5EE68CA014CDDA6AEF3FBA2EE2A37","019d6685-093e-7e7d-82d6-766414f631c6","019d6630-2071-75cb-8026-6699844a2719","[{""page_index"":0,""viewing_time"":7790}]","7790","","","","","","","","","","","","","","",""
"","","","","","instructions","5","37058","0.0-5.0","23A5EE68CA014CDDA6AEF3FBA2EE2A37","019d6685-093e-7e7d-82d6-766414f631c6","019d6630-2071-75cb-8026-6699844a2719","[{""page_index"":0,""viewing_time"":3041}]","3041","","","","","","","","","","","","","","",""
"","","","","","html-keyboard-response","6","41065","0.0-6.0","23A5EE68CA014CDDA6AEF3FBA2EE2A37","019d6685-093e-7e7d-82d6-766414f631c6","019d6630-2071-75cb-8026-6699844a2719","","null","
                <div class=""stimulus-container"">
                    <img src=""images/instructions/movie_1.png"" class=""exp-image"">
                    <div class=""question-area""></div> 
                </div>","null","","","","","","","","","","","","",""
"","","","","","html-button-response","7","43310","0.0-7.0","23A5EE68CA014CDDA6AEF3FBA2EE2A37","019d6685-093e-7e7d-82d6-766414f631c6","019d6630-2071-75cb-8026-6699844a2719","","2244","
                <div class=""stimulus-container"">
                    <img src=""images/instructions/movie_1.png"" class=""exp-image"">
                    <div class=""question-area"">
                        <p style=""font-size: 20px; font-weight: bold; margin: 0;"">Was there a person in this image?</p>
                    </div>
                </div>","0","example_question","1","","","","","","","","","","",""
"","","","","","html-keyboard-response","8","47314","0.0-8.0","23A5EE68CA014CDDA6AEF3FBA2EE2A37","019d6685-093e-7e7d-82d6-766414f631c6","019d6630-2071-75cb-8026-6699844a2719","","null","
                <div class=""stimulus-container"">
                    <img src=""images/instructions/movie_2.png"" class=""exp-image"">
                    <div class=""question-area""></div> 
                </div>","null","","","","","","","","","","","","",""
"","","","","","html-button-response","9","49627","0.0-9.0","23A5EE68CA014CDDA6AEF3FBA2EE2A37","019d6685-093e-7e7d-82d6-766414f631c6","019d6630-2071-75cb-8026-6699844a2719","","2312","
                <div class=""stimulus-container"">
                    <img src=""images/instructions/movie_2.png"" class=""exp-image"">
                    <div class=""question-area"">
                        <p style=""font-size: 20px; font-weight: bold; margin: 0;"">Was there a person in this image?</p>
                    </div>
                </div>","0","example_question","2","","","","","","","","","","",""
"","","","","","html-keyboard-response","10","53640","0.0-10.0","23A5EE68CA014CDDA6AEF3FBA2EE2A37","019d6685-093e-7e7d-82d6-766414f631c6","019d6630-2071-75cb-8026-6699844a2719","","null","
                <div class=""stimulus-container"">
                    <img src=""images/instructions/movie_3.png"" class=""exp-image"">
                    <div class=""question-area""></div> 
                </div>","null","","","","","","","","","","","","",""
"","","","","","html-button-response","11","54422","0.0-11.0","23A5EE68CA014CDDA6AEF3FBA2EE2A37","019d6685-093e-7e7d-82d6-766414f631c6","019d6630-2071-75cb-8026-6699844a2719","","782","
                <div class=""stimulus-container"">
                    <img src=""images/instructions/movie_3.png"" class=""exp-image"">
                    <div class=""question-area"">
                        <p style=""font-size: 20px; font-weight: bold; margin: 0;"">Was there a person in this image?</p>
                    </div>
                </div>","0","example_question","3","","","","","","","","","","",""
"","","","","","html-keyboard-response","12","58429","0.0-12.0","23A5EE68CA014CDDA6AEF3FBA2EE2A37","019d6685-093e-7e7d-82d6-766414f631c6","019d6630-2071-75cb-8026-6699844a2719","","null","
                <div class=""stimulus-container"">
                    <img src=""images/instructions/movie_4.png"" class=""exp-image"">
                    <div class=""question-area""></div> 
                </div>","null","","","","","","","","","","","","",""
"","","","","","html-button-response","13","60590","0.0-13.0","23A5EE68CA014CDDA6AEF3FBA2EE2A37","019d6685-093e-7e7d-82d6-766414f631c6","019d6630-2071-75cb-8026-6699844a2719","","2161","
                <div class=""stimulus-container"">
                    <img src=""images/instructions/movie_4.png"" class=""exp-image"">
                    <div class=""question-area"">
                        <p style=""font-size: 20px; font-weight: bold; margin: 0;"">Was there a person in this image?</p>
                    </div>
                </div>","0","example_question","4","","","","","","","","","","",""
"","","","","","instructions","14","67178","0.0-14.0","23A5EE68CA014CDDA6AEF3FBA2EE2A37","019d6685-093e-7e7d-82d6-766414f631c6","019d6630-2071-75cb-8026-6699844a2719","[{""page_index"":0,""viewing_time"":6588}]","6588","","","","","","","","","","","","","","",""
"","","","","","instructions","15","73769","0.0-15.0","23A5EE68CA014CDDA6AEF3FBA2EE2A37","019d6685-093e-7e7d-82d6-766414f631c6","019d6630-2071-75cb-8026-6699844a2719","[{""page_index"":0,""viewing_time"":6591}]","6591","","","","","","","","","","","","","","",""
"","","","","","html-keyboard-response","16","78770","0.0-16.0","23A5EE68CA014CDDA6AEF3FBA2EE2A37","019d6685-093e-7e7d-82d6-766414f631c6","019d6630-2071-75cb-8026-6699844a2719","","null","<div style=""background-color: white; width: 100vw; height: 100vh;""></div>","null","","","","","","","","","","","","",""
"","","","","","html-keyboard-response","17","83780","0.0-17.0","23A5EE68CA014CDDA6AEF3FBA2EE2A37","019d6685-093e-7e7d-82d6-766414f631c6","019d6630-2071-75cb-8026-6699844a2719","","null","
                <div class=""stimulus-container"">
                    <img src=""images/semantic_sequence/visiting_cities_semantic/visiting_cities_semantic_1.png"" class=""exp-image"">
                    <div class=""question-area""></div> 
                </div>","null","","","","","","","","","","","","",""
"","","","","","html-button-response","18","85206","0.0-18.0","23A5EE68CA014CDDA6AEF3FBA2EE2A37","019d6685-093e-7e7d-82d6-766414f631c6","019d6630-2071-75cb-8026-6699844a2719","","1425","
                <div class=""stimulus-container"">
                    <img src=""images/semantic_sequence/visiting_cities_semantic/visiting_cities_semantic_1.png"" class=""exp-image"">
                    <div class=""question-area"">
                        <p style=""font-size: 20px; font-weight: bold; margin: 0;"">Is there a person in this image?</p>
                    </div>
                </div>","0","main_experiment_trial","1","visiting_cities_semantic","semantic_sequence","chronological","","","","","","","",""
"","","","","","html-keyboard-response","19","90210","0.0-19.0","23A5EE68CA014CDDA6AEF3FBA2EE2A37","019d6685-093e-7e7d-82d6-766414f631c6","019d6630-2071-75cb-8026-6699844a2719","","null","
                <div class=""stimulus-container"">
                    <img src=""images/semantic_sequence/visiting_cities_semantic/visiting_cities_semantic_2.png"" class=""exp-image"">
                    <div class=""question-area""></div> 
                </div>","null","","","","","","","","","","","","",""
"","","","","","html-button-response","20","90959","0.0-20.0","23A5EE68CA014CDDA6AEF3FBA2EE2A37","019d6685-093e-7e7d-82d6-766414f631c6","019d6630-2071-75cb-8026-6699844a2719","","749","
                <div class=""stimulus-container"">
                    <img src=""images/semantic_sequence/visiting_cities_semantic/visiting_cities_semantic_2.png"" class=""exp-image"">
                    <div class=""question-area"">
                        <p style=""font-size: 20px; font-weight: bold; margin: 0;"">Is there a person in this image?</p>
                    </div>
                </div>","1","main_experiment_trial","2","visiting_cities_semantic","semantic_sequence","chronological","","","","","","","",""
"","","","","","html-keyboard-response","21","95960","0.0-21.0","23A5EE68CA014CDDA6AEF3FBA2EE2A37","019d6685-093e-7e7d-82d6-766414f631c6","019d6630-2071-75cb-8026-6699844a2719","","null","
                <div class=""stimulus-container"">
                    <img src=""images/semantic_sequence/visiting_cities_semantic/visiting_cities_semantic_3.png"" class=""exp-image"">
                    <div class=""question-area""></div> 
                </div>","null","","","","","","","","","","","","",""
"","","","","","html-button-response","22","96586","0.0-22.0","23A5EE68CA014CDDA6AEF3FBA2EE2A37","019d6685-093e-7e7d-82d6-766414f631c6","019d6630-2071-75cb-8026-6699844a2719","","626","
                <div class=""stimulus-container"">
                    <img src=""images/semantic_sequence/visiting_cities_semantic/visiting_cities_semantic_3.png"" class=""exp-image"">
                    <div class=""question-area"">
                        <p style=""font-size: 20px; font-weight: bold; margin: 0;"">Is there a person in this image?</p>
                    </div>
                </div>","1","main_experiment_trial","3","visiting_cities_semantic","semantic_sequence","chronological","","","","","","","",""
"","","","","","html-keyboard-response","23","101598","0.0-23.0","23A5EE68CA014CDDA6AEF3FBA2EE2A37","019d6685-093e-7e7d-82d6-766414f631c6","019d6630-2071-75cb-8026-6699844a2719","","null","
                <div class=""stimulus-container"">
                    <img src=""images/semantic_sequence/visiting_cities_semantic/visiting_cities_semantic_4.png"" class=""exp-image"">
                    <div class=""question-area""></div> 
                </div>","null","","","","","","","","","","","","",""
"","","","","","html-button-response","24","102380","0.0-24.0","23A5EE68CA014CDDA6AEF3FBA2EE2A37","019d6685-093e-7e7d-82d6-766414f631c6","019d6630-2071-75cb-8026-6699844a2719","","782","
                <div class=""stimulus-container"">
                    <img src=""images/semantic_sequence/visiting_cities_semantic/visiting_cities_semantic_4.png"" class=""exp-image"">
                    <div class=""question-area"">
                        <p style=""font-size: 20px; font-weight: bold; margin: 0;"">Is there a person in this image?</p>
                    </div>
                </div>","1","main_experiment_trial","4","visiting_cities_semantic","semantic_sequence","chronological","","","","","","","",""
"","","","","","html-keyboard-response","25","107382","0.0-25.0","23A5EE68CA014CDDA6AEF3FBA2EE2A37","019d6685-093e-7e7d-82d6-766414f631c6","019d6630-2071-75cb-8026-6699844a2719","","null","
                <div class=""stimulus-container"">
                    <img src=""images/semantic_sequence/visiting_cities_semantic/visiting_cities_semantic_5.png"" class=""exp-image"">
                    <div class=""question-area""></div> 
                </div>","null","","","","","","","","","","","","",""
"","","","","","html-button-response","26","109966","0.0-26.0","23A5EE68CA014CDDA6AEF3FBA2EE2A37","019d6685-093e-7e7d-82d6-766414f631c6","019d6630-2071-75cb-8026-6699844a2719","","2584","
                <div class=""stimulus-container"">
                    <img src=""images/semantic_sequence/visiting_cities_semantic/visiting_cities_semantic_5.png"" class=""exp-image"">
                    <div class=""question-area"">
                        <p style=""font-size: 20px; font-weight: bold; margin: 0;"">Is there a person in this image?</p>
                    </div>
                </div>","1","main_experiment_trial","5","visiting_cities_semantic","semantic_sequence","chronological","","","","","","","",""
"","","","","","html-keyboard-response","27","114970","0.0-27.0","23A5EE68CA014CDDA6AEF3FBA2EE2A37","019d6685-093e-7e7d-82d6-766414f631c6","019d6630-2071-75cb-8026-6699844a2719","","null","
                <div class=""stimulus-container"">
                    <img src=""images/semantic_sequence/visiting_cities_semantic/visiting_cities_semantic_6.png"" class=""exp-image"">
                    <div class=""question-area""></div> 
                </div>","null","","","","","","","","","","","","",""
"","","","","","html-button-response","28","117971","0.0-28.0","23A5EE68CA014CDDA6AEF3FBA2EE2A37","019d6685-093e-7e7d-82d6-766414f631c6","019d6630-2071-75cb-8026-6699844a2719","","null","
                <div class=""stimulus-container"">
                    <img src=""images/semantic_sequence/visiting_cities_semantic/visiting_cities_semantic_6.png"" class=""exp-image"">
                    <div class=""question-area"">
                        <p style=""font-size: 20px; font-weight: bold; margin: 0;"">Is there a person in this image?</p>
                    </div>
                </div>","null","main_experiment_trial","6","visiting_cities_semantic","semantic_sequence","chronological","","","","","","","",""
"","","","","","html-keyboard-response","29","122982","0.0-29.0","23A5EE68CA014CDDA6AEF3FBA2EE2A37","019d6685-093e-7e7d-82d6-766414f631c6","019d6630-2071-75cb-8026-6699844a2719","","null","
                <div class=""stimulus-container"">
                    <img src=""images/semantic_sequence/visiting_cities_semantic/visiting_cities_semantic_7.png"" class=""exp-image"">
                    <div class=""question-area""></div> 
                </div>","null","","","","","","","","","","","","",""
"","","","","","html-button-response","30","123935","0.0-30.0","23A5EE68CA014CDDA6AEF3FBA2EE2A37","019d6685-093e-7e7d-82d6-766414f631c6","019d6630-2071-75cb-8026-6699844a2719","","953","
                <div class=""stimulus-container"">
                    <img src=""images/semantic_sequence/visiting_cities_semantic/visiting_cities_semantic_7.png"" class=""exp-image"">
                    <div class=""question-area"">
                        <p style=""font-size: 20px; font-weight: bold; margin: 0;"">Is there a person in this image?</p>
                    </div>
                </div>","0","main_experiment_trial","7","visiting_cities_semantic","semantic_sequence","chronological","","","","","","","",""
"","","","","","html-keyboard-response","31","128942","0.0-31.0","23A5EE68CA014CDDA6AEF3FBA2EE2A37","019d6685-093e-7e7d-82d6-766414f631c6","019d6630-2071-75cb-8026-6699844a2719","","null","
                <div class=""stimulus-container"">
                    <img src=""images/semantic_sequence/visiting_cities_semantic/visiting_cities_semantic_8.png"" class=""exp-image"">
                    <div class=""question-area""></div> 
                </div>","null","","","","","","","","","","","","",""
"","","","","","html-button-response","32","129929","0.0-32.0","23A5EE68CA014CDDA6AEF3FBA2EE2A37","019d6685-093e-7e7d-82d6-766414f631c6","019d6630-2071-75cb-8026-6699844a2719","","987","
                <div class=""stimulus-container"">
                    <img src=""images/semantic_sequence/visiting_cities_semantic/visiting_cities_semantic_8.png"" class=""exp-image"">
                    <div class=""question-area"">
                        <p style=""font-size: 20px; font-weight: bold; margin: 0;"">Is there a person in this image?</p>
                    </div>
                </div>","0","main_experiment_trial","8","visiting_cities_semantic","semantic_sequence","chronological","","","","","","","",""
"","","","","","html-keyboard-response","33","134934","0.0-33.0","23A5EE68CA014CDDA6AEF3FBA2EE2A37","019d6685-093e-7e7d-82d6-766414f631c6","019d6630-2071-75cb-8026-6699844a2719","","null","
                <div class=""stimulus-container"">
                    <img src=""images/semantic_sequence/visiting_cities_semantic/visiting_cities_semantic_9.png"" class=""exp-image"">
                    <div class=""question-area""></div> 
                </div>","null","","","","","","","","","","","","",""
"","","","","","html-button-response","34","136137","0.0-34.0","23A5EE68CA014CDDA6AEF3FBA2EE2A37","019d6685-093e-7e7d-82d6-766414f631c6","019d6630-2071-75cb-8026-6699844a2719","","1203","
                <div class=""stimulus-container"">
                    <img src=""images/semantic_sequence/visiting_cities_semantic/visiting_cities_semantic_9.png"" class=""exp-image"">
                    <div class=""question-area"">
                        <p style=""font-size: 20px; font-weight: bold; margin: 0;"">Is there a person in this image?</p>
                    </div>
                </div>","0","main_experiment_trial","9","visiting_cities_semantic","semantic_sequence","chronological","","","","","","","",""
"","","","","","html-keyboard-response","35","141141","0.0-35.0","23A5EE68CA014CDDA6AEF3FBA2EE2A37","019d6685-093e-7e7d-82d6-766414f631c6","019d6630-2071-75cb-8026-6699844a2719","","null","
                <div class=""stimulus-container"">
                    <img src=""images/semantic_sequence/visiting_cities_semantic/visiting_cities_semantic_ten.png"" class=""exp-image"">
                    <div class=""question-area""></div> 
                </div>","null","","","","","","","","","","","","",""
"","","","","","html-button-response","36","142405","0.0-36.0","23A5EE68CA014CDDA6AEF3FBA2EE2A37","019d6685-093e-7e7d-82d6-766414f631c6","019d6630-2071-75cb-8026-6699844a2719","","1264","
                <div class=""stimulus-container"">
                    <img src=""images/semantic_sequence/visiting_cities_semantic/visiting_cities_semantic_ten.png"" class=""exp-image"">
                    <div class=""question-area"">
                        <p style=""font-size: 20px; font-weight: bold; margin: 0;"">Is there a person in this image?</p>
                    </div>
                </div>","0","main_experiment_trial","ten","visiting_cities_semantic","semantic_sequence","chronological","","","","","","","",""
"","","","","","html-keyboard-response","37","147407","0.0-37.0","23A5EE68CA014CDDA6AEF3FBA2EE2A37","019d6685-093e-7e7d-82d6-766414f631c6","019d6630-2071-75cb-8026-6699844a2719","","null","<div style=""background-color: white; width: 100vw; height: 100vh;""></div>","null","","","","","","","","","","","","",""
"","","","","","html-keyboard-response","38","152417","0.0-38.0","23A5EE68CA014CDDA6AEF3FBA2EE2A37","019d6685-093e-7e7d-82d6-766414f631c6","019d6630-2071-75cb-8026-6699844a2719","","null","
                <div class=""stimulus-container"">
                    <img src=""images/causal_sequence/dog_causal/dog_causal_1.png"" class=""exp-image"">
                    <div class=""question-area""></div> 
                </div>","null","","","","","","","","","","","","",""
"","","","","","html-button-response","39","153656","0.0-39.0","23A5EE68CA014CDDA6AEF3FBA2EE2A37","019d6685-093e-7e7d-82d6-766414f631c6","019d6630-2071-75cb-8026-6699844a2719","","1239","
                <div class=""stimulus-container"">
                    <img src=""images/causal_sequence/dog_causal/dog_causal_1.png"" class=""exp-image"">
                    <div class=""question-area"">
                        <p style=""font-size: 20px; font-weight: bold; margin: 0;"">Is there a person in this image?</p>
                    </div>
                </div>","0","main_experiment_trial","1","dog_causal","causal_sequence","chronological","","","","","","","",""
"","","","","","html-keyboard-response","40","158663","0.0-40.0","23A5EE68CA014CDDA6AEF3FBA2EE2A37","019d6685-093e-7e7d-82d6-766414f631c6","019d6630-2071-75cb-8026-6699844a2719","","null","
                <div class=""stimulus-container"">
                    <img src=""images/causal_sequence/dog_causal/dog_causal_2.png"" class=""exp-image"">
                    <div class=""question-area""></div> 
                </div>","null","","","","","","","","","","","","",""
"","","","","","html-button-response","41","159263","0.0-41.0","23A5EE68CA014CDDA6AEF3FBA2EE2A37","019d6685-093e-7e7d-82d6-766414f631c6","019d6630-2071-75cb-8026-6699844a2719","","599","
                <div class=""stimulus-container"">
                    <img src=""images/causal_sequence/dog_causal/dog_causal_2.png"" class=""exp-image"">
                    <div class=""question-area"">
                        <p style=""font-size: 20px; font-weight: bold; margin: 0;"">Is there a person in this image?</p>
                    </div>
                </div>","0","main_experiment_trial","2","dog_causal","causal_sequence","chronological","","","","","","","",""
"","","","","","html-keyboard-response","42","164274","0.0-42.0","23A5EE68CA014CDDA6AEF3FBA2EE2A37","019d6685-093e-7e7d-82d6-766414f631c6","019d6630-2071-75cb-8026-6699844a2719","","null","
                <div class=""stimulus-container"">
                    <img src=""images/causal_sequence/dog_causal/dog_causal_3.png"" class=""exp-image"">
                    <div class=""question-area""></div> 
                </div>","null","","","","","","","","","","","","",""
"","","","","","html-button-response","43","164886","0.0-43.0","23A5EE68CA014CDDA6AEF3FBA2EE2A37","019d6685-093e-7e7d-82d6-766414f631c6","019d6630-2071-75cb-8026-6699844a2719","","611","
                <div class=""stimulus-container"">
                    <img src=""images/causal_sequence/dog_causal/dog_causal_3.png"" class=""exp-image"">
                    <div class=""question-area"">
                        <p style=""font-size: 20px; font-weight: bold; margin: 0;"">Is there a person in this image?</p>
                    </div>
                </div>","0","main_experiment_trial","3","dog_causal","causal_sequence","chronological","","","","","","","",""
"","","","","","html-keyboard-response","44","169902","0.0-44.0","23A5EE68CA014CDDA6AEF3FBA2EE2A37","019d6685-093e-7e7d-82d6-766414f631c6","019d6630-2071-75cb-8026-6699844a2719","","null","
                <div class=""stimulus-container"">
                    <img src=""images/causal_sequence/dog_causal/dog_causal_4.png"" class=""exp-image"">
                    <div class=""question-area""></div> 
                </div>","null","","","","","","","","","","","","",""
"","","","","","html-button-response","45","170534","0.0-45.0","23A5EE68CA014CDDA6AEF3FBA2EE2A37","019d6685-093e-7e7d-82d6-766414f631c6","019d6630-2071-75cb-8026-6699844a2719","","632","
                <div class=""stimulus-container"">
                    <img src=""images/causal_sequence/dog_causal/dog_causal_4.png"" class=""exp-image"">
                    <div class=""question-area"">
                        <p style=""font-size: 20px; font-weight: bold; margin: 0;"">Is there a person in this image?</p>
                    </div>
                </div>","0","main_experiment_trial","4","dog_causal","causal_sequence","chronological","","","","","","","",""
"","","","","","html-keyboard-response","46","175546","0.0-46.0","23A5EE68CA014CDDA6AEF3FBA2EE2A37","019d6685-093e-7e7d-82d6-766414f631c6","019d6630-2071-75cb-8026-6699844a2719","","null","
                <div class=""stimulus-container"">
                    <img src=""images/causal_sequence/dog_causal/dog_causal_5.png"" class=""exp-image"">
                    <div class=""question-area""></div> 
                </div>","null","","","","","","","","","","","","",""
"","","","","","html-button-response","47","176373","0.0-47.0","23A5EE68CA014CDDA6AEF3FBA2EE2A37","019d6685-093e-7e7d-82d6-766414f631c6","019d6630-2071-75cb-8026-6699844a2719","","828","
                <div class=""stimulus-container"">
                    <img src=""images/causal_sequence/dog_causal/dog_causal_5.png"" class=""exp-image"">
                    <div class=""question-area"">
                        <p style=""font-size: 20px; font-weight: bold; margin: 0;"">Is there a person in this image?</p>
                    </div>
                </div>","0","main_experiment_trial","5","dog_causal","causal_sequence","chronological","","","","","","","",""
"","","","","","html-keyboard-response","48","181378","0.0-48.0","23A5EE68CA014CDDA6AEF3FBA2EE2A37","019d6685-093e-7e7d-82d6-766414f631c6","019d6630-2071-75cb-8026-6699844a2719","","null","
                <div class=""stimulus-container"">
                    <img src=""images/causal_sequence/dog_causal/dog_causal_6.png"" class=""exp-image"">
                    <div class=""question-area""></div> 
                </div>","null","","","","","","","","","","","","",""
"","","","","","html-button-response","49","181905","0.0-49.0","23A5EE68CA014CDDA6AEF3FBA2EE2A37","019d6685-093e-7e7d-82d6-766414f631c6","019d6630-2071-75cb-8026-6699844a2719","","526","
                <div class=""stimulus-container"">
                    <img src=""images/causal_sequence/dog_causal/dog_causal_6.png"" class=""exp-image"">
                    <div class=""question-area"">
                        <p style=""font-size: 20px; font-weight: bold; margin: 0;"">Is there a person in this image?</p>
                    </div>
                </div>","0","main_experiment_trial","6","dog_causal","causal_sequence","chronological","","","","","","","",""
"","","","","","html-keyboard-response","50","186908","0.0-50.0","23A5EE68CA014CDDA6AEF3FBA2EE2A37","019d6685-093e-7e7d-82d6-766414f631c6","019d6630-2071-75cb-8026-6699844a2719","","null","
                <div class=""stimulus-container"">
                    <img src=""images/causal_sequence/dog_causal/dog_causal_7.png"" class=""exp-image"">
                    <div class=""question-area""></div> 
                </div>","null","","","","","","","","","","","","",""
"","","","","","html-button-response","51","187440","0.0-51.0","23A5EE68CA014CDDA6AEF3FBA2EE2A37","019d6685-093e-7e7d-82d6-766414f631c6","019d6630-2071-75cb-8026-6699844a2719","","532","
                <div class=""stimulus-container"">
                    <img src=""images/causal_sequence/dog_causal/dog_causal_7.png"" class=""exp-image"">
                    <div class=""question-area"">
                        <p style=""font-size: 20px; font-weight: bold; margin: 0;"">Is there a person in this image?</p>
                    </div>
                </div>","0","main_experiment_trial","7","dog_causal","causal_sequence","chronological","","","","","","","",""
"","","","","","html-keyboard-response","52","192450","0.0-52.0","23A5EE68CA014CDDA6AEF3FBA2EE2A37","019d6685-093e-7e7d-82d6-766414f631c6","019d6630-2071-75cb-8026-6699844a2719","","null","
                <div class=""stimulus-container"">
                    <img src=""images/causal_sequence/dog_causal/dog_causal_8.png"" class=""exp-image"">
                    <div class=""question-area""></div> 
                </div>","null","","","","","","","","","","","","",""
"","","","","","html-button-response","53","193003","0.0-53.0","23A5EE68CA014CDDA6AEF3FBA2EE2A37","019d6685-093e-7e7d-82d6-766414f631c6","019d6630-2071-75cb-8026-6699844a2719","","552","
                <div class=""stimulus-container"">
                    <img src=""images/causal_sequence/dog_causal/dog_causal_8.png"" class=""exp-image"">
                    <div class=""question-area"">
                        <p style=""font-size: 20px; font-weight: bold; margin: 0;"">Is there a person in this image?</p>
                    </div>
                </div>","0","main_experiment_trial","8","dog_causal","causal_sequence","chronological","","","","","","","",""
"","","","","","html-keyboard-response","54","198010","0.0-54.0","23A5EE68CA014CDDA6AEF3FBA2EE2A37","019d6685-093e-7e7d-82d6-766414f631c6","019d6630-2071-75cb-8026-6699844a2719","","null","
                <div class=""stimulus-container"">
                    <img src=""images/causal_sequence/dog_causal/dog_causal_9.png"" class=""exp-image"">
                    <div class=""question-area""></div> 
                </div>","null","","","","","","","","","","","","",""
"","","","","","html-button-response","55","198584","0.0-55.0","23A5EE68CA014CDDA6AEF3FBA2EE2A37","019d6685-093e-7e7d-82d6-766414f631c6","019d6630-2071-75cb-8026-6699844a2719","","574","
                <div class=""stimulus-container"">
                    <img src=""images/causal_sequence/dog_causal/dog_causal_9.png"" class=""exp-image"">
                    <div class=""question-area"">
                        <p style=""font-size: 20px; font-weight: bold; margin: 0;"">Is there a person in this image?</p>
                    </div>
                </div>","0","main_experiment_trial","9","dog_causal","causal_sequence","chronological","","","","","","","",""
"","","","","","html-keyboard-response","56","203592","0.0-56.0","23A5EE68CA014CDDA6AEF3FBA2EE2A37","019d6685-093e-7e7d-82d6-766414f631c6","019d6630-2071-75cb-8026-6699844a2719","","null","
                <div class=""stimulus-container"">
                    <img src=""images/causal_sequence/dog_causal/dog_causal_ten.png"" class=""exp-image"">
                    <div class=""question-area""></div> 
                </div>","null","","","","","","","","","","","","",""
"","","","","","html-button-response","57","204310","0.0-57.0","23A5EE68CA014CDDA6AEF3FBA2EE2A37","019d6685-093e-7e7d-82d6-766414f631c6","019d6630-2071-75cb-8026-6699844a2719","","718","
                <div class=""stimulus-container"">
                    <img src=""images/causal_sequence/dog_causal/dog_causal_ten.png"" class=""exp-image"">
                    <div class=""question-area"">
                        <p style=""font-size: 20px; font-weight: bold; margin: 0;"">Is there a person in this image?</p>
                    </div>
                </div>","0","main_experiment_trial","ten","dog_causal","causal_sequence","chronological","","","","","","","",""
"","","","","","html-keyboard-response","58","209326","0.0-58.0","23A5EE68CA014CDDA6AEF3FBA2EE2A37","019d6685-093e-7e7d-82d6-766414f631c6","019d6630-2071-75cb-8026-6699844a2719","","null","<div style=""background-color: white; width: 100vw; height: 100vh;""></div>","null","","","","","","","","","","","","",""
"","","","","","html-keyboard-response","59","214326","0.0-59.0","23A5EE68CA014CDDA6AEF3FBA2EE2A37","019d6685-093e-7e7d-82d6-766414f631c6","019d6630-2071-75cb-8026-6699844a2719","","null","
                <div class=""stimulus-container"">
                    <img src=""images/schematic_sequence/hotel_scheme/hotel_scheme_1.png"" class=""exp-image"">
                    <div class=""question-area""></div> 
                </div>","null","","","","","","","","","","","","",""
"","","","","","html-button-response","60","215087","0.0-60.0","23A5EE68CA014CDDA6AEF3FBA2EE2A37","019d6685-093e-7e7d-82d6-766414f631c6","019d6630-2071-75cb-8026-6699844a2719","","761","
                <div class=""stimulus-container"">
                    <img src=""images/schematic_sequence/hotel_scheme/hotel_scheme_1.png"" class=""exp-image"">
                    <div class=""question-area"">
                        <p style=""font-size: 20px; font-weight: bold; margin: 0;"">Is there a person in this image?</p>
                    </div>
                </div>","1","main_experiment_trial","1","hotel_scheme","schematic_sequence","chronological","","","","","","","",""
"","","","","","html-keyboard-response","61","220089","0.0-61.0","23A5EE68CA014CDDA6AEF3FBA2EE2A37","019d6685-093e-7e7d-82d6-766414f631c6","019d6630-2071-75cb-8026-6699844a2719","","null","
                <div class=""stimulus-container"">
                    <img src=""images/schematic_sequence/hotel_scheme/hotel_scheme_2.png"" class=""exp-image"">
                    <div class=""question-area""></div> 
                </div>","null","","","","","","","","","","","","",""
"","","","","","html-button-response","62","221310","0.0-62.0","23A5EE68CA014CDDA6AEF3FBA2EE2A37","019d6685-093e-7e7d-82d6-766414f631c6","019d6630-2071-75cb-8026-6699844a2719","","1221","
                <div class=""stimulus-container"">
                    <img src=""images/schematic_sequence/hotel_scheme/hotel_scheme_2.png"" class=""exp-image"">
                    <div class=""question-area"">
                        <p style=""font-size: 20px; font-weight: bold; margin: 0;"">Is there a person in this image?</p>
                    </div>
                </div>","0","main_experiment_trial","2","hotel_scheme","schematic_sequence","chronological","","","","","","","",""
"","","","","","html-keyboard-response","63","226314","0.0-63.0","23A5EE68CA014CDDA6AEF3FBA2EE2A37","019d6685-093e-7e7d-82d6-766414f631c6","019d6630-2071-75cb-8026-6699844a2719","","null","
                <div class=""stimulus-container"">
                    <img src=""images/schematic_sequence/hotel_scheme/hotel_scheme_3.png"" class=""exp-image"">
                    <div class=""question-area""></div> 
                </div>","null","","","","","","","","","","","","",""
"","","","","","html-button-response","64","226983","0.0-64.0","23A5EE68CA014CDDA6AEF3FBA2EE2A37","019d6685-093e-7e7d-82d6-766414f631c6","019d6630-2071-75cb-8026-6699844a2719","","669","
                <div class=""stimulus-container"">
                    <img src=""images/schematic_sequence/hotel_scheme/hotel_scheme_3.png"" class=""exp-image"">
                    <div class=""question-area"">
                        <p style=""font-size: 20px; font-weight: bold; margin: 0;"">Is there a person in this image?</p>
                    </div>
                </div>","0","main_experiment_trial","3","hotel_scheme","schematic_sequence","chronological","","","","","","","",""
"","","","","","html-keyboard-response","65","231991","0.0-65.0","23A5EE68CA014CDDA6AEF3FBA2EE2A37","019d6685-093e-7e7d-82d6-766414f631c6","019d6630-2071-75cb-8026-6699844a2719","","null","
                <div class=""stimulus-container"">
                    <img src=""images/schematic_sequence/hotel_scheme/hotel_scheme_4.png"" class=""exp-image"">
                    <div class=""question-area""></div> 
                </div>","null","","","","","","","","","","","","",""
"","","","","","html-button-response","66","235004","0.0-66.0","23A5EE68CA014CDDA6AEF3FBA2EE2A37","019d6685-093e-7e7d-82d6-766414f631c6","019d6630-2071-75cb-8026-6699844a2719","","null","
                <div class=""stimulus-container"">
                    <img src=""images/schematic_sequence/hotel_scheme/hotel_scheme_4.png"" class=""exp-image"">
                    <div class=""question-area"">
                        <p style=""font-size: 20px; font-weight: bold; margin: 0;"">Is there a person in this image?</p>
                    </div>
                </div>","null","main_experiment_trial","4","hotel_scheme","schematic_sequence","chronological","","","","","","","",""
"","","","","","html-keyboard-response","67","240017","0.0-67.0","23A5EE68CA014CDDA6AEF3FBA2EE2A37","019d6685-093e-7e7d-82d6-766414f631c6","019d6630-2071-75cb-8026-6699844a2719","","null","
                <div class=""stimulus-container"">
                    <img src=""images/schematic_sequence/hotel_scheme/hotel_scheme_5.png"" class=""exp-image"">
                    <div class=""question-area""></div> 
                </div>","null","","","","","","","","","","","","",""
"","","","","","html-button-response","68","243034","0.0-68.0","23A5EE68CA014CDDA6AEF3FBA2EE2A37","019d6685-093e-7e7d-82d6-766414f631c6","019d6630-2071-75cb-8026-6699844a2719","","null","
                <div class=""stimulus-container"">
                    <img src=""images/schematic_sequence/hotel_scheme/hotel_scheme_5.png"" class=""exp-image"">
                    <div class=""question-area"">
                        <p style=""font-size: 20px; font-weight: bold; margin: 0;"">Is there a person in this image?</p>
                    </div>
                </div>","null","main_experiment_trial","5","hotel_scheme","schematic_sequence","chronological","","","","","","","",""
"","","","","","html-keyboard-response","69","248037","0.0-69.0","23A5EE68CA014CDDA6AEF3FBA2EE2A37","019d6685-093e-7e7d-82d6-766414f631c6","019d6630-2071-75cb-8026-6699844a2719","","null","
                <div class=""stimulus-container"">
                    <img src=""images/schematic_sequence/hotel_scheme/hotel_scheme_6.png"" class=""exp-image"">
                    <div class=""question-area""></div> 
                </div>","null","","","","","","","","","","","","",""
"","","","","","html-button-response","70","248896","0.0-70.0","23A5EE68CA014CDDA6AEF3FBA2EE2A37","019d6685-093e-7e7d-82d6-766414f631c6","019d6630-2071-75cb-8026-6699844a2719","","859","
                <div class=""stimulus-container"">
                    <img src=""images/schematic_sequence/hotel_scheme/hotel_scheme_6.png"" class=""exp-image"">
                    <div class=""question-area"">
                        <p style=""font-size: 20px; font-weight: bold; margin: 0;"">Is there a person in this image?</p>
                    </div>
                </div>","0","main_experiment_trial","6","hotel_scheme","schematic_sequence","chronological","","","","","","","",""
"","","","","","html-keyboard-response","71","253897","0.0-71.0","23A5EE68CA014CDDA6AEF3FBA2EE2A37","019d6685-093e-7e7d-82d6-766414f631c6","019d6630-2071-75cb-8026-6699844a2719","","null","
                <div class=""stimulus-container"">
                    <img src=""images/schematic_sequence/hotel_scheme/hotel_scheme_7.png"" class=""exp-image"">
                    <div class=""question-area""></div> 
                </div>","null","","","","","","","","","","","","",""
"","","","","","html-button-response","72","254604","0.0-72.0","23A5EE68CA014CDDA6AEF3FBA2EE2A37","019d6685-093e-7e7d-82d6-766414f631c6","019d6630-2071-75cb-8026-6699844a2719","","707","
                <div class=""stimulus-container"">
                    <img src=""images/schematic_sequence/hotel_scheme/hotel_scheme_7.png"" class=""exp-image"">
                    <div class=""question-area"">
                        <p style=""font-size: 20px; font-weight: bold; margin: 0;"">Is there a person in this image?</p>
                    </div>
                </div>","0","main_experiment_trial","7","hotel_scheme","schematic_sequence","chronological","","","","","","","",""
"","","","","","html-keyboard-response","73","259615","0.0-73.0","23A5EE68CA014CDDA6AEF3FBA2EE2A37","019d6685-093e-7e7d-82d6-766414f631c6","019d6630-2071-75cb-8026-6699844a2719","","null","
                <div class=""stimulus-container"">
                    <img src=""images/schematic_sequence/hotel_scheme/hotel_scheme_8.png"" class=""exp-image"">
                    <div class=""question-area""></div> 
                </div>","null","","","","","","","","","","","","",""
"","","","","","html-button-response","74","261080","0.0-74.0","23A5EE68CA014CDDA6AEF3FBA2EE2A37","019d6685-093e-7e7d-82d6-766414f631c6","019d6630-2071-75cb-8026-6699844a2719","","1464","
                <div class=""stimulus-container"">
                    <img src=""images/schematic_sequence/hotel_scheme/hotel_scheme_8.png"" class=""exp-image"">
                    <div class=""question-area"">
                        <p style=""font-size: 20px; font-weight: bold; margin: 0;"">Is there a person in this image?</p>
                    </div>
                </div>","0","main_experiment_trial","8","hotel_scheme","schematic_sequence","chronological","","","","","","","",""
"","","","","","html-keyboard-response","75","266093","0.0-75.0","23A5EE68CA014CDDA6AEF3FBA2EE2A37","019d6685-093e-7e7d-82d6-766414f631c6","019d6630-2071-75cb-8026-6699844a2719","","null","
                <div class=""stimulus-container"">
                    <img src=""images/schematic_sequence/hotel_scheme/hotel_scheme_9.png"" class=""exp-image"">
                    <div class=""question-area""></div> 
                </div>","null","","","","","","","","","","","","",""
"","","","","","html-button-response","76","266910","0.0-76.0","23A5EE68CA014CDDA6AEF3FBA2EE2A37","019d6685-093e-7e7d-82d6-766414f631c6","019d6630-2071-75cb-8026-6699844a2719","","816","
                <div class=""stimulus-container"">
                    <img src=""images/schematic_sequence/hotel_scheme/hotel_scheme_9.png"" class=""exp-image"">
                    <div class=""question-area"">
                        <p style=""font-size: 20px; font-weight: bold; margin: 0;"">Is there a person in this image?</p>
                    </div>
                </div>","0","main_experiment_trial","9","hotel_scheme","schematic_sequence","chronological","","","","","","","",""
"","","","","","html-keyboard-response","77","271921","0.0-77.0","23A5EE68CA014CDDA6AEF3FBA2EE2A37","019d6685-093e-7e7d-82d6-766414f631c6","019d6630-2071-75cb-8026-6699844a2719","","null","
                <div class=""stimulus-container"">
                    <img src=""images/schematic_sequence/hotel_scheme/hotel_scheme_ten.png"" class=""exp-image"">
                    <div class=""question-area""></div> 
                </div>","null","","","","","","","","","","","","",""
"","","","","","html-button-response","78","272636","0.0-78.0","23A5EE68CA014CDDA6AEF3FBA2EE2A37","019d6685-093e-7e7d-82d6-766414f631c6","019d6630-2071-75cb-8026-6699844a2719","","715","
                <div class=""stimulus-container"">
                    <img src=""images/schematic_sequence/hotel_scheme/hotel_scheme_ten.png"" class=""exp-image"">
                    <div class=""question-area"">
                        <p style=""font-size: 20px; font-weight: bold; margin: 0;"">Is there a person in this image?</p>
                    </div>
                </div>","0","main_experiment_trial","ten","hotel_scheme","schematic_sequence","chronological","","","","","","","",""
"","","","","","html-keyboard-response","79","277650","0.0-79.0","23A5EE68CA014CDDA6AEF3FBA2EE2A37","019d6685-093e-7e7d-82d6-766414f631c6","019d6630-2071-75cb-8026-6699844a2719","","null","<div style=""background-color: white; width: 100vw; height: 100vh;""></div>","null","","","","","","","","","","","","",""
"","","","","","html-keyboard-response","80","282652","0.0-80.0","23A5EE68CA014CDDA6AEF3FBA2EE2A37","019d6685-093e-7e7d-82d6-766414f631c6","019d6630-2071-75cb-8026-6699844a2719","","null","
                <div class=""stimulus-container"">
                    <img src=""images/schematic_sequence/restaurant_scheme/restaurant_scheme_1.png"" class=""exp-image"">
                    <div class=""question-area""></div> 
                </div>","null","","","","","","","","","","","","",""
"","","","","","html-button-response","81","284122","0.0-81.0","23A5EE68CA014CDDA6AEF3FBA2EE2A37","019d6685-093e-7e7d-82d6-766414f631c6","019d6630-2071-75cb-8026-6699844a2719","","1471","
                <div class=""stimulus-container"">
                    <img src=""images/schematic_sequence/restaurant_scheme/restaurant_scheme_1.png"" class=""exp-image"">
                    <div class=""question-area"">
                        <p style=""font-size: 20px; font-weight: bold; margin: 0;"">Is there a person in this image?</p>
                    </div>
                </div>","0","main_experiment_trial","1","restaurant_scheme","schematic_sequence","chronological","","","","","","","",""
"","","","","","html-keyboard-response","82","289136","0.0-82.0","23A5EE68CA014CDDA6AEF3FBA2EE2A37","019d6685-093e-7e7d-82d6-766414f631c6","019d6630-2071-75cb-8026-6699844a2719","","null","
                <div class=""stimulus-container"">
                    <img src=""images/schematic_sequence/restaurant_scheme/restaurant_scheme_2.png"" class=""exp-image"">
                    <div class=""question-area""></div> 
                </div>","null","","","","","","","","","","","","",""
"","","","","","html-button-response","83","290751","0.0-83.0","23A5EE68CA014CDDA6AEF3FBA2EE2A37","019d6685-093e-7e7d-82d6-766414f631c6","019d6630-2071-75cb-8026-6699844a2719","","1614","
                <div class=""stimulus-container"">
                    <img src=""images/schematic_sequence/restaurant_scheme/restaurant_scheme_2.png"" class=""exp-image"">
                    <div class=""question-area"">
                        <p style=""font-size: 20px; font-weight: bold; margin: 0;"">Is there a person in this image?</p>
                    </div>
                </div>","1","main_experiment_trial","2","restaurant_scheme","schematic_sequence","chronological","","","","","","","",""
"","","","","","html-keyboard-response","84","295756","0.0-84.0","23A5EE68CA014CDDA6AEF3FBA2EE2A37","019d6685-093e-7e7d-82d6-766414f631c6","019d6630-2071-75cb-8026-6699844a2719","","null","
                <div class=""stimulus-container"">
                    <img src=""images/schematic_sequence/restaurant_scheme/restaurant_scheme_3.png"" class=""exp-image"">
                    <div class=""question-area""></div> 
                </div>","null","","","","","","","","","","","","",""
"","","","","","html-button-response","85","298486","0.0-85.0","23A5EE68CA014CDDA6AEF3FBA2EE2A37","019d6685-093e-7e7d-82d6-766414f631c6","019d6630-2071-75cb-8026-6699844a2719","","2730","
                <div class=""stimulus-container"">
                    <img src=""images/schematic_sequence/restaurant_scheme/restaurant_scheme_3.png"" class=""exp-image"">
                    <div class=""question-area"">
                        <p style=""font-size: 20px; font-weight: bold; margin: 0;"">Is there a person in this image?</p>
                    </div>
                </div>","1","main_experiment_trial","3","restaurant_scheme","schematic_sequence","chronological","","","","","","","",""
"","","","","","html-keyboard-response","86","303493","0.0-86.0","23A5EE68CA014CDDA6AEF3FBA2EE2A37","019d6685-093e-7e7d-82d6-766414f631c6","019d6630-2071-75cb-8026-6699844a2719","","null","
                <div class=""stimulus-container"">
                    <img src=""images/schematic_sequence/restaurant_scheme/restaurant_scheme_4.png"" class=""exp-image"">
                    <div class=""question-area""></div> 
                </div>","null","","","","","","","","","","","","",""
"","","","","","html-button-response","87","305365","0.0-87.0","23A5EE68CA014CDDA6AEF3FBA2EE2A37","019d6685-093e-7e7d-82d6-766414f631c6","019d6630-2071-75cb-8026-6699844a2719","","1872","
                <div class=""stimulus-container"">
                    <img src=""images/schematic_sequence/restaurant_scheme/restaurant_scheme_4.png"" class=""exp-image"">
                    <div class=""question-area"">
                        <p style=""font-size: 20px; font-weight: bold; margin: 0;"">Is there a person in this image?</p>
                    </div>
                </div>","0","main_experiment_trial","4","restaurant_scheme","schematic_sequence","chronological","","","","","","","",""
"","","","","","html-keyboard-response","88","310371","0.0-88.0","23A5EE68CA014CDDA6AEF3FBA2EE2A37","019d6685-093e-7e7d-82d6-766414f631c6","019d6630-2071-75cb-8026-6699844a2719","","null","
                <div class=""stimulus-container"">
                    <img src=""images/schematic_sequence/restaurant_scheme/restaurant_scheme_5.png"" class=""exp-image"">
                    <div class=""question-area""></div> 
                </div>","null","","","","","","","","","","","","",""
"","","","","","html-button-response","89","311467","0.0-89.0","23A5EE68CA014CDDA6AEF3FBA2EE2A37","019d6685-093e-7e7d-82d6-766414f631c6","019d6630-2071-75cb-8026-6699844a2719","","1096","
                <div class=""stimulus-container"">
                    <img src=""images/schematic_sequence/restaurant_scheme/restaurant_scheme_5.png"" class=""exp-image"">
                    <div class=""question-area"">
                        <p style=""font-size: 20px; font-weight: bold; margin: 0;"">Is there a person in this image?</p>
                    </div>
                </div>","0","main_experiment_trial","5","restaurant_scheme","schematic_sequence","chronological","","","","","","","",""
"","","","","","html-keyboard-response","90","316477","0.0-90.0","23A5EE68CA014CDDA6AEF3FBA2EE2A37","019d6685-093e-7e7d-82d6-766414f631c6","019d6630-2071-75cb-8026-6699844a2719","","null","
                <div class=""stimulus-container"">
                    <img src=""images/schematic_sequence/restaurant_scheme/restaurant_scheme_6.png"" class=""exp-image"">
                    <div class=""question-area""></div> 
                </div>","null","","","","","","","","","","","","",""
"","","","","","html-button-response","91","317861","0.0-91.0","23A5EE68CA014CDDA6AEF3FBA2EE2A37","019d6685-093e-7e7d-82d6-766414f631c6","019d6630-2071-75cb-8026-6699844a2719","","1384","
                <div class=""stimulus-container"">
                    <img src=""images/schematic_sequence/restaurant_scheme/restaurant_scheme_6.png"" class=""exp-image"">
                    <div class=""question-area"">
                        <p style=""font-size: 20px; font-weight: bold; margin: 0;"">Is there a person in this image?</p>
                    </div>
                </div>","1","main_experiment_trial","6","restaurant_scheme","schematic_sequence","chronological","","","","","","","",""
"","","","","","html-keyboard-response","92","322869","0.0-92.0","23A5EE68CA014CDDA6AEF3FBA2EE2A37","019d6685-093e-7e7d-82d6-766414f631c6","019d6630-2071-75cb-8026-6699844a2719","","null","
                <div class=""stimulus-container"">
                    <img src=""images/schematic_sequence/restaurant_scheme/restaurant_scheme_7.png"" class=""exp-image"">
                    <div class=""question-area""></div> 
                </div>","null","","","","","","","","","","","","",""
"","","","","","html-button-response","93","324199","0.0-93.0","23A5EE68CA014CDDA6AEF3FBA2EE2A37","019d6685-093e-7e7d-82d6-766414f631c6","019d6630-2071-75cb-8026-6699844a2719","","1331","
                <div class=""stimulus-container"">
                    <img src=""images/schematic_sequence/restaurant_scheme/restaurant_scheme_7.png"" class=""exp-image"">
                    <div class=""question-area"">
                        <p style=""font-size: 20px; font-weight: bold; margin: 0;"">Is there a person in this image?</p>
                    </div>
                </div>","1","main_experiment_trial","7","restaurant_scheme","schematic_sequence","chronological","","","","","","","",""
"","","","","","html-keyboard-response","94","329203","0.0-94.0","23A5EE68CA014CDDA6AEF3FBA2EE2A37","019d6685-093e-7e7d-82d6-766414f631c6","019d6630-2071-75cb-8026-6699844a2719","","null","
                <div class=""stimulus-container"">
                    <img src=""images/schematic_sequence/restaurant_scheme/restaurant_scheme_8.png"" class=""exp-image"">
                    <div class=""question-area""></div> 
                </div>","null","","","","","","","","","","","","",""
"","","","","","html-button-response","95","330033","0.0-95.0","23A5EE68CA014CDDA6AEF3FBA2EE2A37","019d6685-093e-7e7d-82d6-766414f631c6","019d6630-2071-75cb-8026-6699844a2719","","830","
                <div class=""stimulus-container"">
                    <img src=""images/schematic_sequence/restaurant_scheme/restaurant_scheme_8.png"" class=""exp-image"">
                    <div class=""question-area"">
                        <p style=""font-size: 20px; font-weight: bold; margin: 0;"">Is there a person in this image?</p>
                    </div>
                </div>","1","main_experiment_trial","8","restaurant_scheme","schematic_sequence","chronological","","","","","","","",""
"","","","","","html-keyboard-response","96","335045","0.0-96.0","23A5EE68CA014CDDA6AEF3FBA2EE2A37","019d6685-093e-7e7d-82d6-766414f631c6","019d6630-2071-75cb-8026-6699844a2719","","null","
                <div class=""stimulus-container"">
                    <img src=""images/schematic_sequence/restaurant_scheme/restaurant_scheme_9.png"" class=""exp-image"">
                    <div class=""question-area""></div> 
                </div>","null","","","","","","","","","","","","",""
"","","","","","html-button-response","97","336480","0.0-97.0","23A5EE68CA014CDDA6AEF3FBA2EE2A37","019d6685-093e-7e7d-82d6-766414f631c6","019d6630-2071-75cb-8026-6699844a2719","","1435","
                <div class=""stimulus-container"">
                    <img src=""images/schematic_sequence/restaurant_scheme/restaurant_scheme_9.png"" class=""exp-image"">
                    <div class=""question-area"">
                        <p style=""font-size: 20px; font-weight: bold; margin: 0;"">Is there a person in this image?</p>
                    </div>
                </div>","0","main_experiment_trial","9","restaurant_scheme","schematic_sequence","chronological","","","","","","","",""
"","","","","","html-keyboard-response","98","341493","0.0-98.0","23A5EE68CA014CDDA6AEF3FBA2EE2A37","019d6685-093e-7e7d-82d6-766414f631c6","019d6630-2071-75cb-8026-6699844a2719","","null","
                <div class=""stimulus-container"">
                    <img src=""images/schematic_sequence/restaurant_scheme/restaurant_scheme_ten.png"" class=""exp-image"">
                    <div class=""question-area""></div> 
                </div>","null","","","","","","","","","","","","",""
"","","","","","html-button-response","99","342528","0.0-99.0","23A5EE68CA014CDDA6AEF3FBA2EE2A37","019d6685-093e-7e7d-82d6-766414f631c6","019d6630-2071-75cb-8026-6699844a2719","","1035","
                <div class=""stimulus-container"">
                    <img src=""images/schematic_sequence/restaurant_scheme/restaurant_scheme_ten.png"" class=""exp-image"">
                    <div class=""question-area"">
                        <p style=""font-size: 20px; font-weight: bold; margin: 0;"">Is there a person in this image?</p>
                    </div>
                </div>","0","main_experiment_trial","ten","restaurant_scheme","schematic_sequence","chronological","","","","","","","",""
"","","","","","html-keyboard-response","100","347535","0.0-100.0","23A5EE68CA014CDDA6AEF3FBA2EE2A37","019d6685-093e-7e7d-82d6-766414f631c6","019d6630-2071-75cb-8026-6699844a2719","","null","<div style=""background-color: white; width: 100vw; height: 100vh;""></div>","null","","","","","","","","","","","","",""
"","","","","","html-keyboard-response","101","352540","0.0-101.0","23A5EE68CA014CDDA6AEF3FBA2EE2A37","019d6685-093e-7e7d-82d6-766414f631c6","019d6630-2071-75cb-8026-6699844a2719","","null","
                <div class=""stimulus-container"">
                    <img src=""images/causal_sequence/the_performance_causal/the_performance_causal_1.png"" class=""exp-image"">
                    <div class=""question-area""></div> 
                </div>","null","","","","","","","","","","","","",""
"","","","","","html-button-response","102","353385","0.0-102.0","23A5EE68CA014CDDA6AEF3FBA2EE2A37","019d6685-093e-7e7d-82d6-766414f631c6","019d6630-2071-75cb-8026-6699844a2719","","845","
                <div class=""stimulus-container"">
                    <img src=""images/causal_sequence/the_performance_causal/the_performance_causal_1.png"" class=""exp-image"">
                    <div class=""question-area"">
                        <p style=""font-size: 20px; font-weight: bold; margin: 0;"">Is there a person in this image?</p>
                    </div>
                </div>","0","main_experiment_trial","1","the_performance_causal","causal_sequence","chronological","","","","","","","",""
"","","","","","html-keyboard-response","103","358388","0.0-103.0","23A5EE68CA014CDDA6AEF3FBA2EE2A37","019d6685-093e-7e7d-82d6-766414f631c6","019d6630-2071-75cb-8026-6699844a2719","","null","
                <div class=""stimulus-container"">
                    <img src=""images/causal_sequence/the_performance_causal/the_performance_causal_2.png"" class=""exp-image"">
                    <div class=""question-area""></div> 
                </div>","null","","","","","","","","","","","","",""
"","","","","","html-button-response","104","359362","0.0-104.0","23A5EE68CA014CDDA6AEF3FBA2EE2A37","019d6685-093e-7e7d-82d6-766414f631c6","019d6630-2071-75cb-8026-6699844a2719","","973","
                <div class=""stimulus-container"">
                    <img src=""images/causal_sequence/the_performance_causal/the_performance_causal_2.png"" class=""exp-image"">
                    <div class=""question-area"">
                        <p style=""font-size: 20px; font-weight: bold; margin: 0;"">Is there a person in this image?</p>
                    </div>
                </div>","0","main_experiment_trial","2","the_performance_causal","causal_sequence","chronological","","","","","","","",""
"","","","","","html-keyboard-response","105","364372","0.0-105.0","23A5EE68CA014CDDA6AEF3FBA2EE2A37","019d6685-093e-7e7d-82d6-766414f631c6","019d6630-2071-75cb-8026-6699844a2719","","null","
                <div class=""stimulus-container"">
                    <img src=""images/causal_sequence/the_performance_causal/the_performance_causal_3.png"" class=""exp-image"">
                    <div class=""question-area""></div> 
                </div>","null","","","","","","","","","","","","",""
"","","","","","html-button-response","106","365291","0.0-106.0","23A5EE68CA014CDDA6AEF3FBA2EE2A37","019d6685-093e-7e7d-82d6-766414f631c6","019d6630-2071-75cb-8026-6699844a2719","","919","
                <div class=""stimulus-container"">
                    <img src=""images/causal_sequence/the_performance_causal/the_performance_causal_3.png"" class=""exp-image"">
                    <div class=""question-area"">
                        <p style=""font-size: 20px; font-weight: bold; margin: 0;"">Is there a person in this image?</p>
                    </div>
                </div>","0","main_experiment_trial","3","the_performance_causal","causal_sequence","chronological","","","","","","","",""
"","","","","","html-keyboard-response","107","370297","0.0-107.0","23A5EE68CA014CDDA6AEF3FBA2EE2A37","019d6685-093e-7e7d-82d6-766414f631c6","019d6630-2071-75cb-8026-6699844a2719","","null","
                <div class=""stimulus-container"">
                    <img src=""images/causal_sequence/the_performance_causal/the_performance_causal_4.png"" class=""exp-image"">
                    <div class=""question-area""></div> 
                </div>","null","","","","","","","","","","","","",""
"","","","","","html-button-response","108","370860","0.0-108.0","23A5EE68CA014CDDA6AEF3FBA2EE2A37","019d6685-093e-7e7d-82d6-766414f631c6","019d6630-2071-75cb-8026-6699844a2719","","563","
                <div class=""stimulus-container"">
                    <img src=""images/causal_sequence/the_performance_causal/the_performance_causal_4.png"" class=""exp-image"">
                    <div class=""question-area"">
                        <p style=""font-size: 20px; font-weight: bold; margin: 0;"">Is there a person in this image?</p>
                    </div>
                </div>","0","main_experiment_trial","4","the_performance_causal","causal_sequence","chronological","","","","","","","",""
"","","","","","html-keyboard-response","109","375863","0.0-109.0","23A5EE68CA014CDDA6AEF3FBA2EE2A37","019d6685-093e-7e7d-82d6-766414f631c6","019d6630-2071-75cb-8026-6699844a2719","","null","
                <div class=""stimulus-container"">
                    <img src=""images/causal_sequence/the_performance_causal/the_performance_causal_5.png"" class=""exp-image"">
                    <div class=""question-area""></div> 
                </div>","null","","","","","","","","","","","","",""
"","","","","","html-button-response","110","378870","0.0-110.0","23A5EE68CA014CDDA6AEF3FBA2EE2A37","019d6685-093e-7e7d-82d6-766414f631c6","019d6630-2071-75cb-8026-6699844a2719","","null","
                <div class=""stimulus-container"">
                    <img src=""images/causal_sequence/the_performance_causal/the_performance_causal_5.png"" class=""exp-image"">
                    <div class=""question-area"">
                        <p style=""font-size: 20px; font-weight: bold; margin: 0;"">Is there a person in this image?</p>
                    </div>
                </div>","null","main_experiment_trial","5","the_performance_causal","causal_sequence","chronological","","","","","","","",""
"","","","","","html-keyboard-response","111","383872","0.0-111.0","23A5EE68CA014CDDA6AEF3FBA2EE2A37","019d6685-093e-7e7d-82d6-766414f631c6","019d6630-2071-75cb-8026-6699844a2719","","null","
                <div class=""stimulus-container"">
                    <img src=""images/causal_sequence/the_performance_causal/the_performance_causal_6.png"" class=""exp-image"">
                    <div class=""question-area""></div> 
                </div>","null","","","","","","","","","","","","",""
"","","","","","html-button-response","112","386888","0.0-112.0","23A5EE68CA014CDDA6AEF3FBA2EE2A37","019d6685-093e-7e7d-82d6-766414f631c6","019d6630-2071-75cb-8026-6699844a2719","","null","
                <div class=""stimulus-container"">
                    <img src=""images/causal_sequence/the_performance_causal/the_performance_causal_6.png"" class=""exp-image"">
                    <div class=""question-area"">
                        <p style=""font-size: 20px; font-weight: bold; margin: 0;"">Is there a person in this image?</p>
                    </div>
                </div>","null","main_experiment_trial","6","the_performance_causal","causal_sequence","chronological","","","","","","","",""
"","","","","","html-keyboard-response","113","391891","0.0-113.0","23A5EE68CA014CDDA6AEF3FBA2EE2A37","019d6685-093e-7e7d-82d6-766414f631c6","019d6630-2071-75cb-8026-6699844a2719","","null","
                <div class=""stimulus-container"">
                    <img src=""images/causal_sequence/the_performance_causal/the_performance_causal_7.png"" class=""exp-image"">
                    <div class=""question-area""></div> 
                </div>","null","","","","","","","","","","","","",""
"","","","","","html-button-response","114","393218","0.0-114.0","23A5EE68CA014CDDA6AEF3FBA2EE2A37","019d6685-093e-7e7d-82d6-766414f631c6","019d6630-2071-75cb-8026-6699844a2719","","1326","
                <div class=""stimulus-container"">
                    <img src=""images/causal_sequence/the_performance_causal/the_performance_causal_7.png"" class=""exp-image"">
                    <div class=""question-area"">
                        <p style=""font-size: 20px; font-weight: bold; margin: 0;"">Is there a person in this image?</p>
                    </div>
                </div>","0","main_experiment_trial","7","the_performance_causal","causal_sequence","chronological","","","","","","","",""
"","","","","","html-keyboard-response","115","398227","0.0-115.0","23A5EE68CA014CDDA6AEF3FBA2EE2A37","019d6685-093e-7e7d-82d6-766414f631c6","019d6630-2071-75cb-8026-6699844a2719","","null","
                <div class=""stimulus-container"">
                    <img src=""images/causal_sequence/the_performance_causal/the_performance_causal_8.png"" class=""exp-image"">
                    <div class=""question-area""></div> 
                </div>","null","","","","","","","","","","","","",""
"","","","","","html-button-response","116","400214","0.0-116.0","23A5EE68CA014CDDA6AEF3FBA2EE2A37","019d6685-093e-7e7d-82d6-766414f631c6","019d6630-2071-75cb-8026-6699844a2719","","1986","
                <div class=""stimulus-container"">
                    <img src=""images/causal_sequence/the_performance_causal/the_performance_causal_8.png"" class=""exp-image"">
                    <div class=""question-area"">
                        <p style=""font-size: 20px; font-weight: bold; margin: 0;"">Is there a person in this image?</p>
                    </div>
                </div>","0","main_experiment_trial","8","the_performance_causal","causal_sequence","chronological","","","","","","","",""
"","","","","","html-keyboard-response","117","405218","0.0-117.0","23A5EE68CA014CDDA6AEF3FBA2EE2A37","019d6685-093e-7e7d-82d6-766414f631c6","019d6630-2071-75cb-8026-6699844a2719","","null","
                <div class=""stimulus-container"">
                    <img src=""images/causal_sequence/the_performance_causal/the_performance_causal_9.png"" class=""exp-image"">
                    <div class=""question-area""></div> 
                </div>","null","","","","","","","","","","","","",""
"","","","","","html-button-response","118","407067","0.0-118.0","23A5EE68CA014CDDA6AEF3FBA2EE2A37","019d6685-093e-7e7d-82d6-766414f631c6","019d6630-2071-75cb-8026-6699844a2719","","1849","
                <div class=""stimulus-container"">
                    <img src=""images/causal_sequence/the_performance_causal/the_performance_causal_9.png"" class=""exp-image"">
                    <div class=""question-area"">
                        <p style=""font-size: 20px; font-weight: bold; margin: 0;"">Is there a person in this image?</p>
                    </div>
                </div>","0","main_experiment_trial","9","the_performance_causal","causal_sequence","chronological","","","","","","","",""
"","","","","","html-keyboard-response","119","412070","0.0-119.0","23A5EE68CA014CDDA6AEF3FBA2EE2A37","019d6685-093e-7e7d-82d6-766414f631c6","019d6630-2071-75cb-8026-6699844a2719","","null","
                <div class=""stimulus-container"">
                    <img src=""images/causal_sequence/the_performance_causal/the_performance_causal_ten.png"" class=""exp-image"">
                    <div class=""question-area""></div> 
                </div>","null","","","","","","","","","","","","",""
"","","","","","html-button-response","120","415080","0.0-120.0","23A5EE68CA014CDDA6AEF3FBA2EE2A37","019d6685-093e-7e7d-82d6-766414f631c6","019d6630-2071-75cb-8026-6699844a2719","","null","
                <div class=""stimulus-container"">
                    <img src=""images/causal_sequence/the_performance_causal/the_performance_causal_ten.png"" class=""exp-image"">
                    <div class=""question-area"">
                        <p style=""font-size: 20px; font-weight: bold; margin: 0;"">Is there a person in this image?</p>
                    </div>
                </div>","null","main_experiment_trial","ten","the_performance_causal","causal_sequence","chronological","","","","","","","",""
"","","","","","html-keyboard-response","121","420085","0.0-121.0","23A5EE68CA014CDDA6AEF3FBA2EE2A37","019d6685-093e-7e7d-82d6-766414f631c6","019d6630-2071-75cb-8026-6699844a2719","","null","<div style=""background-color: white; width: 100vw; height: 100vh;""></div>","null","","","","","","","","","","","","",""
"","","","","","html-keyboard-response","122","425088","0.0-122.0","23A5EE68CA014CDDA6AEF3FBA2EE2A37","019d6685-093e-7e7d-82d6-766414f631c6","019d6630-2071-75cb-8026-6699844a2719","","null","
                <div class=""stimulus-container"">
                    <img src=""images/causal_sequence/coin_causal/coin_causal_1.png"" class=""exp-image"">
                    <div class=""question-area""></div> 
                </div>","null","","","","","","","","","","","","",""
"","","","","","html-button-response","123","426451","0.0-123.0","23A5EE68CA014CDDA6AEF3FBA2EE2A37","019d6685-093e-7e7d-82d6-766414f631c6","019d6630-2071-75cb-8026-6699844a2719","","1362","
                <div class=""stimulus-container"">
                    <img src=""images/causal_sequence/coin_causal/coin_causal_1.png"" class=""exp-image"">
                    <div class=""question-area"">
                        <p style=""font-size: 20px; font-weight: bold; margin: 0;"">Is there a person in this image?</p>
                    </div>
                </div>","0","main_experiment_trial","1","coin_causal","causal_sequence","chronological","","","","","","","",""
"","","","","","html-keyboard-response","124","431458","0.0-124.0","23A5EE68CA014CDDA6AEF3FBA2EE2A37","019d6685-093e-7e7d-82d6-766414f631c6","019d6630-2071-75cb-8026-6699844a2719","","null","
                <div class=""stimulus-container"">
                    <img src=""images/causal_sequence/coin_causal/coin_causal_2.png"" class=""exp-image"">
                    <div class=""question-area""></div> 
                </div>","null","","","","","","","","","","","","",""
"","","","","","html-button-response","125","432189","0.0-125.0","23A5EE68CA014CDDA6AEF3FBA2EE2A37","019d6685-093e-7e7d-82d6-766414f631c6","019d6630-2071-75cb-8026-6699844a2719","","730","
                <div class=""stimulus-container"">
                    <img src=""images/causal_sequence/coin_causal/coin_causal_2.png"" class=""exp-image"">
                    <div class=""question-area"">
                        <p style=""font-size: 20px; font-weight: bold; margin: 0;"">Is there a person in this image?</p>
                    </div>
                </div>","0","main_experiment_trial","2","coin_causal","causal_sequence","chronological","","","","","","","",""
"","","","","","html-keyboard-response","126","437194","0.0-126.0","23A5EE68CA014CDDA6AEF3FBA2EE2A37","019d6685-093e-7e7d-82d6-766414f631c6","019d6630-2071-75cb-8026-6699844a2719","","null","
                <div class=""stimulus-container"">
                    <img src=""images/causal_sequence/coin_causal/coin_causal_3.png"" class=""exp-image"">
                    <div class=""question-area""></div> 
                </div>","null","","","","","","","","","","","","",""
"","","","","","html-button-response","127","438212","0.0-127.0","23A5EE68CA014CDDA6AEF3FBA2EE2A37","019d6685-093e-7e7d-82d6-766414f631c6","019d6630-2071-75cb-8026-6699844a2719","","1018","
                <div class=""stimulus-container"">
                    <img src=""images/causal_sequence/coin_causal/coin_causal_3.png"" class=""exp-image"">
                    <div class=""question-area"">
                        <p style=""font-size: 20px; font-weight: bold; margin: 0;"">Is there a person in this image?</p>
                    </div>
                </div>","0","main_experiment_trial","3","coin_causal","causal_sequence","chronological","","","","","","","",""
"","","","","","html-keyboard-response","128","443225","0.0-128.0","23A5EE68CA014CDDA6AEF3FBA2EE2A37","019d6685-093e-7e7d-82d6-766414f631c6","019d6630-2071-75cb-8026-6699844a2719","","null","
                <div class=""stimulus-container"">
                    <img src=""images/causal_sequence/coin_causal/coin_causal_4.png"" class=""exp-image"">
                    <div class=""question-area""></div> 
                </div>","null","","","","","","","","","","","","",""
"","","","","","html-button-response","129","443900","0.0-129.0","23A5EE68CA014CDDA6AEF3FBA2EE2A37","019d6685-093e-7e7d-82d6-766414f631c6","019d6630-2071-75cb-8026-6699844a2719","","675","
                <div class=""stimulus-container"">
                    <img src=""images/causal_sequence/coin_causal/coin_causal_4.png"" class=""exp-image"">
                    <div class=""question-area"">
                        <p style=""font-size: 20px; font-weight: bold; margin: 0;"">Is there a person in this image?</p>
                    </div>
                </div>","0","main_experiment_trial","4","coin_causal","causal_sequence","chronological","","","","","","","",""
"","","","","","html-keyboard-response","130","448910","0.0-130.0","23A5EE68CA014CDDA6AEF3FBA2EE2A37","019d6685-093e-7e7d-82d6-766414f631c6","019d6630-2071-75cb-8026-6699844a2719","","null","
                <div class=""stimulus-container"">
                    <img src=""images/causal_sequence/coin_causal/coin_causal_5.png"" class=""exp-image"">
                    <div class=""question-area""></div> 
                </div>","null","","","","","","","","","","","","",""
"","","","","","html-button-response","131","450045","0.0-131.0","23A5EE68CA014CDDA6AEF3FBA2EE2A37","019d6685-093e-7e7d-82d6-766414f631c6","019d6630-2071-75cb-8026-6699844a2719","","1134","
                <div class=""stimulus-container"">
                    <img src=""images/causal_sequence/coin_causal/coin_causal_5.png"" class=""exp-image"">
                    <div class=""question-area"">
                        <p style=""font-size: 20px; font-weight: bold; margin: 0;"">Is there a person in this image?</p>
                    </div>
                </div>","0","main_experiment_trial","5","coin_causal","causal_sequence","chronological","","","","","","","",""
"","","","","","html-keyboard-response","132","455050","0.0-132.0","23A5EE68CA014CDDA6AEF3FBA2EE2A37","019d6685-093e-7e7d-82d6-766414f631c6","019d6630-2071-75cb-8026-6699844a2719","","null","
                <div class=""stimulus-container"">
                    <img src=""images/causal_sequence/coin_causal/coin_causal_6.png"" class=""exp-image"">
                    <div class=""question-area""></div> 
                </div>","null","","","","","","","","","","","","",""
"","","","","","html-button-response","133","455558","0.0-133.0","23A5EE68CA014CDDA6AEF3FBA2EE2A37","019d6685-093e-7e7d-82d6-766414f631c6","019d6630-2071-75cb-8026-6699844a2719","","507","
                <div class=""stimulus-container"">
                    <img src=""images/causal_sequence/coin_causal/coin_causal_6.png"" class=""exp-image"">
                    <div class=""question-area"">
                        <p style=""font-size: 20px; font-weight: bold; margin: 0;"">Is there a person in this image?</p>
                    </div>
                </div>","0","main_experiment_trial","6","coin_causal","causal_sequence","chronological","","","","","","","",""
"","","","","","html-keyboard-response","134","460571","0.0-134.0","23A5EE68CA014CDDA6AEF3FBA2EE2A37","019d6685-093e-7e7d-82d6-766414f631c6","019d6630-2071-75cb-8026-6699844a2719","","null","
                <div class=""stimulus-container"">
                    <img src=""images/causal_sequence/coin_causal/coin_causal_7.png"" class=""exp-image"">
                    <div class=""question-area""></div> 
                </div>","null","","","","","","","","","","","","",""
"","","","","","html-button-response","135","461915","0.0-135.0","23A5EE68CA014CDDA6AEF3FBA2EE2A37","019d6685-093e-7e7d-82d6-766414f631c6","019d6630-2071-75cb-8026-6699844a2719","","1343","
                <div class=""stimulus-container"">
                    <img src=""images/causal_sequence/coin_causal/coin_causal_7.png"" class=""exp-image"">
                    <div class=""question-area"">
                        <p style=""font-size: 20px; font-weight: bold; margin: 0;"">Is there a person in this image?</p>
                    </div>
                </div>","1","main_experiment_trial","7","coin_causal","causal_sequence","chronological","","","","","","","",""
"","","","","","html-keyboard-response","136","466921","0.0-136.0","23A5EE68CA014CDDA6AEF3FBA2EE2A37","019d6685-093e-7e7d-82d6-766414f631c6","019d6630-2071-75cb-8026-6699844a2719","","null","
                <div class=""stimulus-container"">
                    <img src=""images/causal_sequence/coin_causal/coin_causal_8.png"" class=""exp-image"">
                    <div class=""question-area""></div> 
                </div>","null","","","","","","","","","","","","",""
"","","","","","html-button-response","137","468097","0.0-137.0","23A5EE68CA014CDDA6AEF3FBA2EE2A37","019d6685-093e-7e7d-82d6-766414f631c6","019d6630-2071-75cb-8026-6699844a2719","","1176","
                <div class=""stimulus-container"">
                    <img src=""images/causal_sequence/coin_causal/coin_causal_8.png"" class=""exp-image"">
                    <div class=""question-area"">
                        <p style=""font-size: 20px; font-weight: bold; margin: 0;"">Is there a person in this image?</p>
                    </div>
                </div>","0","main_experiment_trial","8","coin_causal","causal_sequence","chronological","","","","","","","",""
"","","","","","html-keyboard-response","138","473105","0.0-138.0","23A5EE68CA014CDDA6AEF3FBA2EE2A37","019d6685-093e-7e7d-82d6-766414f631c6","019d6630-2071-75cb-8026-6699844a2719","","null","
                <div class=""stimulus-container"">
                    <img src=""images/causal_sequence/coin_causal/coin_causal_9.png"" class=""exp-image"">
                    <div class=""question-area""></div> 
                </div>","null","","","","","","","","","","","","",""
"","","","","","html-button-response","139","474636","0.0-139.0","23A5EE68CA014CDDA6AEF3FBA2EE2A37","019d6685-093e-7e7d-82d6-766414f631c6","019d6630-2071-75cb-8026-6699844a2719","","1531","
                <div class=""stimulus-container"">
                    <img src=""images/causal_sequence/coin_causal/coin_causal_9.png"" class=""exp-image"">
                    <div class=""question-area"">
                        <p style=""font-size: 20px; font-weight: bold; margin: 0;"">Is there a person in this image?</p>
                    </div>
                </div>","0","main_experiment_trial","9","coin_causal","causal_sequence","chronological","","","","","","","",""
"","","","","","html-keyboard-response","140","479648","0.0-140.0","23A5EE68CA014CDDA6AEF3FBA2EE2A37","019d6685-093e-7e7d-82d6-766414f631c6","019d6630-2071-75cb-8026-6699844a2719","","null","
                <div class=""stimulus-container"">
                    <img src=""images/causal_sequence/coin_causal/coin_causal_ten.png"" class=""exp-image"">
                    <div class=""question-area""></div> 
                </div>","null","","","","","","","","","","","","",""
"","","","","","html-button-response","141","481549","0.0-141.0","23A5EE68CA014CDDA6AEF3FBA2EE2A37","019d6685-093e-7e7d-82d6-766414f631c6","019d6630-2071-75cb-8026-6699844a2719","","1901","
                <div class=""stimulus-container"">
                    <img src=""images/causal_sequence/coin_causal/coin_causal_ten.png"" class=""exp-image"">
                    <div class=""question-area"">
                        <p style=""font-size: 20px; font-weight: bold; margin: 0;"">Is there a person in this image?</p>
                    </div>
                </div>","0","main_experiment_trial","ten","coin_causal","causal_sequence","chronological","","","","","","","",""
"","","","","","html-keyboard-response","142","486551","0.0-142.0","23A5EE68CA014CDDA6AEF3FBA2EE2A37","019d6685-093e-7e7d-82d6-766414f631c6","019d6630-2071-75cb-8026-6699844a2719","","null","<div style=""background-color: white; width: 100vw; height: 100vh;""></div>","null","","","","","","","","","","","","",""
"","","","","","html-keyboard-response","143","491558","0.0-143.0","23A5EE68CA014CDDA6AEF3FBA2EE2A37","019d6685-093e-7e7d-82d6-766414f631c6","019d6630-2071-75cb-8026-6699844a2719","","null","
                <div class=""stimulus-container"">
                    <img src=""images/causal_sequence/museum_causal/museum_causal_1.png"" class=""exp-image"">
                    <div class=""question-area""></div> 
                </div>","null","","","","","","","","","","","","",""
"","","","","","html-button-response","144","493944","0.0-144.0","23A5EE68CA014CDDA6AEF3FBA2EE2A37","019d6685-093e-7e7d-82d6-766414f631c6","019d6630-2071-75cb-8026-6699844a2719","","2385","
                <div class=""stimulus-container"">
                    <img src=""images/causal_sequence/museum_causal/museum_causal_1.png"" class=""exp-image"">
                    <div class=""question-area"">
                        <p style=""font-size: 20px; font-weight: bold; margin: 0;"">Is there a person in this image?</p>
                    </div>
                </div>","0","main_experiment_trial","1","museum_causal","causal_sequence","chronological","","","","","","","",""
"","","","","","html-keyboard-response","145","498949","0.0-145.0","23A5EE68CA014CDDA6AEF3FBA2EE2A37","019d6685-093e-7e7d-82d6-766414f631c6","019d6630-2071-75cb-8026-6699844a2719","","null","
                <div class=""stimulus-container"">
                    <img src=""images/causal_sequence/museum_causal/museum_causal_2.png"" class=""exp-image"">
                    <div class=""question-area""></div> 
                </div>","null","","","","","","","","","","","","",""
"","","","","","html-button-response","146","500067","0.0-146.0","23A5EE68CA014CDDA6AEF3FBA2EE2A37","019d6685-093e-7e7d-82d6-766414f631c6","019d6630-2071-75cb-8026-6699844a2719","","1118","
                <div class=""stimulus-container"">
                    <img src=""images/causal_sequence/museum_causal/museum_causal_2.png"" class=""exp-image"">
                    <div class=""question-area"">
                        <p style=""font-size: 20px; font-weight: bold; margin: 0;"">Is there a person in this image?</p>
                    </div>
                </div>","0","main_experiment_trial","2","museum_causal","causal_sequence","chronological","","","","","","","",""
"","","","","","html-keyboard-response","147","505077","0.0-147.0","23A5EE68CA014CDDA6AEF3FBA2EE2A37","019d6685-093e-7e7d-82d6-766414f631c6","019d6630-2071-75cb-8026-6699844a2719","","null","
                <div class=""stimulus-container"">
                    <img src=""images/causal_sequence/museum_causal/museum_causal_3.png"" class=""exp-image"">
                    <div class=""question-area""></div> 
                </div>","null","","","","","","","","","","","","",""
"","","","","","html-button-response","148","506253","0.0-148.0","23A5EE68CA014CDDA6AEF3FBA2EE2A37","019d6685-093e-7e7d-82d6-766414f631c6","019d6630-2071-75cb-8026-6699844a2719","","1176","
                <div class=""stimulus-container"">
                    <img src=""images/causal_sequence/museum_causal/museum_causal_3.png"" class=""exp-image"">
                    <div class=""question-area"">
                        <p style=""font-size: 20px; font-weight: bold; margin: 0;"">Is there a person in this image?</p>
                    </div>
                </div>","0","main_experiment_trial","3","museum_causal","causal_sequence","chronological","","","","","","","",""
"","","","","","html-keyboard-response","149","511264","0.0-149.0","23A5EE68CA014CDDA6AEF3FBA2EE2A37","019d6685-093e-7e7d-82d6-766414f631c6","019d6630-2071-75cb-8026-6699844a2719","","null","
                <div class=""stimulus-container"">
                    <img src=""images/causal_sequence/museum_causal/museum_causal_4.png"" class=""exp-image"">
                    <div class=""question-area""></div> 
                </div>","null","","","","","","","","","","","","",""
"","","","","","html-button-response","150","512894","0.0-150.0","23A5EE68CA014CDDA6AEF3FBA2EE2A37","019d6685-093e-7e7d-82d6-766414f631c6","019d6630-2071-75cb-8026-6699844a2719","","1630","
                <div class=""stimulus-container"">
                    <img src=""images/causal_sequence/museum_causal/museum_causal_4.png"" class=""exp-image"">
                    <div class=""question-area"">
                        <p style=""font-size: 20px; font-weight: bold; margin: 0;"">Is there a person in this image?</p>
                    </div>
                </div>","1","main_experiment_trial","4","museum_causal","causal_sequence","chronological","","","","","","","",""
"","","","","","html-keyboard-response","151","517904","0.0-151.0","23A5EE68CA014CDDA6AEF3FBA2EE2A37","019d6685-093e-7e7d-82d6-766414f631c6","019d6630-2071-75cb-8026-6699844a2719","","null","
                <div class=""stimulus-container"">
                    <img src=""images/causal_sequence/museum_causal/museum_causal_5.png"" class=""exp-image"">
                    <div class=""question-area""></div> 
                </div>","null","","","","","","","","","","","","",""
"","","","","","html-button-response","152","519880","0.0-152.0","23A5EE68CA014CDDA6AEF3FBA2EE2A37","019d6685-093e-7e7d-82d6-766414f631c6","019d6630-2071-75cb-8026-6699844a2719","","1976","
                <div class=""stimulus-container"">
                    <img src=""images/causal_sequence/museum_causal/museum_causal_5.png"" class=""exp-image"">
                    <div class=""question-area"">
                        <p style=""font-size: 20px; font-weight: bold; margin: 0;"">Is there a person in this image?</p>
                    </div>
                </div>","0","main_experiment_trial","5","museum_causal","causal_sequence","chronological","","","","","","","",""
"","","","","","html-keyboard-response","153","524889","0.0-153.0","23A5EE68CA014CDDA6AEF3FBA2EE2A37","019d6685-093e-7e7d-82d6-766414f631c6","019d6630-2071-75cb-8026-6699844a2719","","null","
                <div class=""stimulus-container"">
                    <img src=""images/causal_sequence/museum_causal/museum_causal_6.png"" class=""exp-image"">
                    <div class=""question-area""></div> 
                </div>","null","","","","","","","","","","","","",""
"","","","","","html-button-response","154","526499","0.0-154.0","23A5EE68CA014CDDA6AEF3FBA2EE2A37","019d6685-093e-7e7d-82d6-766414f631c6","019d6630-2071-75cb-8026-6699844a2719","","1610","
                <div class=""stimulus-container"">
                    <img src=""images/causal_sequence/museum_causal/museum_causal_6.png"" class=""exp-image"">
                    <div class=""question-area"">
                        <p style=""font-size: 20px; font-weight: bold; margin: 0;"">Is there a person in this image?</p>
                    </div>
                </div>","0","main_experiment_trial","6","museum_causal","causal_sequence","chronological","","","","","","","",""
"","","","","","html-keyboard-response","155","531513","0.0-155.0","23A5EE68CA014CDDA6AEF3FBA2EE2A37","019d6685-093e-7e7d-82d6-766414f631c6","019d6630-2071-75cb-8026-6699844a2719","","null","
                <div class=""stimulus-container"">
                    <img src=""images/causal_sequence/museum_causal/museum_causal_7.png"" class=""exp-image"">
                    <div class=""question-area""></div> 
                </div>","null","","","","","","","","","","","","",""
"","","","","","html-button-response","156","532667","0.0-156.0","23A5EE68CA014CDDA6AEF3FBA2EE2A37","019d6685-093e-7e7d-82d6-766414f631c6","019d6630-2071-75cb-8026-6699844a2719","","1154","
                <div class=""stimulus-container"">
                    <img src=""images/causal_sequence/museum_causal/museum_causal_7.png"" class=""exp-image"">
                    <div class=""question-area"">
                        <p style=""font-size: 20px; font-weight: bold; margin: 0;"">Is there a person in this image?</p>
                    </div>
                </div>","1","main_experiment_trial","7","museum_causal","causal_sequence","chronological","","","","","","","",""
"","","","","","html-keyboard-response","157","537671","0.0-157.0","23A5EE68CA014CDDA6AEF3FBA2EE2A37","019d6685-093e-7e7d-82d6-766414f631c6","019d6630-2071-75cb-8026-6699844a2719","","null","
                <div class=""stimulus-container"">
                    <img src=""images/causal_sequence/museum_causal/museum_causal_8.png"" class=""exp-image"">
                    <div class=""question-area""></div> 
                </div>","null","","","","","","","","","","","","",""
"","","","","","html-button-response","158","540064","0.0-158.0","23A5EE68CA014CDDA6AEF3FBA2EE2A37","019d6685-093e-7e7d-82d6-766414f631c6","019d6630-2071-75cb-8026-6699844a2719","","2393","
                <div class=""stimulus-container"">
                    <img src=""images/causal_sequence/museum_causal/museum_causal_8.png"" class=""exp-image"">
                    <div class=""question-area"">
                        <p style=""font-size: 20px; font-weight: bold; margin: 0;"">Is there a person in this image?</p>
                    </div>
                </div>","0","main_experiment_trial","8","museum_causal","causal_sequence","chronological","","","","","","","",""
"","","","","","html-keyboard-response","159","545068","0.0-159.0","23A5EE68CA014CDDA6AEF3FBA2EE2A37","019d6685-093e-7e7d-82d6-766414f631c6","019d6630-2071-75cb-8026-6699844a2719","","null","
                <div class=""stimulus-container"">
                    <img src=""images/causal_sequence/museum_causal/museum_causal_9.png"" class=""exp-image"">
                    <div class=""question-area""></div> 
                </div>","null","","","","","","","","","","","","",""
"","","","","","html-button-response","160","546326","0.0-160.0","23A5EE68CA014CDDA6AEF3FBA2EE2A37","019d6685-093e-7e7d-82d6-766414f631c6","019d6630-2071-75cb-8026-6699844a2719","","1259","
                <div class=""stimulus-container"">
                    <img src=""images/causal_sequence/museum_causal/museum_causal_9.png"" class=""exp-image"">
                    <div class=""question-area"">
                        <p style=""font-size: 20px; font-weight: bold; margin: 0;"">Is there a person in this image?</p>
                    </div>
                </div>","1","main_experiment_trial","9","museum_causal","causal_sequence","chronological","","","","","","","",""
"","","","","","html-keyboard-response","161","551336","0.0-161.0","23A5EE68CA014CDDA6AEF3FBA2EE2A37","019d6685-093e-7e7d-82d6-766414f631c6","019d6630-2071-75cb-8026-6699844a2719","","null","
                <div class=""stimulus-container"">
                    <img src=""images/causal_sequence/museum_causal/museum_causal_ten.png"" class=""exp-image"">
                    <div class=""question-area""></div> 
                </div>","null","","","","","","","","","","","","",""
"","","","","","html-button-response","162","552739","0.0-162.0","23A5EE68CA014CDDA6AEF3FBA2EE2A37","019d6685-093e-7e7d-82d6-766414f631c6","019d6630-2071-75cb-8026-6699844a2719","","1403","
                <div class=""stimulus-container"">
                    <img src=""images/causal_sequence/museum_causal/museum_causal_ten.png"" class=""exp-image"">
                    <div class=""question-area"">
                        <p style=""font-size: 20px; font-weight: bold; margin: 0;"">Is there a person in this image?</p>
                    </div>
                </div>","0","main_experiment_trial","ten","museum_causal","causal_sequence","chronological","","","","","","","",""
"","","","","","html-keyboard-response","163","557751","0.0-163.0","23A5EE68CA014CDDA6AEF3FBA2EE2A37","019d6685-093e-7e7d-82d6-766414f631c6","019d6630-2071-75cb-8026-6699844a2719","","null","<div style=""background-color: white; width: 100vw; height: 100vh;""></div>","null","","","","","","","","","","","","",""
"","","","","","html-keyboard-response","164","562758","0.0-164.0","23A5EE68CA014CDDA6AEF3FBA2EE2A37","019d6685-093e-7e7d-82d6-766414f631c6","019d6630-2071-75cb-8026-6699844a2719","","null","
                <div class=""stimulus-container"">
                    <img src=""images/schematic_sequence/supermarket_scheme/supermarket_scheme_1.png"" class=""exp-image"">
                    <div class=""question-area""></div> 
                </div>","null","","","","","","","","","","","","",""
"","","","","","html-button-response","165","564121","0.0-165.0","23A5EE68CA014CDDA6AEF3FBA2EE2A37","019d6685-093e-7e7d-82d6-766414f631c6","019d6630-2071-75cb-8026-6699844a2719","","1363","
                <div class=""stimulus-container"">
                    <img src=""images/schematic_sequence/supermarket_scheme/supermarket_scheme_1.png"" class=""exp-image"">
                    <div class=""question-area"">
                        <p style=""font-size: 20px; font-weight: bold; margin: 0;"">Is there a person in this image?</p>
                    </div>
                </div>","1","main_experiment_trial","1","supermarket_scheme","schematic_sequence","chronological","","","","","","","",""
"","","","","","html-keyboard-response","166","569125","0.0-166.0","23A5EE68CA014CDDA6AEF3FBA2EE2A37","019d6685-093e-7e7d-82d6-766414f631c6","019d6630-2071-75cb-8026-6699844a2719","","null","
                <div class=""stimulus-container"">
                    <img src=""images/schematic_sequence/supermarket_scheme/supermarket_scheme_2.png"" class=""exp-image"">
                    <div class=""question-area""></div> 
                </div>","null","","","","","","","","","","","","",""
"","","","","","html-button-response","167","569676","0.0-167.0","23A5EE68CA014CDDA6AEF3FBA2EE2A37","019d6685-093e-7e7d-82d6-766414f631c6","019d6630-2071-75cb-8026-6699844a2719","","551","
                <div class=""stimulus-container"">
                    <img src=""images/schematic_sequence/supermarket_scheme/supermarket_scheme_2.png"" class=""exp-image"">
                    <div class=""question-area"">
                        <p style=""font-size: 20px; font-weight: bold; margin: 0;"">Is there a person in this image?</p>
                    </div>
                </div>","1","main_experiment_trial","2","supermarket_scheme","schematic_sequence","chronological","","","","","","","",""
"","","","","","html-keyboard-response","168","574688","0.0-168.0","23A5EE68CA014CDDA6AEF3FBA2EE2A37","019d6685-093e-7e7d-82d6-766414f631c6","019d6630-2071-75cb-8026-6699844a2719","","null","
                <div class=""stimulus-container"">
                    <img src=""images/schematic_sequence/supermarket_scheme/supermarket_scheme_3.png"" class=""exp-image"">
                    <div class=""question-area""></div> 
                </div>","null","","","","","","","","","","","","",""
"","","","","","html-button-response","169","576266","0.0-169.0","23A5EE68CA014CDDA6AEF3FBA2EE2A37","019d6685-093e-7e7d-82d6-766414f631c6","019d6630-2071-75cb-8026-6699844a2719","","1577","
                <div class=""stimulus-container"">
                    <img src=""images/schematic_sequence/supermarket_scheme/supermarket_scheme_3.png"" class=""exp-image"">
                    <div class=""question-area"">
                        <p style=""font-size: 20px; font-weight: bold; margin: 0;"">Is there a person in this image?</p>
                    </div>
                </div>","1","main_experiment_trial","3","supermarket_scheme","schematic_sequence","chronological","","","","","","","",""
"","","","","","html-keyboard-response","170","581272","0.0-170.0","23A5EE68CA014CDDA6AEF3FBA2EE2A37","019d6685-093e-7e7d-82d6-766414f631c6","019d6630-2071-75cb-8026-6699844a2719","","null","
                <div class=""stimulus-container"">
                    <img src=""images/schematic_sequence/supermarket_scheme/supermarket_scheme_4.png"" class=""exp-image"">
                    <div class=""question-area""></div> 
                </div>","null","","","","","","","","","","","","",""
"","","","","","html-button-response","171","582735","0.0-171.0","23A5EE68CA014CDDA6AEF3FBA2EE2A37","019d6685-093e-7e7d-82d6-766414f631c6","019d6630-2071-75cb-8026-6699844a2719","","1463","
                <div class=""stimulus-container"">
                    <img src=""images/schematic_sequence/supermarket_scheme/supermarket_scheme_4.png"" class=""exp-image"">
                    <div class=""question-area"">
                        <p style=""font-size: 20px; font-weight: bold; margin: 0;"">Is there a person in this image?</p>
                    </div>
                </div>","0","main_experiment_trial","4","supermarket_scheme","schematic_sequence","chronological","","","","","","","",""
"","","","","","html-keyboard-response","172","587748","0.0-172.0","23A5EE68CA014CDDA6AEF3FBA2EE2A37","019d6685-093e-7e7d-82d6-766414f631c6","019d6630-2071-75cb-8026-6699844a2719","","null","
                <div class=""stimulus-container"">
                    <img src=""images/schematic_sequence/supermarket_scheme/supermarket_scheme_5.png"" class=""exp-image"">
                    <div class=""question-area""></div> 
                </div>","null","","","","","","","","","","","","",""
"","","","","","html-button-response","173","589379","0.0-173.0","23A5EE68CA014CDDA6AEF3FBA2EE2A37","019d6685-093e-7e7d-82d6-766414f631c6","019d6630-2071-75cb-8026-6699844a2719","","1630","
                <div class=""stimulus-container"">
                    <img src=""images/schematic_sequence/supermarket_scheme/supermarket_scheme_5.png"" class=""exp-image"">
                    <div class=""question-area"">
                        <p style=""font-size: 20px; font-weight: bold; margin: 0;"">Is there a person in this image?</p>
                    </div>
                </div>","1","main_experiment_trial","5","supermarket_scheme","schematic_sequence","chronological","","","","","","","",""
"","","","","","html-keyboard-response","174","594391","0.0-174.0","23A5EE68CA014CDDA6AEF3FBA2EE2A37","019d6685-093e-7e7d-82d6-766414f631c6","019d6630-2071-75cb-8026-6699844a2719","","null","
                <div class=""stimulus-container"">
                    <img src=""images/schematic_sequence/supermarket_scheme/supermarket_scheme_6.png"" class=""exp-image"">
                    <div class=""question-area""></div> 
                </div>","null","","","","","","","","","","","","",""
"","","","","","html-button-response","175","597169","0.0-175.0","23A5EE68CA014CDDA6AEF3FBA2EE2A37","019d6685-093e-7e7d-82d6-766414f631c6","019d6630-2071-75cb-8026-6699844a2719","","2777","
                <div class=""stimulus-container"">
                    <img src=""images/schematic_sequence/supermarket_scheme/supermarket_scheme_6.png"" class=""exp-image"">
                    <div class=""question-area"">
                        <p style=""font-size: 20px; font-weight: bold; margin: 0;"">Is there a person in this image?</p>
                    </div>
                </div>","0","main_experiment_trial","6","supermarket_scheme","schematic_sequence","chronological","","","","","","","",""
"","","","","","html-keyboard-response","176","602171","0.0-176.0","23A5EE68CA014CDDA6AEF3FBA2EE2A37","019d6685-093e-7e7d-82d6-766414f631c6","019d6630-2071-75cb-8026-6699844a2719","","null","
                <div class=""stimulus-container"">
                    <img src=""images/schematic_sequence/supermarket_scheme/supermarket_scheme_7.png"" class=""exp-image"">
                    <div class=""question-area""></div> 
                </div>","null","","","","","","","","","","","","",""
"","","","","","html-button-response","177","603031","0.0-177.0","23A5EE68CA014CDDA6AEF3FBA2EE2A37","019d6685-093e-7e7d-82d6-766414f631c6","019d6630-2071-75cb-8026-6699844a2719","","860","
                <div class=""stimulus-container"">
                    <img src=""images/schematic_sequence/supermarket_scheme/supermarket_scheme_7.png"" class=""exp-image"">
                    <div class=""question-area"">
                        <p style=""font-size: 20px; font-weight: bold; margin: 0;"">Is there a person in this image?</p>
                    </div>
                </div>","0","main_experiment_trial","7","supermarket_scheme","schematic_sequence","chronological","","","","","","","",""
