"success","timeout","failed_images","failed_audio","failed_video","trial_type","trial_index","time_elapsed","internal_node_id","subject_id","study_id","session_id","view_history","rt","stimulus","response","task","image_index","folder","sequence_type","valuable_image_index","reward_type","chosen_image_index","target_X","correct_choice"
"true","false","[]","[]","[]","preload","0","8816","0.0-0.0","85D472BDF69843449CB3A4A3B220E324","019cf4a2-6ee9-7d7a-a565-66a543c83a53","019cf498-06e0-702e-b525-9cde1ad77653","","","","","","","","","","","","",""
"","","","","","instructions","1","10867","0.0-1.0","85D472BDF69843449CB3A4A3B220E324","019cf4a2-6ee9-7d7a-a565-66a543c83a53","019cf498-06e0-702e-b525-9cde1ad77653","[{""page_index"":0,""viewing_time"":2050}]","2050","","","","","","","","","","",""
"","","","","","instructions","2","18750","0.0-2.0","85D472BDF69843449CB3A4A3B220E324","019cf4a2-6ee9-7d7a-a565-66a543c83a53","019cf498-06e0-702e-b525-9cde1ad77653","[{""page_index"":0,""viewing_time"":7882}]","7882","","","","","","","","","","",""
"true","","","","","fullscreen","3","21201","0.0-3.0","85D472BDF69843449CB3A4A3B220E324","019cf4a2-6ee9-7d7a-a565-66a543c83a53","019cf498-06e0-702e-b525-9cde1ad77653","","1449","","","","","","","","","","",""
"","","","","","instructions","4","30027","0.0-4.0","85D472BDF69843449CB3A4A3B220E324","019cf4a2-6ee9-7d7a-a565-66a543c83a53","019cf498-06e0-702e-b525-9cde1ad77653","[{""page_index"":0,""viewing_time"":8825}]","8825","","","","","","","","","","",""
"","","","","","instructions","5","38007","0.0-5.0","85D472BDF69843449CB3A4A3B220E324","019cf4a2-6ee9-7d7a-a565-66a543c83a53","019cf498-06e0-702e-b525-9cde1ad77653","[{""page_index"":0,""viewing_time"":7979}]","7979","","","","","","","","","","",""
"","","","","","html-keyboard-response","6","42014","0.0-6.0","85D472BDF69843449CB3A4A3B220E324","019cf4a2-6ee9-7d7a-a565-66a543c83a53","019cf498-06e0-702e-b525-9cde1ad77653","","null","
                <div class=""stimulus-container"">
                    <img src=""images/instructions/movie_1.png"" class=""exp-image"">
                    <div class=""question-area""></div> 
                </div>","null","","","","","","","","",""
"","","","","","html-button-response","7","43264","0.0-7.0","85D472BDF69843449CB3A4A3B220E324","019cf4a2-6ee9-7d7a-a565-66a543c83a53","019cf498-06e0-702e-b525-9cde1ad77653","","1248","
                <div class=""stimulus-container"">
                    <img src=""images/instructions/movie_1.png"" class=""exp-image"">
                    <div class=""question-area"">
                        <p style=""font-size: 20px; font-weight: bold; margin: 0;"">Was there a person in this image?</p>
                    </div>
                </div>","0","example_question","1","","","","","","",""
"","","","","","html-keyboard-response","8","47274","0.0-8.0","85D472BDF69843449CB3A4A3B220E324","019cf4a2-6ee9-7d7a-a565-66a543c83a53","019cf498-06e0-702e-b525-9cde1ad77653","","null","
                <div class=""stimulus-container"">
                    <img src=""images/instructions/movie_2.png"" class=""exp-image"">
                    <div class=""question-area""></div> 
                </div>","null","","","","","","","","",""
"","","","","","html-button-response","9","49194","0.0-9.0","85D472BDF69843449CB3A4A3B220E324","019cf4a2-6ee9-7d7a-a565-66a543c83a53","019cf498-06e0-702e-b525-9cde1ad77653","","1920","
                <div class=""stimulus-container"">
                    <img src=""images/instructions/movie_2.png"" class=""exp-image"">
                    <div class=""question-area"">
                        <p style=""font-size: 20px; font-weight: bold; margin: 0;"">Was there a person in this image?</p>
                    </div>
                </div>","0","example_question","2","","","","","","",""
"","","","","","html-keyboard-response","10","53198","0.0-10.0","85D472BDF69843449CB3A4A3B220E324","019cf4a2-6ee9-7d7a-a565-66a543c83a53","019cf498-06e0-702e-b525-9cde1ad77653","","null","
                <div class=""stimulus-container"">
                    <img src=""images/instructions/movie_3.png"" class=""exp-image"">
                    <div class=""question-area""></div> 
                </div>","null","","","","","","","","",""
"","","","","","html-button-response","11","53770","0.0-11.0","85D472BDF69843449CB3A4A3B220E324","019cf4a2-6ee9-7d7a-a565-66a543c83a53","019cf498-06e0-702e-b525-9cde1ad77653","","571","
                <div class=""stimulus-container"">
                    <img src=""images/instructions/movie_3.png"" class=""exp-image"">
                    <div class=""question-area"">
                        <p style=""font-size: 20px; font-weight: bold; margin: 0;"">Was there a person in this image?</p>
                    </div>
                </div>","0","example_question","3","","","","","","",""
"","","","","","html-keyboard-response","12","57779","0.0-12.0","85D472BDF69843449CB3A4A3B220E324","019cf4a2-6ee9-7d7a-a565-66a543c83a53","019cf498-06e0-702e-b525-9cde1ad77653","","null","
                <div class=""stimulus-container"">
                    <img src=""images/instructions/movie_4.png"" class=""exp-image"">
                    <div class=""question-area""></div> 
                </div>","null","","","","","","","","",""
"","","","","","html-button-response","13","58350","0.0-13.0","85D472BDF69843449CB3A4A3B220E324","019cf4a2-6ee9-7d7a-a565-66a543c83a53","019cf498-06e0-702e-b525-9cde1ad77653","","570","
                <div class=""stimulus-container"">
                    <img src=""images/instructions/movie_4.png"" class=""exp-image"">
                    <div class=""question-area"">
                        <p style=""font-size: 20px; font-weight: bold; margin: 0;"">Was there a person in this image?</p>
                    </div>
                </div>","0","example_question","4","","","","","","",""
"","","","","","instructions","14","59974","0.0-14.0","85D472BDF69843449CB3A4A3B220E324","019cf4a2-6ee9-7d7a-a565-66a543c83a53","019cf498-06e0-702e-b525-9cde1ad77653","[{""page_index"":0,""viewing_time"":1624}]","1624","","","","","","","","","","",""
"","","","","","instructions","15","65555","0.0-15.0","85D472BDF69843449CB3A4A3B220E324","019cf4a2-6ee9-7d7a-a565-66a543c83a53","019cf498-06e0-702e-b525-9cde1ad77653","[{""page_index"":0,""viewing_time"":5580}]","5581","","","","","","","","","","",""
"","","","","","html-keyboard-response","16","66561","0.0-16.0","85D472BDF69843449CB3A4A3B220E324","019cf4a2-6ee9-7d7a-a565-66a543c83a53","019cf498-06e0-702e-b525-9cde1ad77653","","null","<div style=""background-color: white; width: 100vw; height: 100vh;""></div>","null","","","","","","","","",""
"","","","","","html-keyboard-response","17","71571","0.0-17.0","85D472BDF69843449CB3A4A3B220E324","019cf4a2-6ee9-7d7a-a565-66a543c83a53","019cf498-06e0-702e-b525-9cde1ad77653","","null","
                <div class=""stimulus-container"">
                    <img src=""images/causal_sequence/coin_causal/coin_causal_1.png"" class=""exp-image"">
                    <div class=""question-area""></div> 
                </div>","null","","","","","","","","",""
"","","","","","html-button-response","18","72474","0.0-18.0","85D472BDF69843449CB3A4A3B220E324","019cf4a2-6ee9-7d7a-a565-66a543c83a53","019cf498-06e0-702e-b525-9cde1ad77653","","903","
                <div class=""stimulus-container"">
                    <img src=""images/causal_sequence/coin_causal/coin_causal_1.png"" class=""exp-image"">
                    <div class=""question-area"">
                        <p style=""font-size: 20px; font-weight: bold; margin: 0;"">Is there a person in this image?</p>
                    </div>
                </div>","0","main_experiment_trial","1","coin_causal","causal_sequence","","","","",""
"","","","","","html-keyboard-response","19","77481","0.0-19.0","85D472BDF69843449CB3A4A3B220E324","019cf4a2-6ee9-7d7a-a565-66a543c83a53","019cf498-06e0-702e-b525-9cde1ad77653","","null","
                <div class=""stimulus-container"">
                    <img src=""images/causal_sequence/coin_causal/coin_causal_2.png"" class=""exp-image"">
                    <div class=""question-area""></div> 
                </div>","null","","","","","","","","",""
"","","","","","html-button-response","20","78107","0.0-20.0","85D472BDF69843449CB3A4A3B220E324","019cf4a2-6ee9-7d7a-a565-66a543c83a53","019cf498-06e0-702e-b525-9cde1ad77653","","625","
                <div class=""stimulus-container"">
                    <img src=""images/causal_sequence/coin_causal/coin_causal_2.png"" class=""exp-image"">
                    <div class=""question-area"">
                        <p style=""font-size: 20px; font-weight: bold; margin: 0;"">Is there a person in this image?</p>
                    </div>
                </div>","0","main_experiment_trial","2","coin_causal","causal_sequence","","","","",""
"","","","","","html-keyboard-response","21","83122","0.0-21.0","85D472BDF69843449CB3A4A3B220E324","019cf4a2-6ee9-7d7a-a565-66a543c83a53","019cf498-06e0-702e-b525-9cde1ad77653","","null","
                <div class=""stimulus-container"">
                    <img src=""images/causal_sequence/coin_causal/coin_causal_3.png"" class=""exp-image"">
                    <div class=""question-area""></div> 
                </div>","null","","","","","","","","",""
"","","","","","html-button-response","22","84680","0.0-22.0","85D472BDF69843449CB3A4A3B220E324","019cf4a2-6ee9-7d7a-a565-66a543c83a53","019cf498-06e0-702e-b525-9cde1ad77653","","1557","
                <div class=""stimulus-container"">
                    <img src=""images/causal_sequence/coin_causal/coin_causal_3.png"" class=""exp-image"">
                    <div class=""question-area"">
                        <p style=""font-size: 20px; font-weight: bold; margin: 0;"">Is there a person in this image?</p>
                    </div>
                </div>","0","main_experiment_trial","3","coin_causal","causal_sequence","","","","",""
"","","","","","html-keyboard-response","23","89683","0.0-23.0","85D472BDF69843449CB3A4A3B220E324","019cf4a2-6ee9-7d7a-a565-66a543c83a53","019cf498-06e0-702e-b525-9cde1ad77653","","null","
                <div class=""stimulus-container"">
                    <img src=""images/causal_sequence/coin_causal/coin_causal_4.png"" class=""exp-image"">
                    <div class=""question-area""></div> 
                </div>","null","","","","","","","","",""
"","","","","","html-button-response","24","91255","0.0-24.0","85D472BDF69843449CB3A4A3B220E324","019cf4a2-6ee9-7d7a-a565-66a543c83a53","019cf498-06e0-702e-b525-9cde1ad77653","","1572","
                <div class=""stimulus-container"">
                    <img src=""images/causal_sequence/coin_causal/coin_causal_4.png"" class=""exp-image"">
                    <div class=""question-area"">
                        <p style=""font-size: 20px; font-weight: bold; margin: 0;"">Is there a person in this image?</p>
                    </div>
                </div>","0","main_experiment_trial","4","coin_causal","causal_sequence","","","","",""
"","","","","","html-keyboard-response","25","96262","0.0-25.0","85D472BDF69843449CB3A4A3B220E324","019cf4a2-6ee9-7d7a-a565-66a543c83a53","019cf498-06e0-702e-b525-9cde1ad77653","","null","
                <div class=""stimulus-container"">
                    <img src=""images/causal_sequence/coin_causal/coin_causal_5.png"" class=""exp-image"">
                    <div class=""question-area""></div> 
                </div>","null","","","","","","","","",""
"","","","","","html-button-response","26","96740","0.0-26.0","85D472BDF69843449CB3A4A3B220E324","019cf4a2-6ee9-7d7a-a565-66a543c83a53","019cf498-06e0-702e-b525-9cde1ad77653","","478","
                <div class=""stimulus-container"">
                    <img src=""images/causal_sequence/coin_causal/coin_causal_5.png"" class=""exp-image"">
                    <div class=""question-area"">
                        <p style=""font-size: 20px; font-weight: bold; margin: 0;"">Is there a person in this image?</p>
                    </div>
                </div>","0","main_experiment_trial","5","coin_causal","causal_sequence","","","","",""
"","","","","","html-keyboard-response","27","101745","0.0-27.0","85D472BDF69843449CB3A4A3B220E324","019cf4a2-6ee9-7d7a-a565-66a543c83a53","019cf498-06e0-702e-b525-9cde1ad77653","","null","
                <div class=""stimulus-container"">
                    <img src=""images/causal_sequence/coin_causal/coin_causal_6.png"" class=""exp-image"">
                    <div class=""question-area""></div> 
                </div>","null","","","","","","","","",""
"","","","","","html-button-response","28","102240","0.0-28.0","85D472BDF69843449CB3A4A3B220E324","019cf4a2-6ee9-7d7a-a565-66a543c83a53","019cf498-06e0-702e-b525-9cde1ad77653","","494","
                <div class=""stimulus-container"">
                    <img src=""images/causal_sequence/coin_causal/coin_causal_6.png"" class=""exp-image"">
                    <div class=""question-area"">
                        <p style=""font-size: 20px; font-weight: bold; margin: 0;"">Is there a person in this image?</p>
                    </div>
                </div>","0","main_experiment_trial","6","coin_causal","causal_sequence","","","","",""
"","","","","","html-keyboard-response","29","107242","0.0-29.0","85D472BDF69843449CB3A4A3B220E324","019cf4a2-6ee9-7d7a-a565-66a543c83a53","019cf498-06e0-702e-b525-9cde1ad77653","","null","
                <div class=""stimulus-container"">
                    <img src=""images/causal_sequence/coin_causal/coin_causal_7.png"" class=""exp-image"">
                    <div class=""question-area""></div> 
                </div>","null","","","","","","","","",""
"","","","","","html-button-response","30","108043","0.0-30.0","85D472BDF69843449CB3A4A3B220E324","019cf4a2-6ee9-7d7a-a565-66a543c83a53","019cf498-06e0-702e-b525-9cde1ad77653","","801","
                <div class=""stimulus-container"">
                    <img src=""images/causal_sequence/coin_causal/coin_causal_7.png"" class=""exp-image"">
                    <div class=""question-area"">
                        <p style=""font-size: 20px; font-weight: bold; margin: 0;"">Is there a person in this image?</p>
                    </div>
                </div>","1","main_experiment_trial","7","coin_causal","causal_sequence","","","","",""
"","","","","","html-keyboard-response","31","113045","0.0-31.0","85D472BDF69843449CB3A4A3B220E324","019cf4a2-6ee9-7d7a-a565-66a543c83a53","019cf498-06e0-702e-b525-9cde1ad77653","","null","
                <div class=""stimulus-container"">
                    <img src=""images/causal_sequence/coin_causal/coin_causal_8.png"" class=""exp-image"">
                    <div class=""question-area""></div> 
                </div>","null","","","","","","","","",""
"","","","","","html-button-response","32","114933","0.0-32.0","85D472BDF69843449CB3A4A3B220E324","019cf4a2-6ee9-7d7a-a565-66a543c83a53","019cf498-06e0-702e-b525-9cde1ad77653","","1888","
                <div class=""stimulus-container"">
                    <img src=""images/causal_sequence/coin_causal/coin_causal_8.png"" class=""exp-image"">
                    <div class=""question-area"">
                        <p style=""font-size: 20px; font-weight: bold; margin: 0;"">Is there a person in this image?</p>
                    </div>
                </div>","0","main_experiment_trial","8","coin_causal","causal_sequence","","","","",""
"","","","","","html-keyboard-response","33","119936","0.0-33.0","85D472BDF69843449CB3A4A3B220E324","019cf4a2-6ee9-7d7a-a565-66a543c83a53","019cf498-06e0-702e-b525-9cde1ad77653","","null","
                <div class=""stimulus-container"">
                    <img src=""images/causal_sequence/coin_causal/coin_causal_9.png"" class=""exp-image"">
                    <div class=""question-area""></div> 
                </div>","null","","","","","","","","",""
"","","","","","html-button-response","34","121107","0.0-34.0","85D472BDF69843449CB3A4A3B220E324","019cf4a2-6ee9-7d7a-a565-66a543c83a53","019cf498-06e0-702e-b525-9cde1ad77653","","1170","
                <div class=""stimulus-container"">
                    <img src=""images/causal_sequence/coin_causal/coin_causal_9.png"" class=""exp-image"">
                    <div class=""question-area"">
                        <p style=""font-size: 20px; font-weight: bold; margin: 0;"">Is there a person in this image?</p>
                    </div>
                </div>","0","main_experiment_trial","9","coin_causal","causal_sequence","","","","",""
"","","","","","html-keyboard-response","35","126108","0.0-35.0","85D472BDF69843449CB3A4A3B220E324","019cf4a2-6ee9-7d7a-a565-66a543c83a53","019cf498-06e0-702e-b525-9cde1ad77653","","null","
                <div class=""stimulus-container"">
                    <img src=""images/causal_sequence/coin_causal/coin_causal_ten.png"" class=""exp-image"">
                    <div class=""question-area""></div> 
                </div>","null","","","","","","","","",""
"","","","","","html-button-response","36","128944","0.0-36.0","85D472BDF69843449CB3A4A3B220E324","019cf4a2-6ee9-7d7a-a565-66a543c83a53","019cf498-06e0-702e-b525-9cde1ad77653","","2835","
                <div class=""stimulus-container"">
                    <img src=""images/causal_sequence/coin_causal/coin_causal_ten.png"" class=""exp-image"">
                    <div class=""question-area"">
                        <p style=""font-size: 20px; font-weight: bold; margin: 0;"">Is there a person in this image?</p>
                    </div>
                </div>","0","main_experiment_trial","ten","coin_causal","causal_sequence","","","","",""
"","","","","","html-keyboard-response","37","129950","0.0-37.0","85D472BDF69843449CB3A4A3B220E324","019cf4a2-6ee9-7d7a-a565-66a543c83a53","019cf498-06e0-702e-b525-9cde1ad77653","","null","<div style=""background-color: white; width: 100vw; height: 100vh;""></div>","null","","","","","","","","",""
"","","","","","html-keyboard-response","38","134959","0.0-38.0","85D472BDF69843449CB3A4A3B220E324","019cf4a2-6ee9-7d7a-a565-66a543c83a53","019cf498-06e0-702e-b525-9cde1ad77653","","null","
                <div class=""stimulus-container"">
                    <img src=""images/causal_sequence/dog_causal/dog_causal_1.png"" class=""exp-image"">
                    <div class=""question-area""></div> 
                </div>","null","","","","","","","","",""
"","","","","","html-button-response","39","136194","0.0-39.0","85D472BDF69843449CB3A4A3B220E324","019cf4a2-6ee9-7d7a-a565-66a543c83a53","019cf498-06e0-702e-b525-9cde1ad77653","","1235","
                <div class=""stimulus-container"">
                    <img src=""images/causal_sequence/dog_causal/dog_causal_1.png"" class=""exp-image"">
                    <div class=""question-area"">
                        <p style=""font-size: 20px; font-weight: bold; margin: 0;"">Is there a person in this image?</p>
                    </div>
                </div>","0","main_experiment_trial","1","dog_causal","causal_sequence","","","","",""
"","","","","","html-keyboard-response","40","141208","0.0-40.0","85D472BDF69843449CB3A4A3B220E324","019cf4a2-6ee9-7d7a-a565-66a543c83a53","019cf498-06e0-702e-b525-9cde1ad77653","","null","
                <div class=""stimulus-container"">
                    <img src=""images/causal_sequence/dog_causal/dog_causal_2.png"" class=""exp-image"">
                    <div class=""question-area""></div> 
                </div>","null","","","","","","","","",""
"","","","","","html-button-response","41","142108","0.0-41.0","85D472BDF69843449CB3A4A3B220E324","019cf4a2-6ee9-7d7a-a565-66a543c83a53","019cf498-06e0-702e-b525-9cde1ad77653","","899","
                <div class=""stimulus-container"">
                    <img src=""images/causal_sequence/dog_causal/dog_causal_2.png"" class=""exp-image"">
                    <div class=""question-area"">
                        <p style=""font-size: 20px; font-weight: bold; margin: 0;"">Is there a person in this image?</p>
                    </div>
                </div>","0","main_experiment_trial","2","dog_causal","causal_sequence","","","","",""
"","","","","","html-keyboard-response","42","147121","0.0-42.0","85D472BDF69843449CB3A4A3B220E324","019cf4a2-6ee9-7d7a-a565-66a543c83a53","019cf498-06e0-702e-b525-9cde1ad77653","","null","
                <div class=""stimulus-container"">
                    <img src=""images/causal_sequence/dog_causal/dog_causal_3.png"" class=""exp-image"">
                    <div class=""question-area""></div> 
                </div>","null","","","","","","","","",""
"","","","","","html-button-response","43","147704","0.0-43.0","85D472BDF69843449CB3A4A3B220E324","019cf4a2-6ee9-7d7a-a565-66a543c83a53","019cf498-06e0-702e-b525-9cde1ad77653","","583","
                <div class=""stimulus-container"">
                    <img src=""images/causal_sequence/dog_causal/dog_causal_3.png"" class=""exp-image"">
                    <div class=""question-area"">
                        <p style=""font-size: 20px; font-weight: bold; margin: 0;"">Is there a person in this image?</p>
                    </div>
                </div>","0","main_experiment_trial","3","dog_causal","causal_sequence","","","","",""
"","","","","","html-keyboard-response","44","152712","0.0-44.0","85D472BDF69843449CB3A4A3B220E324","019cf4a2-6ee9-7d7a-a565-66a543c83a53","019cf498-06e0-702e-b525-9cde1ad77653","","null","
                <div class=""stimulus-container"">
                    <img src=""images/causal_sequence/dog_causal/dog_causal_4.png"" class=""exp-image"">
                    <div class=""question-area""></div> 
                </div>","null","","","","","","","","",""
"","","","","","html-button-response","45","153419","0.0-45.0","85D472BDF69843449CB3A4A3B220E324","019cf4a2-6ee9-7d7a-a565-66a543c83a53","019cf498-06e0-702e-b525-9cde1ad77653","","707","
                <div class=""stimulus-container"">
                    <img src=""images/causal_sequence/dog_causal/dog_causal_4.png"" class=""exp-image"">
                    <div class=""question-area"">
                        <p style=""font-size: 20px; font-weight: bold; margin: 0;"">Is there a person in this image?</p>
                    </div>
                </div>","0","main_experiment_trial","4","dog_causal","causal_sequence","","","","",""
"","","","","","html-keyboard-response","46","158421","0.0-46.0","85D472BDF69843449CB3A4A3B220E324","019cf4a2-6ee9-7d7a-a565-66a543c83a53","019cf498-06e0-702e-b525-9cde1ad77653","","null","
                <div class=""stimulus-container"">
                    <img src=""images/causal_sequence/dog_causal/dog_causal_5.png"" class=""exp-image"">
                    <div class=""question-area""></div> 
                </div>","null","","","","","","","","",""
"","","","","","html-button-response","47","158926","0.0-47.0","85D472BDF69843449CB3A4A3B220E324","019cf4a2-6ee9-7d7a-a565-66a543c83a53","019cf498-06e0-702e-b525-9cde1ad77653","","504","
                <div class=""stimulus-container"">
                    <img src=""images/causal_sequence/dog_causal/dog_causal_5.png"" class=""exp-image"">
                    <div class=""question-area"">
                        <p style=""font-size: 20px; font-weight: bold; margin: 0;"">Is there a person in this image?</p>
                    </div>
                </div>","0","main_experiment_trial","5","dog_causal","causal_sequence","","","","",""
"","","","","","html-keyboard-response","48","163933","0.0-48.0","85D472BDF69843449CB3A4A3B220E324","019cf4a2-6ee9-7d7a-a565-66a543c83a53","019cf498-06e0-702e-b525-9cde1ad77653","","null","
                <div class=""stimulus-container"">
                    <img src=""images/causal_sequence/dog_causal/dog_causal_6.png"" class=""exp-image"">
                    <div class=""question-area""></div> 
                </div>","null","","","","","","","","",""
"","","","","","html-button-response","49","166619","0.0-49.0","85D472BDF69843449CB3A4A3B220E324","019cf4a2-6ee9-7d7a-a565-66a543c83a53","019cf498-06e0-702e-b525-9cde1ad77653","","2685","
                <div class=""stimulus-container"">
                    <img src=""images/causal_sequence/dog_causal/dog_causal_6.png"" class=""exp-image"">
                    <div class=""question-area"">
                        <p style=""font-size: 20px; font-weight: bold; margin: 0;"">Is there a person in this image?</p>
                    </div>
                </div>","0","main_experiment_trial","6","dog_causal","causal_sequence","","","","",""
"","","","","","html-keyboard-response","50","171620","0.0-50.0","85D472BDF69843449CB3A4A3B220E324","019cf4a2-6ee9-7d7a-a565-66a543c83a53","019cf498-06e0-702e-b525-9cde1ad77653","","null","
                <div class=""stimulus-container"">
                    <img src=""images/causal_sequence/dog_causal/dog_causal_7.png"" class=""exp-image"">
                    <div class=""question-area""></div> 
                </div>","null","","","","","","","","",""
"","","","","","html-button-response","51","173660","0.0-51.0","85D472BDF69843449CB3A4A3B220E324","019cf4a2-6ee9-7d7a-a565-66a543c83a53","019cf498-06e0-702e-b525-9cde1ad77653","","2040","
                <div class=""stimulus-container"">
                    <img src=""images/causal_sequence/dog_causal/dog_causal_7.png"" class=""exp-image"">
                    <div class=""question-area"">
                        <p style=""font-size: 20px; font-weight: bold; margin: 0;"">Is there a person in this image?</p>
                    </div>
                </div>","0","main_experiment_trial","7","dog_causal","causal_sequence","","","","",""
"","","","","","html-keyboard-response","52","178671","0.0-52.0","85D472BDF69843449CB3A4A3B220E324","019cf4a2-6ee9-7d7a-a565-66a543c83a53","019cf498-06e0-702e-b525-9cde1ad77653","","null","
                <div class=""stimulus-container"">
                    <img src=""images/causal_sequence/dog_causal/dog_causal_8.png"" class=""exp-image"">
                    <div class=""question-area""></div> 
                </div>","null","","","","","","","","",""
"","","","","","html-button-response","53","179693","0.0-53.0","85D472BDF69843449CB3A4A3B220E324","019cf4a2-6ee9-7d7a-a565-66a543c83a53","019cf498-06e0-702e-b525-9cde1ad77653","","1022","
                <div class=""stimulus-container"">
                    <img src=""images/causal_sequence/dog_causal/dog_causal_8.png"" class=""exp-image"">
                    <div class=""question-area"">
                        <p style=""font-size: 20px; font-weight: bold; margin: 0;"">Is there a person in this image?</p>
                    </div>
                </div>","0","main_experiment_trial","8","dog_causal","causal_sequence","","","","",""
"","","","","","html-keyboard-response","54","184699","0.0-54.0","85D472BDF69843449CB3A4A3B220E324","019cf4a2-6ee9-7d7a-a565-66a543c83a53","019cf498-06e0-702e-b525-9cde1ad77653","","null","
                <div class=""stimulus-container"">
                    <img src=""images/causal_sequence/dog_causal/dog_causal_9.png"" class=""exp-image"">
                    <div class=""question-area""></div> 
                </div>","null","","","","","","","","",""
"","","","","","html-button-response","55","185338","0.0-55.0","85D472BDF69843449CB3A4A3B220E324","019cf4a2-6ee9-7d7a-a565-66a543c83a53","019cf498-06e0-702e-b525-9cde1ad77653","","639","
                <div class=""stimulus-container"">
                    <img src=""images/causal_sequence/dog_causal/dog_causal_9.png"" class=""exp-image"">
                    <div class=""question-area"">
                        <p style=""font-size: 20px; font-weight: bold; margin: 0;"">Is there a person in this image?</p>
                    </div>
                </div>","0","main_experiment_trial","9","dog_causal","causal_sequence","","","","",""
"","","","","","html-keyboard-response","56","190352","0.0-56.0","85D472BDF69843449CB3A4A3B220E324","019cf4a2-6ee9-7d7a-a565-66a543c83a53","019cf498-06e0-702e-b525-9cde1ad77653","","null","
                <div class=""stimulus-container"">
                    <img src=""images/causal_sequence/dog_causal/dog_causal_ten.png"" class=""exp-image"">
                    <div class=""question-area""></div> 
                </div>","null","","","","","","","","",""
"","","","","","html-button-response","57","190736","0.0-57.0","85D472BDF69843449CB3A4A3B220E324","019cf4a2-6ee9-7d7a-a565-66a543c83a53","019cf498-06e0-702e-b525-9cde1ad77653","","384","
                <div class=""stimulus-container"">
                    <img src=""images/causal_sequence/dog_causal/dog_causal_ten.png"" class=""exp-image"">
                    <div class=""question-area"">
                        <p style=""font-size: 20px; font-weight: bold; margin: 0;"">Is there a person in this image?</p>
                    </div>
                </div>","0","main_experiment_trial","ten","dog_causal","causal_sequence","","","","",""
"","","","","","html-keyboard-response","58","191750","0.0-58.0","85D472BDF69843449CB3A4A3B220E324","019cf4a2-6ee9-7d7a-a565-66a543c83a53","019cf498-06e0-702e-b525-9cde1ad77653","","null","<div style=""background-color: white; width: 100vw; height: 100vh;""></div>","null","","","","","","","","",""
"","","","","","html-keyboard-response","59","196766","0.0-59.0","85D472BDF69843449CB3A4A3B220E324","019cf4a2-6ee9-7d7a-a565-66a543c83a53","019cf498-06e0-702e-b525-9cde1ad77653","","null","
                <div class=""stimulus-container"">
                    <img src=""images/schematic_sequence/supermarket_scheme/supermarket_scheme_1.png"" class=""exp-image"">
                    <div class=""question-area""></div> 
                </div>","null","","","","","","","","",""
"","","","","","html-button-response","60","197447","0.0-60.0","85D472BDF69843449CB3A4A3B220E324","019cf4a2-6ee9-7d7a-a565-66a543c83a53","019cf498-06e0-702e-b525-9cde1ad77653","","680","
                <div class=""stimulus-container"">
                    <img src=""images/schematic_sequence/supermarket_scheme/supermarket_scheme_1.png"" class=""exp-image"">
                    <div class=""question-area"">
                        <p style=""font-size: 20px; font-weight: bold; margin: 0;"">Is there a person in this image?</p>
                    </div>
                </div>","1","main_experiment_trial","1","supermarket_scheme","schematic_sequence","","","","",""
"","","","","","html-keyboard-response","61","202449","0.0-61.0","85D472BDF69843449CB3A4A3B220E324","019cf4a2-6ee9-7d7a-a565-66a543c83a53","019cf498-06e0-702e-b525-9cde1ad77653","","null","
                <div class=""stimulus-container"">
                    <img src=""images/schematic_sequence/supermarket_scheme/supermarket_scheme_2.png"" class=""exp-image"">
                    <div class=""question-area""></div> 
                </div>","null","","","","","","","","",""
"","","","","","html-button-response","62","205454","0.0-62.0","85D472BDF69843449CB3A4A3B220E324","019cf4a2-6ee9-7d7a-a565-66a543c83a53","019cf498-06e0-702e-b525-9cde1ad77653","","null","
                <div class=""stimulus-container"">
                    <img src=""images/schematic_sequence/supermarket_scheme/supermarket_scheme_2.png"" class=""exp-image"">
                    <div class=""question-area"">
                        <p style=""font-size: 20px; font-weight: bold; margin: 0;"">Is there a person in this image?</p>
                    </div>
                </div>","null","main_experiment_trial","2","supermarket_scheme","schematic_sequence","","","","",""
"","","","","","html-keyboard-response","63","210460","0.0-63.0","85D472BDF69843449CB3A4A3B220E324","019cf4a2-6ee9-7d7a-a565-66a543c83a53","019cf498-06e0-702e-b525-9cde1ad77653","","null","
                <div class=""stimulus-container"">
                    <img src=""images/schematic_sequence/supermarket_scheme/supermarket_scheme_3.png"" class=""exp-image"">
                    <div class=""question-area""></div> 
                </div>","null","","","","","","","","",""
"","","","","","html-button-response","64","211293","0.0-64.0","85D472BDF69843449CB3A4A3B220E324","019cf4a2-6ee9-7d7a-a565-66a543c83a53","019cf498-06e0-702e-b525-9cde1ad77653","","833","
                <div class=""stimulus-container"">
                    <img src=""images/schematic_sequence/supermarket_scheme/supermarket_scheme_3.png"" class=""exp-image"">
                    <div class=""question-area"">
                        <p style=""font-size: 20px; font-weight: bold; margin: 0;"">Is there a person in this image?</p>
                    </div>
                </div>","1","main_experiment_trial","3","supermarket_scheme","schematic_sequence","","","","",""
"","","","","","html-keyboard-response","65","216299","0.0-65.0","85D472BDF69843449CB3A4A3B220E324","019cf4a2-6ee9-7d7a-a565-66a543c83a53","019cf498-06e0-702e-b525-9cde1ad77653","","null","
                <div class=""stimulus-container"">
                    <img src=""images/schematic_sequence/supermarket_scheme/supermarket_scheme_4.png"" class=""exp-image"">
                    <div class=""question-area""></div> 
                </div>","null","","","","","","","","",""
"","","","","","html-button-response","66","217244","0.0-66.0","85D472BDF69843449CB3A4A3B220E324","019cf4a2-6ee9-7d7a-a565-66a543c83a53","019cf498-06e0-702e-b525-9cde1ad77653","","944","
                <div class=""stimulus-container"">
                    <img src=""images/schematic_sequence/supermarket_scheme/supermarket_scheme_4.png"" class=""exp-image"">
                    <div class=""question-area"">
                        <p style=""font-size: 20px; font-weight: bold; margin: 0;"">Is there a person in this image?</p>
                    </div>
                </div>","0","main_experiment_trial","4","supermarket_scheme","schematic_sequence","","","","",""
"","","","","","html-keyboard-response","67","222247","0.0-67.0","85D472BDF69843449CB3A4A3B220E324","019cf4a2-6ee9-7d7a-a565-66a543c83a53","019cf498-06e0-702e-b525-9cde1ad77653","","null","
                <div class=""stimulus-container"">
                    <img src=""images/schematic_sequence/supermarket_scheme/supermarket_scheme_5.png"" class=""exp-image"">
                    <div class=""question-area""></div> 
                </div>","null","","","","","","","","",""
"","","","","","html-button-response","68","223023","0.0-68.0","85D472BDF69843449CB3A4A3B220E324","019cf4a2-6ee9-7d7a-a565-66a543c83a53","019cf498-06e0-702e-b525-9cde1ad77653","","775","
                <div class=""stimulus-container"">
                    <img src=""images/schematic_sequence/supermarket_scheme/supermarket_scheme_5.png"" class=""exp-image"">
                    <div class=""question-area"">
                        <p style=""font-size: 20px; font-weight: bold; margin: 0;"">Is there a person in this image?</p>
                    </div>
                </div>","1","main_experiment_trial","5","supermarket_scheme","schematic_sequence","","","","",""
"","","","","","html-keyboard-response","69","228024","0.0-69.0","85D472BDF69843449CB3A4A3B220E324","019cf4a2-6ee9-7d7a-a565-66a543c83a53","019cf498-06e0-702e-b525-9cde1ad77653","","null","
                <div class=""stimulus-container"">
                    <img src=""images/schematic_sequence/supermarket_scheme/supermarket_scheme_6.png"" class=""exp-image"">
                    <div class=""question-area""></div> 
                </div>","null","","","","","","","","",""
"","","","","","html-button-response","70","229431","0.0-70.0","85D472BDF69843449CB3A4A3B220E324","019cf4a2-6ee9-7d7a-a565-66a543c83a53","019cf498-06e0-702e-b525-9cde1ad77653","","1407","
                <div class=""stimulus-container"">
                    <img src=""images/schematic_sequence/supermarket_scheme/supermarket_scheme_6.png"" class=""exp-image"">
                    <div class=""question-area"">
                        <p style=""font-size: 20px; font-weight: bold; margin: 0;"">Is there a person in this image?</p>
                    </div>
                </div>","0","main_experiment_trial","6","supermarket_scheme","schematic_sequence","","","","",""
"","","","","","html-keyboard-response","71","234433","0.0-71.0","85D472BDF69843449CB3A4A3B220E324","019cf4a2-6ee9-7d7a-a565-66a543c83a53","019cf498-06e0-702e-b525-9cde1ad77653","","null","
                <div class=""stimulus-container"">
                    <img src=""images/schematic_sequence/supermarket_scheme/supermarket_scheme_7.png"" class=""exp-image"">
                    <div class=""question-area""></div> 
                </div>","null","","","","","","","","",""
"","","","","","html-button-response","72","235450","0.0-72.0","85D472BDF69843449CB3A4A3B220E324","019cf4a2-6ee9-7d7a-a565-66a543c83a53","019cf498-06e0-702e-b525-9cde1ad77653","","1017","
                <div class=""stimulus-container"">
                    <img src=""images/schematic_sequence/supermarket_scheme/supermarket_scheme_7.png"" class=""exp-image"">
                    <div class=""question-area"">
                        <p style=""font-size: 20px; font-weight: bold; margin: 0;"">Is there a person in this image?</p>
                    </div>
                </div>","0","main_experiment_trial","7","supermarket_scheme","schematic_sequence","","","","",""
"","","","","","html-keyboard-response","73","240455","0.0-73.0","85D472BDF69843449CB3A4A3B220E324","019cf4a2-6ee9-7d7a-a565-66a543c83a53","019cf498-06e0-702e-b525-9cde1ad77653","","null","
                <div class=""stimulus-container"">
                    <img src=""images/schematic_sequence/supermarket_scheme/supermarket_scheme_8.png"" class=""exp-image"">
                    <div class=""question-area""></div> 
                </div>","null","","","","","","","","",""
"","","","","","html-button-response","74","241379","0.0-74.0","85D472BDF69843449CB3A4A3B220E324","019cf4a2-6ee9-7d7a-a565-66a543c83a53","019cf498-06e0-702e-b525-9cde1ad77653","","924","
                <div class=""stimulus-container"">
                    <img src=""images/schematic_sequence/supermarket_scheme/supermarket_scheme_8.png"" class=""exp-image"">
                    <div class=""question-area"">
                        <p style=""font-size: 20px; font-weight: bold; margin: 0;"">Is there a person in this image?</p>
                    </div>
                </div>","0","main_experiment_trial","8","supermarket_scheme","schematic_sequence","","","","",""
"","","","","","html-keyboard-response","75","246386","0.0-75.0","85D472BDF69843449CB3A4A3B220E324","019cf4a2-6ee9-7d7a-a565-66a543c83a53","019cf498-06e0-702e-b525-9cde1ad77653","","null","
                <div class=""stimulus-container"">
                    <img src=""images/schematic_sequence/supermarket_scheme/supermarket_scheme_9.png"" class=""exp-image"">
                    <div class=""question-area""></div> 
                </div>","null","","","","","","","","",""
"","","","","","html-button-response","76","246902","0.0-76.0","85D472BDF69843449CB3A4A3B220E324","019cf4a2-6ee9-7d7a-a565-66a543c83a53","019cf498-06e0-702e-b525-9cde1ad77653","","516","
                <div class=""stimulus-container"">
                    <img src=""images/schematic_sequence/supermarket_scheme/supermarket_scheme_9.png"" class=""exp-image"">
                    <div class=""question-area"">
                        <p style=""font-size: 20px; font-weight: bold; margin: 0;"">Is there a person in this image?</p>
                    </div>
                </div>","0","main_experiment_trial","9","supermarket_scheme","schematic_sequence","","","","",""
"","","","","","html-keyboard-response","77","251917","0.0-77.0","85D472BDF69843449CB3A4A3B220E324","019cf4a2-6ee9-7d7a-a565-66a543c83a53","019cf498-06e0-702e-b525-9cde1ad77653","","null","
                <div class=""stimulus-container"">
                    <img src=""images/schematic_sequence/supermarket_scheme/supermarket_scheme_ten.png"" class=""exp-image"">
                    <div class=""question-area""></div> 
                </div>","null","","","","","","","","",""
"","","","","","html-button-response","78","252713","0.0-78.0","85D472BDF69843449CB3A4A3B220E324","019cf4a2-6ee9-7d7a-a565-66a543c83a53","019cf498-06e0-702e-b525-9cde1ad77653","","795","
                <div class=""stimulus-container"">
                    <img src=""images/schematic_sequence/supermarket_scheme/supermarket_scheme_ten.png"" class=""exp-image"">
                    <div class=""question-area"">
                        <p style=""font-size: 20px; font-weight: bold; margin: 0;"">Is there a person in this image?</p>
                    </div>
                </div>","1","main_experiment_trial","ten","supermarket_scheme","schematic_sequence","","","","",""
"","","","","","html-keyboard-response","79","253723","0.0-79.0","85D472BDF69843449CB3A4A3B220E324","019cf4a2-6ee9-7d7a-a565-66a543c83a53","019cf498-06e0-702e-b525-9cde1ad77653","","null","<div style=""background-color: white; width: 100vw; height: 100vh;""></div>","null","","","","","","","","",""
"","","","","","html-keyboard-response","80","258729","0.0-80.0","85D472BDF69843449CB3A4A3B220E324","019cf4a2-6ee9-7d7a-a565-66a543c83a53","019cf498-06e0-702e-b525-9cde1ad77653","","null","
                <div class=""stimulus-container"">
                    <img src=""images/causal_sequence/museum_causal/museum_causal_1.png"" class=""exp-image"">
                    <div class=""question-area""></div> 
                </div>","null","","","","","","","","",""
"","","","","","html-button-response","81","259386","0.0-81.0","85D472BDF69843449CB3A4A3B220E324","019cf4a2-6ee9-7d7a-a565-66a543c83a53","019cf498-06e0-702e-b525-9cde1ad77653","","656","
                <div class=""stimulus-container"">
                    <img src=""images/causal_sequence/museum_causal/museum_causal_1.png"" class=""exp-image"">
                    <div class=""question-area"">
                        <p style=""font-size: 20px; font-weight: bold; margin: 0;"">Is there a person in this image?</p>
                    </div>
                </div>","0","main_experiment_trial","1","museum_causal","causal_sequence","","","","",""
"","","","","","html-keyboard-response","82","264395","0.0-82.0","85D472BDF69843449CB3A4A3B220E324","019cf4a2-6ee9-7d7a-a565-66a543c83a53","019cf498-06e0-702e-b525-9cde1ad77653","","null","
                <div class=""stimulus-container"">
                    <img src=""images/causal_sequence/museum_causal/museum_causal_2.png"" class=""exp-image"">
                    <div class=""question-area""></div> 
                </div>","null","","","","","","","","",""
"","","","","","html-button-response","83","265205","0.0-83.0","85D472BDF69843449CB3A4A3B220E324","019cf4a2-6ee9-7d7a-a565-66a543c83a53","019cf498-06e0-702e-b525-9cde1ad77653","","810","
                <div class=""stimulus-container"">
                    <img src=""images/causal_sequence/museum_causal/museum_causal_2.png"" class=""exp-image"">
                    <div class=""question-area"">
                        <p style=""font-size: 20px; font-weight: bold; margin: 0;"">Is there a person in this image?</p>
                    </div>
                </div>","1","main_experiment_trial","2","museum_causal","causal_sequence","","","","",""
"","","","","","html-keyboard-response","84","270210","0.0-84.0","85D472BDF69843449CB3A4A3B220E324","019cf4a2-6ee9-7d7a-a565-66a543c83a53","019cf498-06e0-702e-b525-9cde1ad77653","","null","
                <div class=""stimulus-container"">
                    <img src=""images/causal_sequence/museum_causal/museum_causal_3.png"" class=""exp-image"">
                    <div class=""question-area""></div> 
                </div>","null","","","","","","","","",""
"","","","","","html-button-response","85","270833","0.0-85.0","85D472BDF69843449CB3A4A3B220E324","019cf4a2-6ee9-7d7a-a565-66a543c83a53","019cf498-06e0-702e-b525-9cde1ad77653","","623","
                <div class=""stimulus-container"">
                    <img src=""images/causal_sequence/museum_causal/museum_causal_3.png"" class=""exp-image"">
                    <div class=""question-area"">
                        <p style=""font-size: 20px; font-weight: bold; margin: 0;"">Is there a person in this image?</p>
                    </div>
                </div>","0","main_experiment_trial","3","museum_causal","causal_sequence","","","","",""
"","","","","","html-keyboard-response","86","275846","0.0-86.0","85D472BDF69843449CB3A4A3B220E324","019cf4a2-6ee9-7d7a-a565-66a543c83a53","019cf498-06e0-702e-b525-9cde1ad77653","","null","
                <div class=""stimulus-container"">
                    <img src=""images/causal_sequence/museum_causal/museum_causal_4.png"" class=""exp-image"">
                    <div class=""question-area""></div> 
                </div>","null","","","","","","","","",""
"","","","","","html-button-response","87","277022","0.0-87.0","85D472BDF69843449CB3A4A3B220E324","019cf4a2-6ee9-7d7a-a565-66a543c83a53","019cf498-06e0-702e-b525-9cde1ad77653","","1176","
                <div class=""stimulus-container"">
                    <img src=""images/causal_sequence/museum_causal/museum_causal_4.png"" class=""exp-image"">
                    <div class=""question-area"">
                        <p style=""font-size: 20px; font-weight: bold; margin: 0;"">Is there a person in this image?</p>
                    </div>
                </div>","1","main_experiment_trial","4","museum_causal","causal_sequence","","","","",""
"","","","","","html-keyboard-response","88","282032","0.0-88.0","85D472BDF69843449CB3A4A3B220E324","019cf4a2-6ee9-7d7a-a565-66a543c83a53","019cf498-06e0-702e-b525-9cde1ad77653","","null","
                <div class=""stimulus-container"">
                    <img src=""images/causal_sequence/museum_causal/museum_causal_5.png"" class=""exp-image"">
                    <div class=""question-area""></div> 
                </div>","null","","","","","","","","",""
"","","","","","html-button-response","89","282826","0.0-89.0","85D472BDF69843449CB3A4A3B220E324","019cf4a2-6ee9-7d7a-a565-66a543c83a53","019cf498-06e0-702e-b525-9cde1ad77653","","794","
                <div class=""stimulus-container"">
                    <img src=""images/causal_sequence/museum_causal/museum_causal_5.png"" class=""exp-image"">
                    <div class=""question-area"">
                        <p style=""font-size: 20px; font-weight: bold; margin: 0;"">Is there a person in this image?</p>
                    </div>
                </div>","0","main_experiment_trial","5","museum_causal","causal_sequence","","","","",""
"","","","","","html-keyboard-response","90","287837","0.0-90.0","85D472BDF69843449CB3A4A3B220E324","019cf4a2-6ee9-7d7a-a565-66a543c83a53","019cf498-06e0-702e-b525-9cde1ad77653","","null","
                <div class=""stimulus-container"">
                    <img src=""images/causal_sequence/museum_causal/museum_causal_6.png"" class=""exp-image"">
                    <div class=""question-area""></div> 
                </div>","null","","","","","","","","",""
"","","","","","html-button-response","91","289360","0.0-91.0","85D472BDF69843449CB3A4A3B220E324","019cf4a2-6ee9-7d7a-a565-66a543c83a53","019cf498-06e0-702e-b525-9cde1ad77653","","1523","
                <div class=""stimulus-container"">
                    <img src=""images/causal_sequence/museum_causal/museum_causal_6.png"" class=""exp-image"">
                    <div class=""question-area"">
                        <p style=""font-size: 20px; font-weight: bold; margin: 0;"">Is there a person in this image?</p>
                    </div>
                </div>","0","main_experiment_trial","6","museum_causal","causal_sequence","","","","",""
"","","","","","html-keyboard-response","92","294376","0.0-92.0","85D472BDF69843449CB3A4A3B220E324","019cf4a2-6ee9-7d7a-a565-66a543c83a53","019cf498-06e0-702e-b525-9cde1ad77653","","null","
                <div class=""stimulus-container"">
                    <img src=""images/causal_sequence/museum_causal/museum_causal_7.png"" class=""exp-image"">
                    <div class=""question-area""></div> 
                </div>","null","","","","","","","","",""
"","","","","","html-button-response","93","295029","0.0-93.0","85D472BDF69843449CB3A4A3B220E324","019cf4a2-6ee9-7d7a-a565-66a543c83a53","019cf498-06e0-702e-b525-9cde1ad77653","","653","
                <div class=""stimulus-container"">
                    <img src=""images/causal_sequence/museum_causal/museum_causal_7.png"" class=""exp-image"">
                    <div class=""question-area"">
                        <p style=""font-size: 20px; font-weight: bold; margin: 0;"">Is there a person in this image?</p>
                    </div>
                </div>","1","main_experiment_trial","7","museum_causal","causal_sequence","","","","",""
"","","","","","html-keyboard-response","94","300034","0.0-94.0","85D472BDF69843449CB3A4A3B220E324","019cf4a2-6ee9-7d7a-a565-66a543c83a53","019cf498-06e0-702e-b525-9cde1ad77653","","null","
                <div class=""stimulus-container"">
                    <img src=""images/causal_sequence/museum_causal/museum_causal_8.png"" class=""exp-image"">
                    <div class=""question-area""></div> 
                </div>","null","","","","","","","","",""
"","","","","","html-button-response","95","300796","0.0-95.0","85D472BDF69843449CB3A4A3B220E324","019cf4a2-6ee9-7d7a-a565-66a543c83a53","019cf498-06e0-702e-b525-9cde1ad77653","","761","
                <div class=""stimulus-container"">
                    <img src=""images/causal_sequence/museum_causal/museum_causal_8.png"" class=""exp-image"">
                    <div class=""question-area"">
                        <p style=""font-size: 20px; font-weight: bold; margin: 0;"">Is there a person in this image?</p>
                    </div>
                </div>","0","main_experiment_trial","8","museum_causal","causal_sequence","","","","",""
"","","","","","html-keyboard-response","96","305803","0.0-96.0","85D472BDF69843449CB3A4A3B220E324","019cf4a2-6ee9-7d7a-a565-66a543c83a53","019cf498-06e0-702e-b525-9cde1ad77653","","null","
                <div class=""stimulus-container"">
                    <img src=""images/causal_sequence/museum_causal/museum_causal_9.png"" class=""exp-image"">
                    <div class=""question-area""></div> 
                </div>","null","","","","","","","","",""
"","","","","","html-button-response","97","306532","0.0-97.0","85D472BDF69843449CB3A4A3B220E324","019cf4a2-6ee9-7d7a-a565-66a543c83a53","019cf498-06e0-702e-b525-9cde1ad77653","","728","
                <div class=""stimulus-container"">
                    <img src=""images/causal_sequence/museum_causal/museum_causal_9.png"" class=""exp-image"">
                    <div class=""question-area"">
                        <p style=""font-size: 20px; font-weight: bold; margin: 0;"">Is there a person in this image?</p>
                    </div>
                </div>","1","main_experiment_trial","9","museum_causal","causal_sequence","","","","",""
"","","","","","html-keyboard-response","98","311535","0.0-98.0","85D472BDF69843449CB3A4A3B220E324","019cf4a2-6ee9-7d7a-a565-66a543c83a53","019cf498-06e0-702e-b525-9cde1ad77653","","null","
                <div class=""stimulus-container"">
                    <img src=""images/causal_sequence/museum_causal/museum_causal_ten.png"" class=""exp-image"">
                    <div class=""question-area""></div> 
                </div>","null","","","","","","","","",""
"","","","","","html-button-response","99","312075","0.0-99.0","85D472BDF69843449CB3A4A3B220E324","019cf4a2-6ee9-7d7a-a565-66a543c83a53","019cf498-06e0-702e-b525-9cde1ad77653","","540","
                <div class=""stimulus-container"">
                    <img src=""images/causal_sequence/museum_causal/museum_causal_ten.png"" class=""exp-image"">
                    <div class=""question-area"">
                        <p style=""font-size: 20px; font-weight: bold; margin: 0;"">Is there a person in this image?</p>
                    </div>
                </div>","0","main_experiment_trial","ten","museum_causal","causal_sequence","","","","",""
"","","","","","html-keyboard-response","100","313077","0.0-100.0","85D472BDF69843449CB3A4A3B220E324","019cf4a2-6ee9-7d7a-a565-66a543c83a53","019cf498-06e0-702e-b525-9cde1ad77653","","null","<div style=""background-color: white; width: 100vw; height: 100vh;""></div>","null","","","","","","","","",""
"","","","","","html-keyboard-response","101","318085","0.0-101.0","85D472BDF69843449CB3A4A3B220E324","019cf4a2-6ee9-7d7a-a565-66a543c83a53","019cf498-06e0-702e-b525-9cde1ad77653","","null","
                <div class=""stimulus-container"">
                    <img src=""images/causal_sequence/package_causal/package_causal_1.png"" class=""exp-image"">
                    <div class=""question-area""></div> 
                </div>","null","","","","","","","","",""
"","","","","","html-button-response","102","318494","0.0-102.0","85D472BDF69843449CB3A4A3B220E324","019cf4a2-6ee9-7d7a-a565-66a543c83a53","019cf498-06e0-702e-b525-9cde1ad77653","","409","
                <div class=""stimulus-container"">
                    <img src=""images/causal_sequence/package_causal/package_causal_1.png"" class=""exp-image"">
                    <div class=""question-area"">
                        <p style=""font-size: 20px; font-weight: bold; margin: 0;"">Is there a person in this image?</p>
                    </div>
                </div>","0","main_experiment_trial","1","package_causal","causal_sequence","","","","",""
"","","","","","html-keyboard-response","103","323497","0.0-103.0","85D472BDF69843449CB3A4A3B220E324","019cf4a2-6ee9-7d7a-a565-66a543c83a53","019cf498-06e0-702e-b525-9cde1ad77653","","null","
                <div class=""stimulus-container"">
                    <img src=""images/causal_sequence/package_causal/package_causal_2.png"" class=""exp-image"">
                    <div class=""question-area""></div> 
                </div>","null","","","","","","","","",""
"","","","","","html-button-response","104","323930","0.0-104.0","85D472BDF69843449CB3A4A3B220E324","019cf4a2-6ee9-7d7a-a565-66a543c83a53","019cf498-06e0-702e-b525-9cde1ad77653","","433","
                <div class=""stimulus-container"">
                    <img src=""images/causal_sequence/package_causal/package_causal_2.png"" class=""exp-image"">
                    <div class=""question-area"">
                        <p style=""font-size: 20px; font-weight: bold; margin: 0;"">Is there a person in this image?</p>
                    </div>
                </div>","0","main_experiment_trial","2","package_causal","causal_sequence","","","","",""
"","","","","","html-keyboard-response","105","328937","0.0-105.0","85D472BDF69843449CB3A4A3B220E324","019cf4a2-6ee9-7d7a-a565-66a543c83a53","019cf498-06e0-702e-b525-9cde1ad77653","","null","
                <div class=""stimulus-container"">
                    <img src=""images/causal_sequence/package_causal/package_causal_3.png"" class=""exp-image"">
                    <div class=""question-area""></div> 
                </div>","null","","","","","","","","",""
"","","","","","html-button-response","106","329326","0.0-106.0","85D472BDF69843449CB3A4A3B220E324","019cf4a2-6ee9-7d7a-a565-66a543c83a53","019cf498-06e0-702e-b525-9cde1ad77653","","389","
                <div class=""stimulus-container"">
                    <img src=""images/causal_sequence/package_causal/package_causal_3.png"" class=""exp-image"">
                    <div class=""question-area"">
                        <p style=""font-size: 20px; font-weight: bold; margin: 0;"">Is there a person in this image?</p>
                    </div>
                </div>","0","main_experiment_trial","3","package_causal","causal_sequence","","","","",""
"","","","","","html-keyboard-response","107","334341","0.0-107.0","85D472BDF69843449CB3A4A3B220E324","019cf4a2-6ee9-7d7a-a565-66a543c83a53","019cf498-06e0-702e-b525-9cde1ad77653","","null","
                <div class=""stimulus-container"">
                    <img src=""images/causal_sequence/package_causal/package_causal_4.png"" class=""exp-image"">
                    <div class=""question-area""></div> 
                </div>","null","","","","","","","","",""
"","","","","","html-button-response","108","334692","0.0-108.0","85D472BDF69843449CB3A4A3B220E324","019cf4a2-6ee9-7d7a-a565-66a543c83a53","019cf498-06e0-702e-b525-9cde1ad77653","","351","
                <div class=""stimulus-container"">
                    <img src=""images/causal_sequence/package_causal/package_causal_4.png"" class=""exp-image"">
                    <div class=""question-area"">
                        <p style=""font-size: 20px; font-weight: bold; margin: 0;"">Is there a person in this image?</p>
                    </div>
                </div>","1","main_experiment_trial","4","package_causal","causal_sequence","","","","",""
"","","","","","html-keyboard-response","109","339698","0.0-109.0","85D472BDF69843449CB3A4A3B220E324","019cf4a2-6ee9-7d7a-a565-66a543c83a53","019cf498-06e0-702e-b525-9cde1ad77653","","null","
                <div class=""stimulus-container"">
                    <img src=""images/causal_sequence/package_causal/package_causal_5.png"" class=""exp-image"">
                    <div class=""question-area""></div> 
                </div>","null","","","","","","","","",""
"","","","","","html-button-response","110","340104","0.0-110.0","85D472BDF69843449CB3A4A3B220E324","019cf4a2-6ee9-7d7a-a565-66a543c83a53","019cf498-06e0-702e-b525-9cde1ad77653","","406","
                <div class=""stimulus-container"">
                    <img src=""images/causal_sequence/package_causal/package_causal_5.png"" class=""exp-image"">
                    <div class=""question-area"">
                        <p style=""font-size: 20px; font-weight: bold; margin: 0;"">Is there a person in this image?</p>
                    </div>
                </div>","0","main_experiment_trial","5","package_causal","causal_sequence","","","","",""
"","","","","","html-keyboard-response","111","345108","0.0-111.0","85D472BDF69843449CB3A4A3B220E324","019cf4a2-6ee9-7d7a-a565-66a543c83a53","019cf498-06e0-702e-b525-9cde1ad77653","","null","
                <div class=""stimulus-container"">
                    <img src=""images/causal_sequence/package_causal/package_causal_6.png"" class=""exp-image"">
                    <div class=""question-area""></div> 
                </div>","null","","","","","","","","",""
"","","","","","html-button-response","112","345635","0.0-112.0","85D472BDF69843449CB3A4A3B220E324","019cf4a2-6ee9-7d7a-a565-66a543c83a53","019cf498-06e0-702e-b525-9cde1ad77653","","526","
                <div class=""stimulus-container"">
                    <img src=""images/causal_sequence/package_causal/package_causal_6.png"" class=""exp-image"">
                    <div class=""question-area"">
                        <p style=""font-size: 20px; font-weight: bold; margin: 0;"">Is there a person in this image?</p>
                    </div>
                </div>","0","main_experiment_trial","6","package_causal","causal_sequence","","","","",""
"","","","","","html-keyboard-response","113","350648","0.0-113.0","85D472BDF69843449CB3A4A3B220E324","019cf4a2-6ee9-7d7a-a565-66a543c83a53","019cf498-06e0-702e-b525-9cde1ad77653","","null","
                <div class=""stimulus-container"">
                    <img src=""images/causal_sequence/package_causal/package_causal_7.png"" class=""exp-image"">
                    <div class=""question-area""></div> 
                </div>","null","","","","","","","","",""
"","","","","","html-button-response","114","351197","0.0-114.0","85D472BDF69843449CB3A4A3B220E324","019cf4a2-6ee9-7d7a-a565-66a543c83a53","019cf498-06e0-702e-b525-9cde1ad77653","","548","
                <div class=""stimulus-container"">
                    <img src=""images/causal_sequence/package_causal/package_causal_7.png"" class=""exp-image"">
                    <div class=""question-area"">
                        <p style=""font-size: 20px; font-weight: bold; margin: 0;"">Is there a person in this image?</p>
                    </div>
                </div>","0","main_experiment_trial","7","package_causal","causal_sequence","","","","",""
"","","","","","html-keyboard-response","115","356198","0.0-115.0","85D472BDF69843449CB3A4A3B220E324","019cf4a2-6ee9-7d7a-a565-66a543c83a53","019cf498-06e0-702e-b525-9cde1ad77653","","null","
                <div class=""stimulus-container"">
                    <img src=""images/causal_sequence/package_causal/package_causal_8.png"" class=""exp-image"">
                    <div class=""question-area""></div> 
                </div>","null","","","","","","","","",""
"","","","","","html-button-response","116","356537","0.0-116.0","85D472BDF69843449CB3A4A3B220E324","019cf4a2-6ee9-7d7a-a565-66a543c83a53","019cf498-06e0-702e-b525-9cde1ad77653","","339","
                <div class=""stimulus-container"">
                    <img src=""images/causal_sequence/package_causal/package_causal_8.png"" class=""exp-image"">
                    <div class=""question-area"">
                        <p style=""font-size: 20px; font-weight: bold; margin: 0;"">Is there a person in this image?</p>
                    </div>
                </div>","0","main_experiment_trial","8","package_causal","causal_sequence","","","","",""
"","","","","","html-keyboard-response","117","361543","0.0-117.0","85D472BDF69843449CB3A4A3B220E324","019cf4a2-6ee9-7d7a-a565-66a543c83a53","019cf498-06e0-702e-b525-9cde1ad77653","","null","
                <div class=""stimulus-container"">
                    <img src=""images/causal_sequence/package_causal/package_causal_9.png"" class=""exp-image"">
                    <div class=""question-area""></div> 
                </div>","null","","","","","","","","",""
"","","","","","html-button-response","118","361870","0.0-118.0","85D472BDF69843449CB3A4A3B220E324","019cf4a2-6ee9-7d7a-a565-66a543c83a53","019cf498-06e0-702e-b525-9cde1ad77653","","327","
                <div class=""stimulus-container"">
                    <img src=""images/causal_sequence/package_causal/package_causal_9.png"" class=""exp-image"">
                    <div class=""question-area"">
                        <p style=""font-size: 20px; font-weight: bold; margin: 0;"">Is there a person in this image?</p>
                    </div>
                </div>","0","main_experiment_trial","9","package_causal","causal_sequence","","","","",""
"","","","","","html-keyboard-response","119","366886","0.0-119.0","85D472BDF69843449CB3A4A3B220E324","019cf4a2-6ee9-7d7a-a565-66a543c83a53","019cf498-06e0-702e-b525-9cde1ad77653","","null","
                <div class=""stimulus-container"">
                    <img src=""images/causal_sequence/package_causal/package_causal_ten.png"" class=""exp-image"">
                    <div class=""question-area""></div> 
                </div>","null","","","","","","","","",""
"","","","","","html-button-response","120","367790","0.0-120.0","85D472BDF69843449CB3A4A3B220E324","019cf4a2-6ee9-7d7a-a565-66a543c83a53","019cf498-06e0-702e-b525-9cde1ad77653","","904","
                <div class=""stimulus-container"">
                    <img src=""images/causal_sequence/package_causal/package_causal_ten.png"" class=""exp-image"">
                    <div class=""question-area"">
                        <p style=""font-size: 20px; font-weight: bold; margin: 0;"">Is there a person in this image?</p>
                    </div>
                </div>","0","main_experiment_trial","ten","package_causal","causal_sequence","","","","",""
"","","","","","html-keyboard-response","121","368796","0.0-121.0","85D472BDF69843449CB3A4A3B220E324","019cf4a2-6ee9-7d7a-a565-66a543c83a53","019cf498-06e0-702e-b525-9cde1ad77653","","null","<div style=""background-color: white; width: 100vw; height: 100vh;""></div>","null","","","","","","","","",""
"","","","","","html-keyboard-response","122","373802","0.0-122.0","85D472BDF69843449CB3A4A3B220E324","019cf4a2-6ee9-7d7a-a565-66a543c83a53","019cf498-06e0-702e-b525-9cde1ad77653","","null","
                <div class=""stimulus-container"">
                    <img src=""images/causal_sequence/the_performance_causal/the_performance_causal_1.png"" class=""exp-image"">
                    <div class=""question-area""></div> 
                </div>","null","","","","","","","","",""
"","","","","","html-button-response","123","374288","0.0-123.0","85D472BDF69843449CB3A4A3B220E324","019cf4a2-6ee9-7d7a-a565-66a543c83a53","019cf498-06e0-702e-b525-9cde1ad77653","","486","
                <div class=""stimulus-container"">
                    <img src=""images/causal_sequence/the_performance_causal/the_performance_causal_1.png"" class=""exp-image"">
                    <div class=""question-area"">
                        <p style=""font-size: 20px; font-weight: bold; margin: 0;"">Is there a person in this image?</p>
                    </div>
                </div>","0","main_experiment_trial","1","the_performance_causal","causal_sequence","","","","",""
"","","","","","html-keyboard-response","124","379291","0.0-124.0","85D472BDF69843449CB3A4A3B220E324","019cf4a2-6ee9-7d7a-a565-66a543c83a53","019cf498-06e0-702e-b525-9cde1ad77653","","null","
                <div class=""stimulus-container"">
                    <img src=""images/causal_sequence/the_performance_causal/the_performance_causal_2.png"" class=""exp-image"">
                    <div class=""question-area""></div> 
                </div>","null","","","","","","","","",""
"","","","","","html-button-response","125","380552","0.0-125.0","85D472BDF69843449CB3A4A3B220E324","019cf4a2-6ee9-7d7a-a565-66a543c83a53","019cf498-06e0-702e-b525-9cde1ad77653","","1260","
                <div class=""stimulus-container"">
                    <img src=""images/causal_sequence/the_performance_causal/the_performance_causal_2.png"" class=""exp-image"">
                    <div class=""question-area"">
                        <p style=""font-size: 20px; font-weight: bold; margin: 0;"">Is there a person in this image?</p>
                    </div>
                </div>","0","main_experiment_trial","2","the_performance_causal","causal_sequence","","","","",""
"","","","","","html-keyboard-response","126","385565","0.0-126.0","85D472BDF69843449CB3A4A3B220E324","019cf4a2-6ee9-7d7a-a565-66a543c83a53","019cf498-06e0-702e-b525-9cde1ad77653","","null","
                <div class=""stimulus-container"">
                    <img src=""images/causal_sequence/the_performance_causal/the_performance_causal_3.png"" class=""exp-image"">
                    <div class=""question-area""></div> 
                </div>","null","","","","","","","","",""
"","","","","","html-button-response","127","387425","0.0-127.0","85D472BDF69843449CB3A4A3B220E324","019cf4a2-6ee9-7d7a-a565-66a543c83a53","019cf498-06e0-702e-b525-9cde1ad77653","","1860","
                <div class=""stimulus-container"">
                    <img src=""images/causal_sequence/the_performance_causal/the_performance_causal_3.png"" class=""exp-image"">
                    <div class=""question-area"">
                        <p style=""font-size: 20px; font-weight: bold; margin: 0;"">Is there a person in this image?</p>
                    </div>
                </div>","0","main_experiment_trial","3","the_performance_causal","causal_sequence","","","","",""
"","","","","","html-keyboard-response","128","392441","0.0-128.0","85D472BDF69843449CB3A4A3B220E324","019cf4a2-6ee9-7d7a-a565-66a543c83a53","019cf498-06e0-702e-b525-9cde1ad77653","","null","
                <div class=""stimulus-container"">
                    <img src=""images/causal_sequence/the_performance_causal/the_performance_causal_4.png"" class=""exp-image"">
                    <div class=""question-area""></div> 
                </div>","null","","","","","","","","",""
"","","","","","html-button-response","129","394440","0.0-129.0","85D472BDF69843449CB3A4A3B220E324","019cf4a2-6ee9-7d7a-a565-66a543c83a53","019cf498-06e0-702e-b525-9cde1ad77653","","1999","
                <div class=""stimulus-container"">
                    <img src=""images/causal_sequence/the_performance_causal/the_performance_causal_4.png"" class=""exp-image"">
                    <div class=""question-area"">
                        <p style=""font-size: 20px; font-weight: bold; margin: 0;"">Is there a person in this image?</p>
                    </div>
                </div>","0","main_experiment_trial","4","the_performance_causal","causal_sequence","","","","",""
"","","","","","html-keyboard-response","130","399450","0.0-130.0","85D472BDF69843449CB3A4A3B220E324","019cf4a2-6ee9-7d7a-a565-66a543c83a53","019cf498-06e0-702e-b525-9cde1ad77653","","null","
                <div class=""stimulus-container"">
                    <img src=""images/causal_sequence/the_performance_causal/the_performance_causal_5.png"" class=""exp-image"">
                    <div class=""question-area""></div> 
                </div>","null","","","","","","","","",""
"","","","","","html-button-response","131","399985","0.0-131.0","85D472BDF69843449CB3A4A3B220E324","019cf4a2-6ee9-7d7a-a565-66a543c83a53","019cf498-06e0-702e-b525-9cde1ad77653","","534","
                <div class=""stimulus-container"">
                    <img src=""images/causal_sequence/the_performance_causal/the_performance_causal_5.png"" class=""exp-image"">
                    <div class=""question-area"">
                        <p style=""font-size: 20px; font-weight: bold; margin: 0;"">Is there a person in this image?</p>
                    </div>
                </div>","0","main_experiment_trial","5","the_performance_causal","causal_sequence","","","","",""
"","","","","","html-keyboard-response","132","404986","0.0-132.0","85D472BDF69843449CB3A4A3B220E324","019cf4a2-6ee9-7d7a-a565-66a543c83a53","019cf498-06e0-702e-b525-9cde1ad77653","","null","
                <div class=""stimulus-container"">
                    <img src=""images/causal_sequence/the_performance_causal/the_performance_causal_6.png"" class=""exp-image"">
                    <div class=""question-area""></div> 
                </div>","null","","","","","","","","",""
"","","","","","html-button-response","133","405535","0.0-133.0","85D472BDF69843449CB3A4A3B220E324","019cf4a2-6ee9-7d7a-a565-66a543c83a53","019cf498-06e0-702e-b525-9cde1ad77653","","548","
                <div class=""stimulus-container"">
                    <img src=""images/causal_sequence/the_performance_causal/the_performance_causal_6.png"" class=""exp-image"">
                    <div class=""question-area"">
                        <p style=""font-size: 20px; font-weight: bold; margin: 0;"">Is there a person in this image?</p>
                    </div>
                </div>","0","main_experiment_trial","6","the_performance_causal","causal_sequence","","","","",""
"","","","","","html-keyboard-response","134","410549","0.0-134.0","85D472BDF69843449CB3A4A3B220E324","019cf4a2-6ee9-7d7a-a565-66a543c83a53","019cf498-06e0-702e-b525-9cde1ad77653","","null","
                <div class=""stimulus-container"">
                    <img src=""images/causal_sequence/the_performance_causal/the_performance_causal_7.png"" class=""exp-image"">
                    <div class=""question-area""></div> 
                </div>","null","","","","","","","","",""
"","","","","","html-button-response","135","411624","0.0-135.0","85D472BDF69843449CB3A4A3B220E324","019cf4a2-6ee9-7d7a-a565-66a543c83a53","019cf498-06e0-702e-b525-9cde1ad77653","","1074","
                <div class=""stimulus-container"">
                    <img src=""images/causal_sequence/the_performance_causal/the_performance_causal_7.png"" class=""exp-image"">
                    <div class=""question-area"">
                        <p style=""font-size: 20px; font-weight: bold; margin: 0;"">Is there a person in this image?</p>
                    </div>
                </div>","0","main_experiment_trial","7","the_performance_causal","causal_sequence","","","","",""
"","","","","","html-keyboard-response","136","416631","0.0-136.0","85D472BDF69843449CB3A4A3B220E324","019cf4a2-6ee9-7d7a-a565-66a543c83a53","019cf498-06e0-702e-b525-9cde1ad77653","","null","
                <div class=""stimulus-container"">
                    <img src=""images/causal_sequence/the_performance_causal/the_performance_causal_8.png"" class=""exp-image"">
                    <div class=""question-area""></div> 
                </div>","null","","","","","","","","",""
"","","","","","html-button-response","137","417667","0.0-137.0","85D472BDF69843449CB3A4A3B220E324","019cf4a2-6ee9-7d7a-a565-66a543c83a53","019cf498-06e0-702e-b525-9cde1ad77653","","1035","
                <div class=""stimulus-container"">
                    <img src=""images/causal_sequence/the_performance_causal/the_performance_causal_8.png"" class=""exp-image"">
                    <div class=""question-area"">
                        <p style=""font-size: 20px; font-weight: bold; margin: 0;"">Is there a person in this image?</p>
                    </div>
                </div>","0","main_experiment_trial","8","the_performance_causal","causal_sequence","","","","",""
"","","","","","html-keyboard-response","138","422678","0.0-138.0","85D472BDF69843449CB3A4A3B220E324","019cf4a2-6ee9-7d7a-a565-66a543c83a53","019cf498-06e0-702e-b525-9cde1ad77653","","null","
                <div class=""stimulus-container"">
                    <img src=""images/causal_sequence/the_performance_causal/the_performance_causal_9.png"" class=""exp-image"">
                    <div class=""question-area""></div> 
                </div>","null","","","","","","","","",""
"","","","","","html-button-response","139","423188","0.0-139.0","85D472BDF69843449CB3A4A3B220E324","019cf4a2-6ee9-7d7a-a565-66a543c83a53","019cf498-06e0-702e-b525-9cde1ad77653","","510","
                <div class=""stimulus-container"">
                    <img src=""images/causal_sequence/the_performance_causal/the_performance_causal_9.png"" class=""exp-image"">
                    <div class=""question-area"">
                        <p style=""font-size: 20px; font-weight: bold; margin: 0;"">Is there a person in this image?</p>
                    </div>
                </div>","0","main_experiment_trial","9","the_performance_causal","causal_sequence","","","","",""
"","","","","","html-keyboard-response","140","428192","0.0-140.0","85D472BDF69843449CB3A4A3B220E324","019cf4a2-6ee9-7d7a-a565-66a543c83a53","019cf498-06e0-702e-b525-9cde1ad77653","","null","
                <div class=""stimulus-container"">
                    <img src=""images/causal_sequence/the_performance_causal/the_performance_causal_ten.png"" class=""exp-image"">
                    <div class=""question-area""></div> 
                </div>","null","","","","","","","","",""
"","","","","","html-button-response","141","428726","0.0-141.0","85D472BDF69843449CB3A4A3B220E324","019cf4a2-6ee9-7d7a-a565-66a543c83a53","019cf498-06e0-702e-b525-9cde1ad77653","","534","
                <div class=""stimulus-container"">
                    <img src=""images/causal_sequence/the_performance_causal/the_performance_causal_ten.png"" class=""exp-image"">
                    <div class=""question-area"">
                        <p style=""font-size: 20px; font-weight: bold; margin: 0;"">Is there a person in this image?</p>
                    </div>
                </div>","0","main_experiment_trial","ten","the_performance_causal","causal_sequence","","","","",""
"","","","","","html-keyboard-response","142","429743","0.0-142.0","85D472BDF69843449CB3A4A3B220E324","019cf4a2-6ee9-7d7a-a565-66a543c83a53","019cf498-06e0-702e-b525-9cde1ad77653","","null","<div style=""background-color: white; width: 100vw; height: 100vh;""></div>","null","","","","","","","","",""
"","","","","","html-keyboard-response","143","434757","0.0-143.0","85D472BDF69843449CB3A4A3B220E324","019cf4a2-6ee9-7d7a-a565-66a543c83a53","019cf498-06e0-702e-b525-9cde1ad77653","","null","
                <div class=""stimulus-container"">
                    <img src=""images/causal_sequence/saving_a_cat_causal/saving_a_cat_causal_1.png"" class=""exp-image"">
                    <div class=""question-area""></div> 
                </div>","null","","","","","","","","",""
"","","","","","html-button-response","144","435180","0.0-144.0","85D472BDF69843449CB3A4A3B220E324","019cf4a2-6ee9-7d7a-a565-66a543c83a53","019cf498-06e0-702e-b525-9cde1ad77653","","423","
                <div class=""stimulus-container"">
                    <img src=""images/causal_sequence/saving_a_cat_causal/saving_a_cat_causal_1.png"" class=""exp-image"">
                    <div class=""question-area"">
                        <p style=""font-size: 20px; font-weight: bold; margin: 0;"">Is there a person in this image?</p>
                    </div>
                </div>","0","main_experiment_trial","1","saving_a_cat_causal","causal_sequence","","","","",""
"","","","","","html-keyboard-response","145","440188","0.0-145.0","85D472BDF69843449CB3A4A3B220E324","019cf4a2-6ee9-7d7a-a565-66a543c83a53","019cf498-06e0-702e-b525-9cde1ad77653","","null","
                <div class=""stimulus-container"">
                    <img src=""images/causal_sequence/saving_a_cat_causal/saving_a_cat_causal_2.png"" class=""exp-image"">
                    <div class=""question-area""></div> 
                </div>","null","","","","","","","","",""
"","","","","","html-button-response","146","440764","0.0-146.0","85D472BDF69843449CB3A4A3B220E324","019cf4a2-6ee9-7d7a-a565-66a543c83a53","019cf498-06e0-702e-b525-9cde1ad77653","","575","
                <div class=""stimulus-container"">
                    <img src=""images/causal_sequence/saving_a_cat_causal/saving_a_cat_causal_2.png"" class=""exp-image"">
                    <div class=""question-area"">
                        <p style=""font-size: 20px; font-weight: bold; margin: 0;"">Is there a person in this image?</p>
                    </div>
                </div>","1","main_experiment_trial","2","saving_a_cat_causal","causal_sequence","","","","",""
"","","","","","html-keyboard-response","147","445766","0.0-147.0","85D472BDF69843449CB3A4A3B220E324","019cf4a2-6ee9-7d7a-a565-66a543c83a53","019cf498-06e0-702e-b525-9cde1ad77653","","null","
                <div class=""stimulus-container"">
                    <img src=""images/causal_sequence/saving_a_cat_causal/saving_a_cat_causal_3.png"" class=""exp-image"">
                    <div class=""question-area""></div> 
                </div>","null","","","","","","","","",""
"","","","","","html-button-response","148","446229","0.0-148.0","85D472BDF69843449CB3A4A3B220E324","019cf4a2-6ee9-7d7a-a565-66a543c83a53","019cf498-06e0-702e-b525-9cde1ad77653","","463","
                <div class=""stimulus-container"">
                    <img src=""images/causal_sequence/saving_a_cat_causal/saving_a_cat_causal_3.png"" class=""exp-image"">
                    <div class=""question-area"">
                        <p style=""font-size: 20px; font-weight: bold; margin: 0;"">Is there a person in this image?</p>
                    </div>
                </div>","0","main_experiment_trial","3","saving_a_cat_causal","causal_sequence","","","","",""
"","","","","","html-keyboard-response","149","451238","0.0-149.0","85D472BDF69843449CB3A4A3B220E324","019cf4a2-6ee9-7d7a-a565-66a543c83a53","019cf498-06e0-702e-b525-9cde1ad77653","","null","
                <div class=""stimulus-container"">
                    <img src=""images/causal_sequence/saving_a_cat_causal/saving_a_cat_causal_4.png"" class=""exp-image"">
                    <div class=""question-area""></div> 
                </div>","null","","","","","","","","",""
"","","","","","html-button-response","150","451673","0.0-150.0","85D472BDF69843449CB3A4A3B220E324","019cf4a2-6ee9-7d7a-a565-66a543c83a53","019cf498-06e0-702e-b525-9cde1ad77653","","435","
                <div class=""stimulus-container"">
                    <img src=""images/causal_sequence/saving_a_cat_causal/saving_a_cat_causal_4.png"" class=""exp-image"">
                    <div class=""question-area"">
                        <p style=""font-size: 20px; font-weight: bold; margin: 0;"">Is there a person in this image?</p>
                    </div>
                </div>","0","main_experiment_trial","4","saving_a_cat_causal","causal_sequence","","","","",""
"","","","","","html-keyboard-response","151","456678","0.0-151.0","85D472BDF69843449CB3A4A3B220E324","019cf4a2-6ee9-7d7a-a565-66a543c83a53","019cf498-06e0-702e-b525-9cde1ad77653","","null","
                <div class=""stimulus-container"">
                    <img src=""images/causal_sequence/saving_a_cat_causal/saving_a_cat_causal_5.png"" class=""exp-image"">
                    <div class=""question-area""></div> 
                </div>","null","","","","","","","","",""
"","","","","","html-button-response","152","458053","0.0-152.0","85D472BDF69843449CB3A4A3B220E324","019cf4a2-6ee9-7d7a-a565-66a543c83a53","019cf498-06e0-702e-b525-9cde1ad77653","","1374","
                <div class=""stimulus-container"">
                    <img src=""images/causal_sequence/saving_a_cat_causal/saving_a_cat_causal_5.png"" class=""exp-image"">
                    <div class=""question-area"">
                        <p style=""font-size: 20px; font-weight: bold; margin: 0;"">Is there a person in this image?</p>
                    </div>
                </div>","0","main_experiment_trial","5","saving_a_cat_causal","causal_sequence","","","","",""
"","","","","","html-keyboard-response","153","463065","0.0-153.0","85D472BDF69843449CB3A4A3B220E324","019cf4a2-6ee9-7d7a-a565-66a543c83a53","019cf498-06e0-702e-b525-9cde1ad77653","","null","
                <div class=""stimulus-container"">
                    <img src=""images/causal_sequence/saving_a_cat_causal/saving_a_cat_causal_6.png"" class=""exp-image"">
                    <div class=""question-area""></div> 
                </div>","null","","","","","","","","",""
"","","","","","html-button-response","154","463654","0.0-154.0","85D472BDF69843449CB3A4A3B220E324","019cf4a2-6ee9-7d7a-a565-66a543c83a53","019cf498-06e0-702e-b525-9cde1ad77653","","589","
                <div class=""stimulus-container"">
                    <img src=""images/causal_sequence/saving_a_cat_causal/saving_a_cat_causal_6.png"" class=""exp-image"">
                    <div class=""question-area"">
                        <p style=""font-size: 20px; font-weight: bold; margin: 0;"">Is there a person in this image?</p>
                    </div>
                </div>","0","main_experiment_trial","6","saving_a_cat_causal","causal_sequence","","","","",""
"","","","","","html-keyboard-response","155","468664","0.0-155.0","85D472BDF69843449CB3A4A3B220E324","019cf4a2-6ee9-7d7a-a565-66a543c83a53","019cf498-06e0-702e-b525-9cde1ad77653","","null","
                <div class=""stimulus-container"">
                    <img src=""images/causal_sequence/saving_a_cat_causal/saving_a_cat_causal_7.png"" class=""exp-image"">
                    <div class=""question-area""></div> 
                </div>","null","","","","","","","","",""
"","","","","","html-button-response","156","469845","0.0-156.0","85D472BDF69843449CB3A4A3B220E324","019cf4a2-6ee9-7d7a-a565-66a543c83a53","019cf498-06e0-702e-b525-9cde1ad77653","","1180","
                <div class=""stimulus-container"">
                    <img src=""images/causal_sequence/saving_a_cat_causal/saving_a_cat_causal_7.png"" class=""exp-image"">
                    <div class=""question-area"">
                        <p style=""font-size: 20px; font-weight: bold; margin: 0;"">Is there a person in this image?</p>
                    </div>
                </div>","0","main_experiment_trial","7","saving_a_cat_causal","causal_sequence","","","","",""
"","","","","","html-keyboard-response","157","474853","0.0-157.0","85D472BDF69843449CB3A4A3B220E324","019cf4a2-6ee9-7d7a-a565-66a543c83a53","019cf498-06e0-702e-b525-9cde1ad77653","","null","
                <div class=""stimulus-container"">
                    <img src=""images/causal_sequence/saving_a_cat_causal/saving_a_cat_causal_8.png"" class=""exp-image"">
                    <div class=""question-area""></div> 
                </div>","null","","","","","","","","",""
"","","","","","html-button-response","158","475869","0.0-158.0","85D472BDF69843449CB3A4A3B220E324","019cf4a2-6ee9-7d7a-a565-66a543c83a53","019cf498-06e0-702e-b525-9cde1ad77653","","1016","
                <div class=""stimulus-container"">
                    <img src=""images/causal_sequence/saving_a_cat_causal/saving_a_cat_causal_8.png"" class=""exp-image"">
                    <div class=""question-area"">
                        <p style=""font-size: 20px; font-weight: bold; margin: 0;"">Is there a person in this image?</p>
                    </div>
                </div>","0","main_experiment_trial","8","saving_a_cat_causal","causal_sequence","","","","",""
"","","","","","html-keyboard-response","159","480885","0.0-159.0","85D472BDF69843449CB3A4A3B220E324","019cf4a2-6ee9-7d7a-a565-66a543c83a53","019cf498-06e0-702e-b525-9cde1ad77653","","null","
                <div class=""stimulus-container"">
                    <img src=""images/causal_sequence/saving_a_cat_causal/saving_a_cat_causal_9.png"" class=""exp-image"">
                    <div class=""question-area""></div> 
                </div>","null","","","","","","","","",""
"","","","","","html-button-response","160","481387","0.0-160.0","85D472BDF69843449CB3A4A3B220E324","019cf4a2-6ee9-7d7a-a565-66a543c83a53","019cf498-06e0-702e-b525-9cde1ad77653","","501","
                <div class=""stimulus-container"">
                    <img src=""images/causal_sequence/saving_a_cat_causal/saving_a_cat_causal_9.png"" class=""exp-image"">
                    <div class=""question-area"">
                        <p style=""font-size: 20px; font-weight: bold; margin: 0;"">Is there a person in this image?</p>
                    </div>
                </div>","0","main_experiment_trial","9","saving_a_cat_causal","causal_sequence","","","","",""
"","","","","","html-keyboard-response","161","486392","0.0-161.0","85D472BDF69843449CB3A4A3B220E324","019cf4a2-6ee9-7d7a-a565-66a543c83a53","019cf498-06e0-702e-b525-9cde1ad77653","","null","
                <div class=""stimulus-container"">
                    <img src=""images/causal_sequence/saving_a_cat_causal/saving_a_cat_causal_ten.png"" class=""exp-image"">
                    <div class=""question-area""></div> 
                </div>","null","","","","","","","","",""
"","","","","","html-button-response","162","486815","0.0-162.0","85D472BDF69843449CB3A4A3B220E324","019cf4a2-6ee9-7d7a-a565-66a543c83a53","019cf498-06e0-702e-b525-9cde1ad77653","","422","
                <div class=""stimulus-container"">
                    <img src=""images/causal_sequence/saving_a_cat_causal/saving_a_cat_causal_ten.png"" class=""exp-image"">
                    <div class=""question-area"">
                        <p style=""font-size: 20px; font-weight: bold; margin: 0;"">Is there a person in this image?</p>
                    </div>
                </div>","0","main_experiment_trial","ten","saving_a_cat_causal","causal_sequence","","","","",""
"","","","","","html-keyboard-response","163","487822","0.0-163.0","85D472BDF69843449CB3A4A3B220E324","019cf4a2-6ee9-7d7a-a565-66a543c83a53","019cf498-06e0-702e-b525-9cde1ad77653","","null","<div style=""background-color: white; width: 100vw; height: 100vh;""></div>","null","","","","","","","","",""
"","","","","","html-keyboard-response","164","492824","0.0-164.0","85D472BDF69843449CB3A4A3B220E324","019cf4a2-6ee9-7d7a-a565-66a543c83a53","019cf498-06e0-702e-b525-9cde1ad77653","","null","
                <div class=""stimulus-container"">
                    <img src=""images/schematic_sequence/restaurant_scheme/restaurant_scheme_1.png"" class=""exp-image"">
                    <div class=""question-area""></div> 
                </div>","null","","","","","","","","",""
"","","","","","html-button-response","165","493197","0.0-165.0","85D472BDF69843449CB3A4A3B220E324","019cf4a2-6ee9-7d7a-a565-66a543c83a53","019cf498-06e0-702e-b525-9cde1ad77653","","373","
                <div class=""stimulus-container"">
                    <img src=""images/schematic_sequence/restaurant_scheme/restaurant_scheme_1.png"" class=""exp-image"">
                    <div class=""question-area"">
                        <p style=""font-size: 20px; font-weight: bold; margin: 0;"">Is there a person in this image?</p>
                    </div>
                </div>","0","main_experiment_trial","1","restaurant_scheme","schematic_sequence","","","","",""
"","","","","","html-keyboard-response","166","498210","0.0-166.0","85D472BDF69843449CB3A4A3B220E324","019cf4a2-6ee9-7d7a-a565-66a543c83a53","019cf498-06e0-702e-b525-9cde1ad77653","","null","
                <div class=""stimulus-container"">
                    <img src=""images/schematic_sequence/restaurant_scheme/restaurant_scheme_2.png"" class=""exp-image"">
                    <div class=""question-area""></div> 
                </div>","null","","","","","","","","",""
"","","","","","html-button-response","167","498583","0.0-167.0","85D472BDF69843449CB3A4A3B220E324","019cf4a2-6ee9-7d7a-a565-66a543c83a53","019cf498-06e0-702e-b525-9cde1ad77653","","373","
                <div class=""stimulus-container"">
                    <img src=""images/schematic_sequence/restaurant_scheme/restaurant_scheme_2.png"" class=""exp-image"">
                    <div class=""question-area"">
                        <p style=""font-size: 20px; font-weight: bold; margin: 0;"">Is there a person in this image?</p>
                    </div>
                </div>","1","main_experiment_trial","2","restaurant_scheme","schematic_sequence","","","","",""
"","","","","","html-keyboard-response","168","503592","0.0-168.0","85D472BDF69843449CB3A4A3B220E324","019cf4a2-6ee9-7d7a-a565-66a543c83a53","019cf498-06e0-702e-b525-9cde1ad77653","","null","
                <div class=""stimulus-container"">
                    <img src=""images/schematic_sequence/restaurant_scheme/restaurant_scheme_3.png"" class=""exp-image"">
                    <div class=""question-area""></div> 
                </div>","null","","","","","","","","",""
"","","","","","html-button-response","169","504102","0.0-169.0","85D472BDF69843449CB3A4A3B220E324","019cf4a2-6ee9-7d7a-a565-66a543c83a53","019cf498-06e0-702e-b525-9cde1ad77653","","509","
                <div class=""stimulus-container"">
                    <img src=""images/schematic_sequence/restaurant_scheme/restaurant_scheme_3.png"" class=""exp-image"">
                    <div class=""question-area"">
                        <p style=""font-size: 20px; font-weight: bold; margin: 0;"">Is there a person in this image?</p>
                    </div>
                </div>","1","main_experiment_trial","3","restaurant_scheme","schematic_sequence","","","","",""
"","","","","","html-keyboard-response","170","509110","0.0-170.0","85D472BDF69843449CB3A4A3B220E324","019cf4a2-6ee9-7d7a-a565-66a543c83a53","019cf498-06e0-702e-b525-9cde1ad77653","","null","
                <div class=""stimulus-container"">
                    <img src=""images/schematic_sequence/restaurant_scheme/restaurant_scheme_4.png"" class=""exp-image"">
                    <div class=""question-area""></div> 
                </div>","null","","","","","","","","",""
"","","","","","html-button-response","171","509535","0.0-171.0","85D472BDF69843449CB3A4A3B220E324","019cf4a2-6ee9-7d7a-a565-66a543c83a53","019cf498-06e0-702e-b525-9cde1ad77653","","425","
                <div class=""stimulus-container"">
                    <img src=""images/schematic_sequence/restaurant_scheme/restaurant_scheme_4.png"" class=""exp-image"">
                    <div class=""question-area"">
                        <p style=""font-size: 20px; font-weight: bold; margin: 0;"">Is there a person in this image?</p>
                    </div>
                </div>","0","main_experiment_trial","4","restaurant_scheme","schematic_sequence","","","","",""
"","","","","","html-keyboard-response","172","514547","0.0-172.0","85D472BDF69843449CB3A4A3B220E324","019cf4a2-6ee9-7d7a-a565-66a543c83a53","019cf498-06e0-702e-b525-9cde1ad77653","","null","
                <div class=""stimulus-container"">
                    <img src=""images/schematic_sequence/restaurant_scheme/restaurant_scheme_5.png"" class=""exp-image"">
                    <div class=""question-area""></div> 
                </div>","null","","","","","","","","",""
"","","","","","html-button-response","173","514907","0.0-173.0","85D472BDF69843449CB3A4A3B220E324","019cf4a2-6ee9-7d7a-a565-66a543c83a53","019cf498-06e0-702e-b525-9cde1ad77653","","359","
                <div class=""stimulus-container"">
                    <img src=""images/schematic_sequence/restaurant_scheme/restaurant_scheme_5.png"" class=""exp-image"">
                    <div class=""question-area"">
                        <p style=""font-size: 20px; font-weight: bold; margin: 0;"">Is there a person in this image?</p>
                    </div>
                </div>","0","main_experiment_trial","5","restaurant_scheme","schematic_sequence","","","","",""
"","","","","","html-keyboard-response","174","519915","0.0-174.0","85D472BDF69843449CB3A4A3B220E324","019cf4a2-6ee9-7d7a-a565-66a543c83a53","019cf498-06e0-702e-b525-9cde1ad77653","","null","
                <div class=""stimulus-container"">
                    <img src=""images/schematic_sequence/restaurant_scheme/restaurant_scheme_6.png"" class=""exp-image"">
                    <div class=""question-area""></div> 
                </div>","null","","","","","","","","",""
"","","","","","html-button-response","175","520327","0.0-175.0","85D472BDF69843449CB3A4A3B220E324","019cf4a2-6ee9-7d7a-a565-66a543c83a53","019cf498-06e0-702e-b525-9cde1ad77653","","412","
                <div class=""stimulus-container"">
                    <img src=""images/schematic_sequence/restaurant_scheme/restaurant_scheme_6.png"" class=""exp-image"">
                    <div class=""question-area"">
                        <p style=""font-size: 20px; font-weight: bold; margin: 0;"">Is there a person in this image?</p>
                    </div>
                </div>","1","main_experiment_trial","6","restaurant_scheme","schematic_sequence","","","","",""
"","","","","","html-keyboard-response","176","525340","0.0-176.0","85D472BDF69843449CB3A4A3B220E324","019cf4a2-6ee9-7d7a-a565-66a543c83a53","019cf498-06e0-702e-b525-9cde1ad77653","","null","
                <div class=""stimulus-container"">
                    <img src=""images/schematic_sequence/restaurant_scheme/restaurant_scheme_7.png"" class=""exp-image"">
                    <div class=""question-area""></div> 
                </div>","null","","","","","","","","",""
"","","","","","html-button-response","177","525879","0.0-177.0","85D472BDF69843449CB3A4A3B220E324","019cf4a2-6ee9-7d7a-a565-66a543c83a53","019cf498-06e0-702e-b525-9cde1ad77653","","539","
                <div class=""stimulus-container"">
                    <img src=""images/schematic_sequence/restaurant_scheme/restaurant_scheme_7.png"" class=""exp-image"">
                    <div class=""question-area"">
                        <p style=""font-size: 20px; font-weight: bold; margin: 0;"">Is there a person in this image?</p>
                    </div>
                </div>","1","main_experiment_trial","7","restaurant_scheme","schematic_sequence","","","","",""
"","","","","","html-keyboard-response","178","530884","0.0-178.0","85D472BDF69843449CB3A4A3B220E324","019cf4a2-6ee9-7d7a-a565-66a543c83a53","019cf498-06e0-702e-b525-9cde1ad77653","","null","
                <div class=""stimulus-container"">
                    <img src=""images/schematic_sequence/restaurant_scheme/restaurant_scheme_8.png"" class=""exp-image"">
                    <div class=""question-area""></div> 
                </div>","null","","","","","","","","",""
"","","","","","html-button-response","179","531237","0.0-179.0","85D472BDF69843449CB3A4A3B220E324","019cf4a2-6ee9-7d7a-a565-66a543c83a53","019cf498-06e0-702e-b525-9cde1ad77653","","353","
                <div class=""stimulus-container"">
                    <img src=""images/schematic_sequence/restaurant_scheme/restaurant_scheme_8.png"" class=""exp-image"">
                    <div class=""question-area"">
                        <p style=""font-size: 20px; font-weight: bold; margin: 0;"">Is there a person in this image?</p>
                    </div>
                </div>","1","main_experiment_trial","8","restaurant_scheme","schematic_sequence","","","","",""
"","","","","","html-keyboard-response","180","536253","0.0-180.0","85D472BDF69843449CB3A4A3B220E324","019cf4a2-6ee9-7d7a-a565-66a543c83a53","019cf498-06e0-702e-b525-9cde1ad77653","","null","
                <div class=""stimulus-container"">
                    <img src=""images/schematic_sequence/restaurant_scheme/restaurant_scheme_9.png"" class=""exp-image"">
                    <div class=""question-area""></div> 
                </div>","null","","","","","","","","",""
"","","","","","html-button-response","181","536603","0.0-181.0","85D472BDF69843449CB3A4A3B220E324","019cf4a2-6ee9-7d7a-a565-66a543c83a53","019cf498-06e0-702e-b525-9cde1ad77653","","349","
                <div class=""stimulus-container"">
                    <img src=""images/schematic_sequence/restaurant_scheme/restaurant_scheme_9.png"" class=""exp-image"">
                    <div class=""question-area"">
                        <p style=""font-size: 20px; font-weight: bold; margin: 0;"">Is there a person in this image?</p>
                    </div>
                </div>","0","main_experiment_trial","9","restaurant_scheme","schematic_sequence","","","","",""
"","","","","","html-keyboard-response","182","541608","0.0-182.0","85D472BDF69843449CB3A4A3B220E324","019cf4a2-6ee9-7d7a-a565-66a543c83a53","019cf498-06e0-702e-b525-9cde1ad77653","","null","
                <div class=""stimulus-container"">
                    <img src=""images/schematic_sequence/restaurant_scheme/restaurant_scheme_ten.png"" class=""exp-image"">
                    <div class=""question-area""></div> 
                </div>","null","","","","","","","","",""
"","","","","","html-button-response","183","542238","0.0-183.0","85D472BDF69843449CB3A4A3B220E324","019cf4a2-6ee9-7d7a-a565-66a543c83a53","019cf498-06e0-702e-b525-9cde1ad77653","","630","
                <div class=""stimulus-container"">
                    <img src=""images/schematic_sequence/restaurant_scheme/restaurant_scheme_ten.png"" class=""exp-image"">
                    <div class=""question-area"">
                        <p style=""font-size: 20px; font-weight: bold; margin: 0;"">Is there a person in this image?</p>
                    </div>
                </div>","0","main_experiment_trial","ten","restaurant_scheme","schematic_sequence","","","","",""
