"success","timeout","failed_images","failed_audio","failed_video","trial_type","trial_index","time_elapsed","internal_node_id","subject_id","study_id","session_id","view_history","rt","stimulus","response","task","image_index","folder","sequence_type","presentation_order","valuable_image_index","reward_type","correct_choice","distance_from_x","target_X","chosen_image_index","is_x_plus_dist"
"true","false","[]","[]","[]","preload","0","4175","0.0-0.0","621D0B67BBB041CFB69F8FEF77B3C67A","019cfa7f-7a4e-734f-bcf0-0356ca283fb5","019cfa3a-388e-72ab-ad58-bdeb258f96cd","","","","","","","","","","","","","","","",""
"","","","","","instructions","1","57423","0.0-1.0","621D0B67BBB041CFB69F8FEF77B3C67A","019cfa7f-7a4e-734f-bcf0-0356ca283fb5","019cfa3a-388e-72ab-ad58-bdeb258f96cd","[{""page_index"":0,""viewing_time"":53246}]","53247","","","","","","","","","","","","","",""
"","","","","","instructions","2","176614","0.0-2.0","621D0B67BBB041CFB69F8FEF77B3C67A","019cfa7f-7a4e-734f-bcf0-0356ca283fb5","019cfa3a-388e-72ab-ad58-bdeb258f96cd","[{""page_index"":0,""viewing_time"":119189}]","119190","","","","","","","","","","","","","",""
"true","","","","","fullscreen","3","182846","0.0-3.0","621D0B67BBB041CFB69F8FEF77B3C67A","019cfa7f-7a4e-734f-bcf0-0356ca283fb5","019cfa3a-388e-72ab-ad58-bdeb258f96cd","","5227","","","","","","","","","","","","","",""
"","","","","","instructions","4","198896","0.0-4.0","621D0B67BBB041CFB69F8FEF77B3C67A","019cfa7f-7a4e-734f-bcf0-0356ca283fb5","019cfa3a-388e-72ab-ad58-bdeb258f96cd","[{""page_index"":0,""viewing_time"":16048}]","16049","","","","","","","","","","","","","",""
"","","","","","instructions","5","211045","0.0-5.0","621D0B67BBB041CFB69F8FEF77B3C67A","019cfa7f-7a4e-734f-bcf0-0356ca283fb5","019cfa3a-388e-72ab-ad58-bdeb258f96cd","[{""page_index"":0,""viewing_time"":12148}]","12149","","","","","","","","","","","","","",""
"","","","","","html-keyboard-response","6","215049","0.0-6.0","621D0B67BBB041CFB69F8FEF77B3C67A","019cfa7f-7a4e-734f-bcf0-0356ca283fb5","019cfa3a-388e-72ab-ad58-bdeb258f96cd","","null","
                <div class=""stimulus-container"">
                    <img src=""images/instructions/movie_1.png"" class=""exp-image"">
                    <div class=""question-area""></div> 
                </div>","null","","","","","","","","","","","",""
"","","","","","html-button-response","7","217371","0.0-7.0","621D0B67BBB041CFB69F8FEF77B3C67A","019cfa7f-7a4e-734f-bcf0-0356ca283fb5","019cfa3a-388e-72ab-ad58-bdeb258f96cd","","2318","
                <div class=""stimulus-container"">
                    <img src=""images/instructions/movie_1.png"" class=""exp-image"">
                    <div class=""question-area"">
                        <p style=""font-size: 20px; font-weight: bold; margin: 0;"">Was there a person in this image?</p>
                    </div>
                </div>","0","example_question","1","","","","","","","","","",""
"","","","","","html-keyboard-response","8","221374","0.0-8.0","621D0B67BBB041CFB69F8FEF77B3C67A","019cfa7f-7a4e-734f-bcf0-0356ca283fb5","019cfa3a-388e-72ab-ad58-bdeb258f96cd","","null","
                <div class=""stimulus-container"">
                    <img src=""images/instructions/movie_2.png"" class=""exp-image"">
                    <div class=""question-area""></div> 
                </div>","null","","","","","","","","","","","",""
"","","","","","html-button-response","9","223020","0.0-9.0","621D0B67BBB041CFB69F8FEF77B3C67A","019cfa7f-7a4e-734f-bcf0-0356ca283fb5","019cfa3a-388e-72ab-ad58-bdeb258f96cd","","1643","
                <div class=""stimulus-container"">
                    <img src=""images/instructions/movie_2.png"" class=""exp-image"">
                    <div class=""question-area"">
                        <p style=""font-size: 20px; font-weight: bold; margin: 0;"">Was there a person in this image?</p>
                    </div>
                </div>","0","example_question","2","","","","","","","","","",""
"","","","","","html-keyboard-response","10","227023","0.0-10.0","621D0B67BBB041CFB69F8FEF77B3C67A","019cfa7f-7a4e-734f-bcf0-0356ca283fb5","019cfa3a-388e-72ab-ad58-bdeb258f96cd","","null","
                <div class=""stimulus-container"">
                    <img src=""images/instructions/movie_3.png"" class=""exp-image"">
                    <div class=""question-area""></div> 
                </div>","null","","","","","","","","","","","",""
"","","","","","html-button-response","11","229587","0.0-11.0","621D0B67BBB041CFB69F8FEF77B3C67A","019cfa7f-7a4e-734f-bcf0-0356ca283fb5","019cfa3a-388e-72ab-ad58-bdeb258f96cd","","2562","
                <div class=""stimulus-container"">
                    <img src=""images/instructions/movie_3.png"" class=""exp-image"">
                    <div class=""question-area"">
                        <p style=""font-size: 20px; font-weight: bold; margin: 0;"">Was there a person in this image?</p>
                    </div>
                </div>","0","example_question","3","","","","","","","","","",""
"","","","","","html-keyboard-response","12","233590","0.0-12.0","621D0B67BBB041CFB69F8FEF77B3C67A","019cfa7f-7a4e-734f-bcf0-0356ca283fb5","019cfa3a-388e-72ab-ad58-bdeb258f96cd","","null","
                <div class=""stimulus-container"">
                    <img src=""images/instructions/movie_4.png"" class=""exp-image"">
                    <div class=""question-area""></div> 
                </div>","null","","","","","","","","","","","",""
"","","","","","html-button-response","13","235619","0.0-13.0","621D0B67BBB041CFB69F8FEF77B3C67A","019cfa7f-7a4e-734f-bcf0-0356ca283fb5","019cfa3a-388e-72ab-ad58-bdeb258f96cd","","2026","
                <div class=""stimulus-container"">
                    <img src=""images/instructions/movie_4.png"" class=""exp-image"">
                    <div class=""question-area"">
                        <p style=""font-size: 20px; font-weight: bold; margin: 0;"">Was there a person in this image?</p>
                    </div>
                </div>","0","example_question","4","","","","","","","","","",""
"","","","","","instructions","14","243059","0.0-14.0","621D0B67BBB041CFB69F8FEF77B3C67A","019cfa7f-7a4e-734f-bcf0-0356ca283fb5","019cfa3a-388e-72ab-ad58-bdeb258f96cd","[{""page_index"":0,""viewing_time"":7438}]","7439","","","","","","","","","","","","","",""
"","","","","","instructions","15","264380","0.0-15.0","621D0B67BBB041CFB69F8FEF77B3C67A","019cfa7f-7a4e-734f-bcf0-0356ca283fb5","019cfa3a-388e-72ab-ad58-bdeb258f96cd","[{""page_index"":0,""viewing_time"":21318}]","21319","","","","","","","","","","","","","",""
"","","","","","html-keyboard-response","16","269382","0.0-16.0","621D0B67BBB041CFB69F8FEF77B3C67A","019cfa7f-7a4e-734f-bcf0-0356ca283fb5","019cfa3a-388e-72ab-ad58-bdeb258f96cd","","null","<div style=""background-color: white; width: 100vw; height: 100vh;""></div>","null","","","","","","","","","","","",""
"","","","","","html-keyboard-response","17","270385","0.0-17.0","621D0B67BBB041CFB69F8FEF77B3C67A","019cfa7f-7a4e-734f-bcf0-0356ca283fb5","019cfa3a-388e-72ab-ad58-bdeb258f96cd","","null","
                <div class=""stimulus-container"">
                    <img src=""images/causal_sequence/coin_causal/coin_causal_1.png"" class=""exp-image"">
                    <div class=""question-area""></div> 
                </div>","null","","","","","","","","","","","",""
"","","","","","html-button-response","18","273388","0.0-18.0","621D0B67BBB041CFB69F8FEF77B3C67A","019cfa7f-7a4e-734f-bcf0-0356ca283fb5","019cfa3a-388e-72ab-ad58-bdeb258f96cd","","null","
                <div class=""stimulus-container"">
                    <img src=""images/causal_sequence/coin_causal/coin_causal_1.png"" class=""exp-image"">
                    <div class=""question-area"">
                        <p style=""font-size: 20px; font-weight: bold; margin: 0;"">Is there a person in this image?</p>
                    </div>
                </div>","null","main_experiment_trial","1","coin_causal","causal_sequence","chronological","","","","","","",""
"","","","","","html-keyboard-response","19","274391","0.0-19.0","621D0B67BBB041CFB69F8FEF77B3C67A","019cfa7f-7a4e-734f-bcf0-0356ca283fb5","019cfa3a-388e-72ab-ad58-bdeb258f96cd","","null","
                <div class=""stimulus-container"">
                    <img src=""images/causal_sequence/coin_causal/coin_causal_2.png"" class=""exp-image"">
                    <div class=""question-area""></div> 
                </div>","null","","","","","","","","","","","",""
"","","","","","html-button-response","20","276344","0.0-20.0","621D0B67BBB041CFB69F8FEF77B3C67A","019cfa7f-7a4e-734f-bcf0-0356ca283fb5","019cfa3a-388e-72ab-ad58-bdeb258f96cd","","1950","
                <div class=""stimulus-container"">
                    <img src=""images/causal_sequence/coin_causal/coin_causal_2.png"" class=""exp-image"">
                    <div class=""question-area"">
                        <p style=""font-size: 20px; font-weight: bold; margin: 0;"">Is there a person in this image?</p>
                    </div>
                </div>","0","main_experiment_trial","2","coin_causal","causal_sequence","chronological","","","","","","",""
"","","","","","html-keyboard-response","21","277346","0.0-21.0","621D0B67BBB041CFB69F8FEF77B3C67A","019cfa7f-7a4e-734f-bcf0-0356ca283fb5","019cfa3a-388e-72ab-ad58-bdeb258f96cd","","null","
                <div class=""stimulus-container"">
                    <img src=""images/causal_sequence/coin_causal/coin_causal_3.png"" class=""exp-image"">
                    <div class=""question-area""></div> 
                </div>","null","","","","","","","","","","","",""
"","","","","","html-button-response","22","279827","0.0-22.0","621D0B67BBB041CFB69F8FEF77B3C67A","019cfa7f-7a4e-734f-bcf0-0356ca283fb5","019cfa3a-388e-72ab-ad58-bdeb258f96cd","","2479","
                <div class=""stimulus-container"">
                    <img src=""images/causal_sequence/coin_causal/coin_causal_3.png"" class=""exp-image"">
                    <div class=""question-area"">
                        <p style=""font-size: 20px; font-weight: bold; margin: 0;"">Is there a person in this image?</p>
                    </div>
                </div>","0","main_experiment_trial","3","coin_causal","causal_sequence","chronological","","","","","","",""
"","","","","","html-keyboard-response","23","280830","0.0-23.0","621D0B67BBB041CFB69F8FEF77B3C67A","019cfa7f-7a4e-734f-bcf0-0356ca283fb5","019cfa3a-388e-72ab-ad58-bdeb258f96cd","","null","
                <div class=""stimulus-container"">
                    <img src=""images/causal_sequence/coin_causal/coin_causal_4.png"" class=""exp-image"">
                    <div class=""question-area""></div> 
                </div>","null","","","","","","","","","","","",""
"","","","","","html-button-response","24","282698","0.0-24.0","621D0B67BBB041CFB69F8FEF77B3C67A","019cfa7f-7a4e-734f-bcf0-0356ca283fb5","019cfa3a-388e-72ab-ad58-bdeb258f96cd","","1865","
                <div class=""stimulus-container"">
                    <img src=""images/causal_sequence/coin_causal/coin_causal_4.png"" class=""exp-image"">
                    <div class=""question-area"">
                        <p style=""font-size: 20px; font-weight: bold; margin: 0;"">Is there a person in this image?</p>
                    </div>
                </div>","0","main_experiment_trial","4","coin_causal","causal_sequence","chronological","","","","","","",""
"","","","","","html-keyboard-response","25","283700","0.0-25.0","621D0B67BBB041CFB69F8FEF77B3C67A","019cfa7f-7a4e-734f-bcf0-0356ca283fb5","019cfa3a-388e-72ab-ad58-bdeb258f96cd","","null","
                <div class=""stimulus-container"">
                    <img src=""images/causal_sequence/coin_causal/coin_causal_5.png"" class=""exp-image"">
                    <div class=""question-area""></div> 
                </div>","null","","","","","","","","","","","",""
"","","","","","html-button-response","26","285230","0.0-26.0","621D0B67BBB041CFB69F8FEF77B3C67A","019cfa7f-7a4e-734f-bcf0-0356ca283fb5","019cfa3a-388e-72ab-ad58-bdeb258f96cd","","1527","
                <div class=""stimulus-container"">
                    <img src=""images/causal_sequence/coin_causal/coin_causal_5.png"" class=""exp-image"">
                    <div class=""question-area"">
                        <p style=""font-size: 20px; font-weight: bold; margin: 0;"">Is there a person in this image?</p>
                    </div>
                </div>","0","main_experiment_trial","5","coin_causal","causal_sequence","chronological","","","","","","",""
"","","","","","html-keyboard-response","27","286233","0.0-27.0","621D0B67BBB041CFB69F8FEF77B3C67A","019cfa7f-7a4e-734f-bcf0-0356ca283fb5","019cfa3a-388e-72ab-ad58-bdeb258f96cd","","null","
                <div class=""stimulus-container"">
                    <img src=""images/causal_sequence/coin_causal/coin_causal_6.png"" class=""exp-image"">
                    <div class=""question-area""></div> 
                </div>","null","","","","","","","","","","","",""
"","","","","","html-button-response","28","287818","0.0-28.0","621D0B67BBB041CFB69F8FEF77B3C67A","019cfa7f-7a4e-734f-bcf0-0356ca283fb5","019cfa3a-388e-72ab-ad58-bdeb258f96cd","","1583","
                <div class=""stimulus-container"">
                    <img src=""images/causal_sequence/coin_causal/coin_causal_6.png"" class=""exp-image"">
                    <div class=""question-area"">
                        <p style=""font-size: 20px; font-weight: bold; margin: 0;"">Is there a person in this image?</p>
                    </div>
                </div>","0","main_experiment_trial","6","coin_causal","causal_sequence","chronological","","","","","","",""
"","","","","","html-keyboard-response","29","288820","0.0-29.0","621D0B67BBB041CFB69F8FEF77B3C67A","019cfa7f-7a4e-734f-bcf0-0356ca283fb5","019cfa3a-388e-72ab-ad58-bdeb258f96cd","","null","
                <div class=""stimulus-container"">
                    <img src=""images/causal_sequence/coin_causal/coin_causal_7.png"" class=""exp-image"">
                    <div class=""question-area""></div> 
                </div>","null","","","","","","","","","","","",""
"","","","","","html-button-response","30","291212","0.0-30.0","621D0B67BBB041CFB69F8FEF77B3C67A","019cfa7f-7a4e-734f-bcf0-0356ca283fb5","019cfa3a-388e-72ab-ad58-bdeb258f96cd","","2389","
                <div class=""stimulus-container"">
                    <img src=""images/causal_sequence/coin_causal/coin_causal_7.png"" class=""exp-image"">
                    <div class=""question-area"">
                        <p style=""font-size: 20px; font-weight: bold; margin: 0;"">Is there a person in this image?</p>
                    </div>
                </div>","1","main_experiment_trial","7","coin_causal","causal_sequence","chronological","","","","","","",""
"","","","","","html-keyboard-response","31","292214","0.0-31.0","621D0B67BBB041CFB69F8FEF77B3C67A","019cfa7f-7a4e-734f-bcf0-0356ca283fb5","019cfa3a-388e-72ab-ad58-bdeb258f96cd","","null","
                <div class=""stimulus-container"">
                    <img src=""images/causal_sequence/coin_causal/coin_causal_8.png"" class=""exp-image"">
                    <div class=""question-area""></div> 
                </div>","null","","","","","","","","","","","",""
"","","","","","html-button-response","32","294718","0.0-32.0","621D0B67BBB041CFB69F8FEF77B3C67A","019cfa7f-7a4e-734f-bcf0-0356ca283fb5","019cfa3a-388e-72ab-ad58-bdeb258f96cd","","2500","
                <div class=""stimulus-container"">
                    <img src=""images/causal_sequence/coin_causal/coin_causal_8.png"" class=""exp-image"">
                    <div class=""question-area"">
                        <p style=""font-size: 20px; font-weight: bold; margin: 0;"">Is there a person in this image?</p>
                    </div>
                </div>","0","main_experiment_trial","8","coin_causal","causal_sequence","chronological","","","","","","",""
"","","","","","html-keyboard-response","33","295721","0.0-33.0","621D0B67BBB041CFB69F8FEF77B3C67A","019cfa7f-7a4e-734f-bcf0-0356ca283fb5","019cfa3a-388e-72ab-ad58-bdeb258f96cd","","null","
                <div class=""stimulus-container"">
                    <img src=""images/causal_sequence/coin_causal/coin_causal_9.png"" class=""exp-image"">
                    <div class=""question-area""></div> 
                </div>","null","","","","","","","","","","","",""
"","","","","","html-button-response","34","297461","0.0-34.0","621D0B67BBB041CFB69F8FEF77B3C67A","019cfa7f-7a4e-734f-bcf0-0356ca283fb5","019cfa3a-388e-72ab-ad58-bdeb258f96cd","","1738","
                <div class=""stimulus-container"">
                    <img src=""images/causal_sequence/coin_causal/coin_causal_9.png"" class=""exp-image"">
                    <div class=""question-area"">
                        <p style=""font-size: 20px; font-weight: bold; margin: 0;"">Is there a person in this image?</p>
                    </div>
                </div>","0","main_experiment_trial","9","coin_causal","causal_sequence","chronological","","","","","","",""
"","","","","","html-keyboard-response","35","298464","0.0-35.0","621D0B67BBB041CFB69F8FEF77B3C67A","019cfa7f-7a4e-734f-bcf0-0356ca283fb5","019cfa3a-388e-72ab-ad58-bdeb258f96cd","","null","
                <div class=""stimulus-container"">
                    <img src=""images/causal_sequence/coin_causal/coin_causal_ten.png"" class=""exp-image"">
                    <div class=""question-area""></div> 
                </div>","null","","","","","","","","","","","",""
"","","","","","html-button-response","36","299539","0.0-36.0","621D0B67BBB041CFB69F8FEF77B3C67A","019cfa7f-7a4e-734f-bcf0-0356ca283fb5","019cfa3a-388e-72ab-ad58-bdeb258f96cd","","1073","
                <div class=""stimulus-container"">
                    <img src=""images/causal_sequence/coin_causal/coin_causal_ten.png"" class=""exp-image"">
                    <div class=""question-area"">
                        <p style=""font-size: 20px; font-weight: bold; margin: 0;"">Is there a person in this image?</p>
                    </div>
                </div>","0","main_experiment_trial","ten","coin_causal","causal_sequence","chronological","","","","","","",""
"","","","","","html-keyboard-response","37","304542","0.0-37.0","621D0B67BBB041CFB69F8FEF77B3C67A","019cfa7f-7a4e-734f-bcf0-0356ca283fb5","019cfa3a-388e-72ab-ad58-bdeb258f96cd","","null","<div style=""background-color: white; width: 100vw; height: 100vh;""></div>","null","","","","","","","","","","","",""
"","","","","","html-keyboard-response","38","305544","0.0-38.0","621D0B67BBB041CFB69F8FEF77B3C67A","019cfa7f-7a4e-734f-bcf0-0356ca283fb5","019cfa3a-388e-72ab-ad58-bdeb258f96cd","","null","
                <div class=""stimulus-container"">
                    <img src=""images/semantic_sequence/exploring_nature_semantic/exploring_nature_semantic_1.png"" class=""exp-image"">
                    <div class=""question-area""></div> 
                </div>","null","","","","","","","","","","","",""
"","","","","","html-button-response","39","307009","0.0-39.0","621D0B67BBB041CFB69F8FEF77B3C67A","019cfa7f-7a4e-734f-bcf0-0356ca283fb5","019cfa3a-388e-72ab-ad58-bdeb258f96cd","","1463","
                <div class=""stimulus-container"">
                    <img src=""images/semantic_sequence/exploring_nature_semantic/exploring_nature_semantic_1.png"" class=""exp-image"">
                    <div class=""question-area"">
                        <p style=""font-size: 20px; font-weight: bold; margin: 0;"">Is there a person in this image?</p>
                    </div>
                </div>","0","main_experiment_trial","1","exploring_nature_semantic","semantic_sequence","chronological","","","","","","",""
"","","","","","html-keyboard-response","40","308012","0.0-40.0","621D0B67BBB041CFB69F8FEF77B3C67A","019cfa7f-7a4e-734f-bcf0-0356ca283fb5","019cfa3a-388e-72ab-ad58-bdeb258f96cd","","null","
                <div class=""stimulus-container"">
                    <img src=""images/semantic_sequence/exploring_nature_semantic/exploring_nature_semantic_2.png"" class=""exp-image"">
                    <div class=""question-area""></div> 
                </div>","null","","","","","","","","","","","",""
"","","","","","html-button-response","41","308875","0.0-41.0","621D0B67BBB041CFB69F8FEF77B3C67A","019cfa7f-7a4e-734f-bcf0-0356ca283fb5","019cfa3a-388e-72ab-ad58-bdeb258f96cd","","861","
                <div class=""stimulus-container"">
                    <img src=""images/semantic_sequence/exploring_nature_semantic/exploring_nature_semantic_2.png"" class=""exp-image"">
                    <div class=""question-area"">
                        <p style=""font-size: 20px; font-weight: bold; margin: 0;"">Is there a person in this image?</p>
                    </div>
                </div>","0","main_experiment_trial","2","exploring_nature_semantic","semantic_sequence","chronological","","","","","","",""
"","","","","","html-keyboard-response","42","309878","0.0-42.0","621D0B67BBB041CFB69F8FEF77B3C67A","019cfa7f-7a4e-734f-bcf0-0356ca283fb5","019cfa3a-388e-72ab-ad58-bdeb258f96cd","","null","
                <div class=""stimulus-container"">
                    <img src=""images/semantic_sequence/exploring_nature_semantic/exploring_nature_semantic_3.png"" class=""exp-image"">
                    <div class=""question-area""></div> 
                </div>","null","","","","","","","","","","","",""
"","","","","","html-button-response","43","310624","0.0-43.0","621D0B67BBB041CFB69F8FEF77B3C67A","019cfa7f-7a4e-734f-bcf0-0356ca283fb5","019cfa3a-388e-72ab-ad58-bdeb258f96cd","","744","
                <div class=""stimulus-container"">
                    <img src=""images/semantic_sequence/exploring_nature_semantic/exploring_nature_semantic_3.png"" class=""exp-image"">
                    <div class=""question-area"">
                        <p style=""font-size: 20px; font-weight: bold; margin: 0;"">Is there a person in this image?</p>
                    </div>
                </div>","0","main_experiment_trial","3","exploring_nature_semantic","semantic_sequence","chronological","","","","","","",""
"","","","","","html-keyboard-response","44","311627","0.0-44.0","621D0B67BBB041CFB69F8FEF77B3C67A","019cfa7f-7a4e-734f-bcf0-0356ca283fb5","019cfa3a-388e-72ab-ad58-bdeb258f96cd","","null","
                <div class=""stimulus-container"">
                    <img src=""images/semantic_sequence/exploring_nature_semantic/exploring_nature_semantic_4.png"" class=""exp-image"">
                    <div class=""question-area""></div> 
                </div>","null","","","","","","","","","","","",""
"","","","","","html-button-response","45","312415","0.0-45.0","621D0B67BBB041CFB69F8FEF77B3C67A","019cfa7f-7a4e-734f-bcf0-0356ca283fb5","019cfa3a-388e-72ab-ad58-bdeb258f96cd","","786","
                <div class=""stimulus-container"">
                    <img src=""images/semantic_sequence/exploring_nature_semantic/exploring_nature_semantic_4.png"" class=""exp-image"">
                    <div class=""question-area"">
                        <p style=""font-size: 20px; font-weight: bold; margin: 0;"">Is there a person in this image?</p>
                    </div>
                </div>","0","main_experiment_trial","4","exploring_nature_semantic","semantic_sequence","chronological","","","","","","",""
"","","","","","html-keyboard-response","46","313418","0.0-46.0","621D0B67BBB041CFB69F8FEF77B3C67A","019cfa7f-7a4e-734f-bcf0-0356ca283fb5","019cfa3a-388e-72ab-ad58-bdeb258f96cd","","null","
                <div class=""stimulus-container"">
                    <img src=""images/semantic_sequence/exploring_nature_semantic/exploring_nature_semantic_5.png"" class=""exp-image"">
                    <div class=""question-area""></div> 
                </div>","null","","","","","","","","","","","",""
"","","","","","html-button-response","47","314311","0.0-47.0","621D0B67BBB041CFB69F8FEF77B3C67A","019cfa7f-7a4e-734f-bcf0-0356ca283fb5","019cfa3a-388e-72ab-ad58-bdeb258f96cd","","891","
                <div class=""stimulus-container"">
                    <img src=""images/semantic_sequence/exploring_nature_semantic/exploring_nature_semantic_5.png"" class=""exp-image"">
                    <div class=""question-area"">
                        <p style=""font-size: 20px; font-weight: bold; margin: 0;"">Is there a person in this image?</p>
                    </div>
                </div>","0","main_experiment_trial","5","exploring_nature_semantic","semantic_sequence","chronological","","","","","","",""
"","","","","","html-keyboard-response","48","315314","0.0-48.0","621D0B67BBB041CFB69F8FEF77B3C67A","019cfa7f-7a4e-734f-bcf0-0356ca283fb5","019cfa3a-388e-72ab-ad58-bdeb258f96cd","","null","
                <div class=""stimulus-container"">
                    <img src=""images/semantic_sequence/exploring_nature_semantic/exploring_nature_semantic_6.png"" class=""exp-image"">
                    <div class=""question-area""></div> 
                </div>","null","","","","","","","","","","","",""
"","","","","","html-button-response","49","316294","0.0-49.0","621D0B67BBB041CFB69F8FEF77B3C67A","019cfa7f-7a4e-734f-bcf0-0356ca283fb5","019cfa3a-388e-72ab-ad58-bdeb258f96cd","","977","
                <div class=""stimulus-container"">
                    <img src=""images/semantic_sequence/exploring_nature_semantic/exploring_nature_semantic_6.png"" class=""exp-image"">
                    <div class=""question-area"">
                        <p style=""font-size: 20px; font-weight: bold; margin: 0;"">Is there a person in this image?</p>
                    </div>
                </div>","0","main_experiment_trial","6","exploring_nature_semantic","semantic_sequence","chronological","","","","","","",""
"","","","","","html-keyboard-response","50","317297","0.0-50.0","621D0B67BBB041CFB69F8FEF77B3C67A","019cfa7f-7a4e-734f-bcf0-0356ca283fb5","019cfa3a-388e-72ab-ad58-bdeb258f96cd","","null","
                <div class=""stimulus-container"">
                    <img src=""images/semantic_sequence/exploring_nature_semantic/exploring_nature_semantic_7.png"" class=""exp-image"">
                    <div class=""question-area""></div> 
                </div>","null","","","","","","","","","","","",""
"","","","","","html-button-response","51","318109","0.0-51.0","621D0B67BBB041CFB69F8FEF77B3C67A","019cfa7f-7a4e-734f-bcf0-0356ca283fb5","019cfa3a-388e-72ab-ad58-bdeb258f96cd","","810","
                <div class=""stimulus-container"">
                    <img src=""images/semantic_sequence/exploring_nature_semantic/exploring_nature_semantic_7.png"" class=""exp-image"">
                    <div class=""question-area"">
                        <p style=""font-size: 20px; font-weight: bold; margin: 0;"">Is there a person in this image?</p>
                    </div>
                </div>","0","main_experiment_trial","7","exploring_nature_semantic","semantic_sequence","chronological","","","","","","",""
"","","","","","html-keyboard-response","52","319112","0.0-52.0","621D0B67BBB041CFB69F8FEF77B3C67A","019cfa7f-7a4e-734f-bcf0-0356ca283fb5","019cfa3a-388e-72ab-ad58-bdeb258f96cd","","null","
                <div class=""stimulus-container"">
                    <img src=""images/semantic_sequence/exploring_nature_semantic/exploring_nature_semantic_8.png"" class=""exp-image"">
                    <div class=""question-area""></div> 
                </div>","null","","","","","","","","","","","",""
"","","","","","html-button-response","53","319869","0.0-53.0","621D0B67BBB041CFB69F8FEF77B3C67A","019cfa7f-7a4e-734f-bcf0-0356ca283fb5","019cfa3a-388e-72ab-ad58-bdeb258f96cd","","755","
                <div class=""stimulus-container"">
                    <img src=""images/semantic_sequence/exploring_nature_semantic/exploring_nature_semantic_8.png"" class=""exp-image"">
                    <div class=""question-area"">
                        <p style=""font-size: 20px; font-weight: bold; margin: 0;"">Is there a person in this image?</p>
                    </div>
                </div>","0","main_experiment_trial","8","exploring_nature_semantic","semantic_sequence","chronological","","","","","","",""
"","","","","","html-keyboard-response","54","320872","0.0-54.0","621D0B67BBB041CFB69F8FEF77B3C67A","019cfa7f-7a4e-734f-bcf0-0356ca283fb5","019cfa3a-388e-72ab-ad58-bdeb258f96cd","","null","
                <div class=""stimulus-container"">
                    <img src=""images/semantic_sequence/exploring_nature_semantic/exploring_nature_semantic_9.png"" class=""exp-image"">
                    <div class=""question-area""></div> 
                </div>","null","","","","","","","","","","","",""
"","","","","","html-button-response","55","321748","0.0-55.0","621D0B67BBB041CFB69F8FEF77B3C67A","019cfa7f-7a4e-734f-bcf0-0356ca283fb5","019cfa3a-388e-72ab-ad58-bdeb258f96cd","","873","
                <div class=""stimulus-container"">
                    <img src=""images/semantic_sequence/exploring_nature_semantic/exploring_nature_semantic_9.png"" class=""exp-image"">
                    <div class=""question-area"">
                        <p style=""font-size: 20px; font-weight: bold; margin: 0;"">Is there a person in this image?</p>
                    </div>
                </div>","0","main_experiment_trial","9","exploring_nature_semantic","semantic_sequence","chronological","","","","","","",""
"","","","","","html-keyboard-response","56","322750","0.0-56.0","621D0B67BBB041CFB69F8FEF77B3C67A","019cfa7f-7a4e-734f-bcf0-0356ca283fb5","019cfa3a-388e-72ab-ad58-bdeb258f96cd","","null","
                <div class=""stimulus-container"">
                    <img src=""images/semantic_sequence/exploring_nature_semantic/exploring_nature_semantic_ten.png"" class=""exp-image"">
                    <div class=""question-area""></div> 
                </div>","null","","","","","","","","","","","",""
"","","","","","html-button-response","57","324046","0.0-57.0","621D0B67BBB041CFB69F8FEF77B3C67A","019cfa7f-7a4e-734f-bcf0-0356ca283fb5","019cfa3a-388e-72ab-ad58-bdeb258f96cd","","1294","
                <div class=""stimulus-container"">
                    <img src=""images/semantic_sequence/exploring_nature_semantic/exploring_nature_semantic_ten.png"" class=""exp-image"">
                    <div class=""question-area"">
                        <p style=""font-size: 20px; font-weight: bold; margin: 0;"">Is there a person in this image?</p>
                    </div>
                </div>","0","main_experiment_trial","ten","exploring_nature_semantic","semantic_sequence","chronological","","","","","","",""
"","","","","","html-keyboard-response","58","329047","0.0-58.0","621D0B67BBB041CFB69F8FEF77B3C67A","019cfa7f-7a4e-734f-bcf0-0356ca283fb5","019cfa3a-388e-72ab-ad58-bdeb258f96cd","","null","<div style=""background-color: white; width: 100vw; height: 100vh;""></div>","null","","","","","","","","","","","",""
"","","","","","html-keyboard-response","59","330050","0.0-59.0","621D0B67BBB041CFB69F8FEF77B3C67A","019cfa7f-7a4e-734f-bcf0-0356ca283fb5","019cfa3a-388e-72ab-ad58-bdeb258f96cd","","null","
                <div class=""stimulus-container"">
                    <img src=""images/causal_sequence/saving_a_cat_causal/saving_a_cat_causal_1.png"" class=""exp-image"">
                    <div class=""question-area""></div> 
                </div>","null","","","","","","","","","","","",""
"","","","","","html-button-response","60","331593","0.0-60.0","621D0B67BBB041CFB69F8FEF77B3C67A","019cfa7f-7a4e-734f-bcf0-0356ca283fb5","019cfa3a-388e-72ab-ad58-bdeb258f96cd","","1541","
                <div class=""stimulus-container"">
                    <img src=""images/causal_sequence/saving_a_cat_causal/saving_a_cat_causal_1.png"" class=""exp-image"">
                    <div class=""question-area"">
                        <p style=""font-size: 20px; font-weight: bold; margin: 0;"">Is there a person in this image?</p>
                    </div>
                </div>","0","main_experiment_trial","1","saving_a_cat_causal","causal_sequence","chronological","","","","","","",""
"","","","","","html-keyboard-response","61","332596","0.0-61.0","621D0B67BBB041CFB69F8FEF77B3C67A","019cfa7f-7a4e-734f-bcf0-0356ca283fb5","019cfa3a-388e-72ab-ad58-bdeb258f96cd","","null","
                <div class=""stimulus-container"">
                    <img src=""images/causal_sequence/saving_a_cat_causal/saving_a_cat_causal_2.png"" class=""exp-image"">
                    <div class=""question-area""></div> 
                </div>","null","","","","","","","","","","","",""
"","","","","","html-button-response","62","334075","0.0-62.0","621D0B67BBB041CFB69F8FEF77B3C67A","019cfa7f-7a4e-734f-bcf0-0356ca283fb5","019cfa3a-388e-72ab-ad58-bdeb258f96cd","","1477","
                <div class=""stimulus-container"">
                    <img src=""images/causal_sequence/saving_a_cat_causal/saving_a_cat_causal_2.png"" class=""exp-image"">
                    <div class=""question-area"">
                        <p style=""font-size: 20px; font-weight: bold; margin: 0;"">Is there a person in this image?</p>
                    </div>
                </div>","1","main_experiment_trial","2","saving_a_cat_causal","causal_sequence","chronological","","","","","","",""
"","","","","","html-keyboard-response","63","335078","0.0-63.0","621D0B67BBB041CFB69F8FEF77B3C67A","019cfa7f-7a4e-734f-bcf0-0356ca283fb5","019cfa3a-388e-72ab-ad58-bdeb258f96cd","","null","
                <div class=""stimulus-container"">
                    <img src=""images/causal_sequence/saving_a_cat_causal/saving_a_cat_causal_3.png"" class=""exp-image"">
                    <div class=""question-area""></div> 
                </div>","null","","","","","","","","","","","",""
"","","","","","html-button-response","64","336063","0.0-64.0","621D0B67BBB041CFB69F8FEF77B3C67A","019cfa7f-7a4e-734f-bcf0-0356ca283fb5","019cfa3a-388e-72ab-ad58-bdeb258f96cd","","983","
                <div class=""stimulus-container"">
                    <img src=""images/causal_sequence/saving_a_cat_causal/saving_a_cat_causal_3.png"" class=""exp-image"">
                    <div class=""question-area"">
                        <p style=""font-size: 20px; font-weight: bold; margin: 0;"">Is there a person in this image?</p>
                    </div>
                </div>","1","main_experiment_trial","3","saving_a_cat_causal","causal_sequence","chronological","","","","","","",""
"","","","","","html-keyboard-response","65","337066","0.0-65.0","621D0B67BBB041CFB69F8FEF77B3C67A","019cfa7f-7a4e-734f-bcf0-0356ca283fb5","019cfa3a-388e-72ab-ad58-bdeb258f96cd","","null","
                <div class=""stimulus-container"">
                    <img src=""images/causal_sequence/saving_a_cat_causal/saving_a_cat_causal_4.png"" class=""exp-image"">
                    <div class=""question-area""></div> 
                </div>","null","","","","","","","","","","","",""
"","","","","","html-button-response","66","338331","0.0-66.0","621D0B67BBB041CFB69F8FEF77B3C67A","019cfa7f-7a4e-734f-bcf0-0356ca283fb5","019cfa3a-388e-72ab-ad58-bdeb258f96cd","","1263","
                <div class=""stimulus-container"">
                    <img src=""images/causal_sequence/saving_a_cat_causal/saving_a_cat_causal_4.png"" class=""exp-image"">
                    <div class=""question-area"">
                        <p style=""font-size: 20px; font-weight: bold; margin: 0;"">Is there a person in this image?</p>
                    </div>
                </div>","0","main_experiment_trial","4","saving_a_cat_causal","causal_sequence","chronological","","","","","","",""
"","","","","","html-keyboard-response","67","339334","0.0-67.0","621D0B67BBB041CFB69F8FEF77B3C67A","019cfa7f-7a4e-734f-bcf0-0356ca283fb5","019cfa3a-388e-72ab-ad58-bdeb258f96cd","","null","
                <div class=""stimulus-container"">
                    <img src=""images/causal_sequence/saving_a_cat_causal/saving_a_cat_causal_5.png"" class=""exp-image"">
                    <div class=""question-area""></div> 
                </div>","null","","","","","","","","","","","",""
"","","","","","html-button-response","68","340435","0.0-68.0","621D0B67BBB041CFB69F8FEF77B3C67A","019cfa7f-7a4e-734f-bcf0-0356ca283fb5","019cfa3a-388e-72ab-ad58-bdeb258f96cd","","1100","
                <div class=""stimulus-container"">
                    <img src=""images/causal_sequence/saving_a_cat_causal/saving_a_cat_causal_5.png"" class=""exp-image"">
                    <div class=""question-area"">
                        <p style=""font-size: 20px; font-weight: bold; margin: 0;"">Is there a person in this image?</p>
                    </div>
                </div>","0","main_experiment_trial","5","saving_a_cat_causal","causal_sequence","chronological","","","","","","",""
"","","","","","html-keyboard-response","69","341438","0.0-69.0","621D0B67BBB041CFB69F8FEF77B3C67A","019cfa7f-7a4e-734f-bcf0-0356ca283fb5","019cfa3a-388e-72ab-ad58-bdeb258f96cd","","null","
                <div class=""stimulus-container"">
                    <img src=""images/causal_sequence/saving_a_cat_causal/saving_a_cat_causal_6.png"" class=""exp-image"">
                    <div class=""question-area""></div> 
                </div>","null","","","","","","","","","","","",""
"","","","","","html-button-response","70","342736","0.0-70.0","621D0B67BBB041CFB69F8FEF77B3C67A","019cfa7f-7a4e-734f-bcf0-0356ca283fb5","019cfa3a-388e-72ab-ad58-bdeb258f96cd","","1295","
                <div class=""stimulus-container"">
                    <img src=""images/causal_sequence/saving_a_cat_causal/saving_a_cat_causal_6.png"" class=""exp-image"">
                    <div class=""question-area"">
                        <p style=""font-size: 20px; font-weight: bold; margin: 0;"">Is there a person in this image?</p>
                    </div>
                </div>","0","main_experiment_trial","6","saving_a_cat_causal","causal_sequence","chronological","","","","","","",""
"","","","","","html-keyboard-response","71","343739","0.0-71.0","621D0B67BBB041CFB69F8FEF77B3C67A","019cfa7f-7a4e-734f-bcf0-0356ca283fb5","019cfa3a-388e-72ab-ad58-bdeb258f96cd","","null","
                <div class=""stimulus-container"">
                    <img src=""images/causal_sequence/saving_a_cat_causal/saving_a_cat_causal_7.png"" class=""exp-image"">
                    <div class=""question-area""></div> 
                </div>","null","","","","","","","","","","","",""
"","","","","","html-button-response","72","345303","0.0-72.0","621D0B67BBB041CFB69F8FEF77B3C67A","019cfa7f-7a4e-734f-bcf0-0356ca283fb5","019cfa3a-388e-72ab-ad58-bdeb258f96cd","","1562","
                <div class=""stimulus-container"">
                    <img src=""images/causal_sequence/saving_a_cat_causal/saving_a_cat_causal_7.png"" class=""exp-image"">
                    <div class=""question-area"">
                        <p style=""font-size: 20px; font-weight: bold; margin: 0;"">Is there a person in this image?</p>
                    </div>
                </div>","0","main_experiment_trial","7","saving_a_cat_causal","causal_sequence","chronological","","","","","","",""
"","","","","","html-keyboard-response","73","346306","0.0-73.0","621D0B67BBB041CFB69F8FEF77B3C67A","019cfa7f-7a4e-734f-bcf0-0356ca283fb5","019cfa3a-388e-72ab-ad58-bdeb258f96cd","","null","
                <div class=""stimulus-container"">
                    <img src=""images/causal_sequence/saving_a_cat_causal/saving_a_cat_causal_8.png"" class=""exp-image"">
                    <div class=""question-area""></div> 
                </div>","null","","","","","","","","","","","",""
"","","","","","html-button-response","74","347472","0.0-74.0","621D0B67BBB041CFB69F8FEF77B3C67A","019cfa7f-7a4e-734f-bcf0-0356ca283fb5","019cfa3a-388e-72ab-ad58-bdeb258f96cd","","1164","
                <div class=""stimulus-container"">
                    <img src=""images/causal_sequence/saving_a_cat_causal/saving_a_cat_causal_8.png"" class=""exp-image"">
                    <div class=""question-area"">
                        <p style=""font-size: 20px; font-weight: bold; margin: 0;"">Is there a person in this image?</p>
                    </div>
                </div>","0","main_experiment_trial","8","saving_a_cat_causal","causal_sequence","chronological","","","","","","",""
"","","","","","html-keyboard-response","75","348474","0.0-75.0","621D0B67BBB041CFB69F8FEF77B3C67A","019cfa7f-7a4e-734f-bcf0-0356ca283fb5","019cfa3a-388e-72ab-ad58-bdeb258f96cd","","null","
                <div class=""stimulus-container"">
                    <img src=""images/causal_sequence/saving_a_cat_causal/saving_a_cat_causal_9.png"" class=""exp-image"">
                    <div class=""question-area""></div> 
                </div>","null","","","","","","","","","","","",""
"","","","","","html-button-response","76","349579","0.0-76.0","621D0B67BBB041CFB69F8FEF77B3C67A","019cfa7f-7a4e-734f-bcf0-0356ca283fb5","019cfa3a-388e-72ab-ad58-bdeb258f96cd","","1103","
                <div class=""stimulus-container"">
                    <img src=""images/causal_sequence/saving_a_cat_causal/saving_a_cat_causal_9.png"" class=""exp-image"">
                    <div class=""question-area"">
                        <p style=""font-size: 20px; font-weight: bold; margin: 0;"">Is there a person in this image?</p>
                    </div>
                </div>","0","main_experiment_trial","9","saving_a_cat_causal","causal_sequence","chronological","","","","","","",""
"","","","","","html-keyboard-response","77","350582","0.0-77.0","621D0B67BBB041CFB69F8FEF77B3C67A","019cfa7f-7a4e-734f-bcf0-0356ca283fb5","019cfa3a-388e-72ab-ad58-bdeb258f96cd","","null","
                <div class=""stimulus-container"">
                    <img src=""images/causal_sequence/saving_a_cat_causal/saving_a_cat_causal_ten.png"" class=""exp-image"">
                    <div class=""question-area""></div> 
                </div>","null","","","","","","","","","","","",""
"","","","","","html-button-response","78","351441","0.0-78.0","621D0B67BBB041CFB69F8FEF77B3C67A","019cfa7f-7a4e-734f-bcf0-0356ca283fb5","019cfa3a-388e-72ab-ad58-bdeb258f96cd","","857","
                <div class=""stimulus-container"">
                    <img src=""images/causal_sequence/saving_a_cat_causal/saving_a_cat_causal_ten.png"" class=""exp-image"">
                    <div class=""question-area"">
                        <p style=""font-size: 20px; font-weight: bold; margin: 0;"">Is there a person in this image?</p>
                    </div>
                </div>","0","main_experiment_trial","ten","saving_a_cat_causal","causal_sequence","chronological","","","","","","",""
"","","","","","html-keyboard-response","79","356443","0.0-79.0","621D0B67BBB041CFB69F8FEF77B3C67A","019cfa7f-7a4e-734f-bcf0-0356ca283fb5","019cfa3a-388e-72ab-ad58-bdeb258f96cd","","null","<div style=""background-color: white; width: 100vw; height: 100vh;""></div>","null","","","","","","","","","","","",""
"","","","","","html-keyboard-response","80","357445","0.0-80.0","621D0B67BBB041CFB69F8FEF77B3C67A","019cfa7f-7a4e-734f-bcf0-0356ca283fb5","019cfa3a-388e-72ab-ad58-bdeb258f96cd","","null","
                <div class=""stimulus-container"">
                    <img src=""images/semantic_sequence/housework_semantic/housework_semantic_1.png"" class=""exp-image"">
                    <div class=""question-area""></div> 
                </div>","null","","","","","","","","","","","",""
"","","","","","html-button-response","81","359598","0.0-81.0","621D0B67BBB041CFB69F8FEF77B3C67A","019cfa7f-7a4e-734f-bcf0-0356ca283fb5","019cfa3a-388e-72ab-ad58-bdeb258f96cd","","2150","
                <div class=""stimulus-container"">
                    <img src=""images/semantic_sequence/housework_semantic/housework_semantic_1.png"" class=""exp-image"">
                    <div class=""question-area"">
                        <p style=""font-size: 20px; font-weight: bold; margin: 0;"">Is there a person in this image?</p>
                    </div>
                </div>","0","main_experiment_trial","1","housework_semantic","semantic_sequence","chronological","","","","","","",""
"","","","","","html-keyboard-response","82","360600","0.0-82.0","621D0B67BBB041CFB69F8FEF77B3C67A","019cfa7f-7a4e-734f-bcf0-0356ca283fb5","019cfa3a-388e-72ab-ad58-bdeb258f96cd","","null","
                <div class=""stimulus-container"">
                    <img src=""images/semantic_sequence/housework_semantic/housework_semantic_2.png"" class=""exp-image"">
                    <div class=""question-area""></div> 
                </div>","null","","","","","","","","","","","",""
"","","","","","html-button-response","83","361610","0.0-83.0","621D0B67BBB041CFB69F8FEF77B3C67A","019cfa7f-7a4e-734f-bcf0-0356ca283fb5","019cfa3a-388e-72ab-ad58-bdeb258f96cd","","1007","
                <div class=""stimulus-container"">
                    <img src=""images/semantic_sequence/housework_semantic/housework_semantic_2.png"" class=""exp-image"">
                    <div class=""question-area"">
                        <p style=""font-size: 20px; font-weight: bold; margin: 0;"">Is there a person in this image?</p>
                    </div>
                </div>","0","main_experiment_trial","2","housework_semantic","semantic_sequence","chronological","","","","","","",""
"","","","","","html-keyboard-response","84","362612","0.0-84.0","621D0B67BBB041CFB69F8FEF77B3C67A","019cfa7f-7a4e-734f-bcf0-0356ca283fb5","019cfa3a-388e-72ab-ad58-bdeb258f96cd","","null","
                <div class=""stimulus-container"">
                    <img src=""images/semantic_sequence/housework_semantic/housework_semantic_3.png"" class=""exp-image"">
                    <div class=""question-area""></div> 
                </div>","null","","","","","","","","","","","",""
"","","","","","html-button-response","85","363471","0.0-85.0","621D0B67BBB041CFB69F8FEF77B3C67A","019cfa7f-7a4e-734f-bcf0-0356ca283fb5","019cfa3a-388e-72ab-ad58-bdeb258f96cd","","857","
                <div class=""stimulus-container"">
                    <img src=""images/semantic_sequence/housework_semantic/housework_semantic_3.png"" class=""exp-image"">
                    <div class=""question-area"">
                        <p style=""font-size: 20px; font-weight: bold; margin: 0;"">Is there a person in this image?</p>
                    </div>
                </div>","0","main_experiment_trial","3","housework_semantic","semantic_sequence","chronological","","","","","","",""
"","","","","","html-keyboard-response","86","364474","0.0-86.0","621D0B67BBB041CFB69F8FEF77B3C67A","019cfa7f-7a4e-734f-bcf0-0356ca283fb5","019cfa3a-388e-72ab-ad58-bdeb258f96cd","","null","
                <div class=""stimulus-container"">
                    <img src=""images/semantic_sequence/housework_semantic/housework_semantic_4.png"" class=""exp-image"">
                    <div class=""question-area""></div> 
                </div>","null","","","","","","","","","","","",""
"","","","","","html-button-response","87","365301","0.0-87.0","621D0B67BBB041CFB69F8FEF77B3C67A","019cfa7f-7a4e-734f-bcf0-0356ca283fb5","019cfa3a-388e-72ab-ad58-bdeb258f96cd","","825","
                <div class=""stimulus-container"">
                    <img src=""images/semantic_sequence/housework_semantic/housework_semantic_4.png"" class=""exp-image"">
                    <div class=""question-area"">
                        <p style=""font-size: 20px; font-weight: bold; margin: 0;"">Is there a person in this image?</p>
                    </div>
                </div>","0","main_experiment_trial","4","housework_semantic","semantic_sequence","chronological","","","","","","",""
"","","","","","html-keyboard-response","88","366304","0.0-88.0","621D0B67BBB041CFB69F8FEF77B3C67A","019cfa7f-7a4e-734f-bcf0-0356ca283fb5","019cfa3a-388e-72ab-ad58-bdeb258f96cd","","null","
                <div class=""stimulus-container"">
                    <img src=""images/semantic_sequence/housework_semantic/housework_semantic_5.png"" class=""exp-image"">
                    <div class=""question-area""></div> 
                </div>","null","","","","","","","","","","","",""
"","","","","","html-button-response","89","367415","0.0-89.0","621D0B67BBB041CFB69F8FEF77B3C67A","019cfa7f-7a4e-734f-bcf0-0356ca283fb5","019cfa3a-388e-72ab-ad58-bdeb258f96cd","","1109","
                <div class=""stimulus-container"">
                    <img src=""images/semantic_sequence/housework_semantic/housework_semantic_5.png"" class=""exp-image"">
                    <div class=""question-area"">
                        <p style=""font-size: 20px; font-weight: bold; margin: 0;"">Is there a person in this image?</p>
                    </div>
                </div>","0","main_experiment_trial","5","housework_semantic","semantic_sequence","chronological","","","","","","",""
"","","","","","html-keyboard-response","90","368418","0.0-90.0","621D0B67BBB041CFB69F8FEF77B3C67A","019cfa7f-7a4e-734f-bcf0-0356ca283fb5","019cfa3a-388e-72ab-ad58-bdeb258f96cd","","null","
                <div class=""stimulus-container"">
                    <img src=""images/semantic_sequence/housework_semantic/housework_semantic_6.png"" class=""exp-image"">
                    <div class=""question-area""></div> 
                </div>","null","","","","","","","","","","","",""
"","","","","","html-button-response","91","369610","0.0-91.0","621D0B67BBB041CFB69F8FEF77B3C67A","019cfa7f-7a4e-734f-bcf0-0356ca283fb5","019cfa3a-388e-72ab-ad58-bdeb258f96cd","","1190","
                <div class=""stimulus-container"">
                    <img src=""images/semantic_sequence/housework_semantic/housework_semantic_6.png"" class=""exp-image"">
                    <div class=""question-area"">
                        <p style=""font-size: 20px; font-weight: bold; margin: 0;"">Is there a person in this image?</p>
                    </div>
                </div>","0","main_experiment_trial","6","housework_semantic","semantic_sequence","chronological","","","","","","",""
"","","","","","html-keyboard-response","92","370612","0.0-92.0","621D0B67BBB041CFB69F8FEF77B3C67A","019cfa7f-7a4e-734f-bcf0-0356ca283fb5","019cfa3a-388e-72ab-ad58-bdeb258f96cd","","null","
                <div class=""stimulus-container"">
                    <img src=""images/semantic_sequence/housework_semantic/housework_semantic_7.png"" class=""exp-image"">
                    <div class=""question-area""></div> 
                </div>","null","","","","","","","","","","","",""
"","","","","","html-button-response","93","372152","0.0-93.0","621D0B67BBB041CFB69F8FEF77B3C67A","019cfa7f-7a4e-734f-bcf0-0356ca283fb5","019cfa3a-388e-72ab-ad58-bdeb258f96cd","","1537","
                <div class=""stimulus-container"">
                    <img src=""images/semantic_sequence/housework_semantic/housework_semantic_7.png"" class=""exp-image"">
                    <div class=""question-area"">
                        <p style=""font-size: 20px; font-weight: bold; margin: 0;"">Is there a person in this image?</p>
                    </div>
                </div>","0","main_experiment_trial","7","housework_semantic","semantic_sequence","chronological","","","","","","",""
"","","","","","html-keyboard-response","94","373155","0.0-94.0","621D0B67BBB041CFB69F8FEF77B3C67A","019cfa7f-7a4e-734f-bcf0-0356ca283fb5","019cfa3a-388e-72ab-ad58-bdeb258f96cd","","null","
                <div class=""stimulus-container"">
                    <img src=""images/semantic_sequence/housework_semantic/housework_semantic_8.png"" class=""exp-image"">
                    <div class=""question-area""></div> 
                </div>","null","","","","","","","","","","","",""
"","","","","","html-button-response","95","374269","0.0-95.0","621D0B67BBB041CFB69F8FEF77B3C67A","019cfa7f-7a4e-734f-bcf0-0356ca283fb5","019cfa3a-388e-72ab-ad58-bdeb258f96cd","","1112","
                <div class=""stimulus-container"">
                    <img src=""images/semantic_sequence/housework_semantic/housework_semantic_8.png"" class=""exp-image"">
                    <div class=""question-area"">
                        <p style=""font-size: 20px; font-weight: bold; margin: 0;"">Is there a person in this image?</p>
                    </div>
                </div>","0","main_experiment_trial","8","housework_semantic","semantic_sequence","chronological","","","","","","",""
"","","","","","html-keyboard-response","96","375272","0.0-96.0","621D0B67BBB041CFB69F8FEF77B3C67A","019cfa7f-7a4e-734f-bcf0-0356ca283fb5","019cfa3a-388e-72ab-ad58-bdeb258f96cd","","null","
                <div class=""stimulus-container"">
                    <img src=""images/semantic_sequence/housework_semantic/housework_semantic_9.png"" class=""exp-image"">
                    <div class=""question-area""></div> 
                </div>","null","","","","","","","","","","","",""
"","","","","","html-button-response","97","376139","0.0-97.0","621D0B67BBB041CFB69F8FEF77B3C67A","019cfa7f-7a4e-734f-bcf0-0356ca283fb5","019cfa3a-388e-72ab-ad58-bdeb258f96cd","","865","
                <div class=""stimulus-container"">
                    <img src=""images/semantic_sequence/housework_semantic/housework_semantic_9.png"" class=""exp-image"">
                    <div class=""question-area"">
                        <p style=""font-size: 20px; font-weight: bold; margin: 0;"">Is there a person in this image?</p>
                    </div>
                </div>","0","main_experiment_trial","9","housework_semantic","semantic_sequence","chronological","","","","","","",""
"","","","","","html-keyboard-response","98","377142","0.0-98.0","621D0B67BBB041CFB69F8FEF77B3C67A","019cfa7f-7a4e-734f-bcf0-0356ca283fb5","019cfa3a-388e-72ab-ad58-bdeb258f96cd","","null","
                <div class=""stimulus-container"">
                    <img src=""images/semantic_sequence/housework_semantic/housework_semantic_ten.png"" class=""exp-image"">
                    <div class=""question-area""></div> 
                </div>","null","","","","","","","","","","","",""
"","","","","","html-button-response","99","377992","0.0-99.0","621D0B67BBB041CFB69F8FEF77B3C67A","019cfa7f-7a4e-734f-bcf0-0356ca283fb5","019cfa3a-388e-72ab-ad58-bdeb258f96cd","","848","
                <div class=""stimulus-container"">
                    <img src=""images/semantic_sequence/housework_semantic/housework_semantic_ten.png"" class=""exp-image"">
                    <div class=""question-area"">
                        <p style=""font-size: 20px; font-weight: bold; margin: 0;"">Is there a person in this image?</p>
                    </div>
                </div>","0","main_experiment_trial","ten","housework_semantic","semantic_sequence","chronological","","","","","","",""
"","","","","","html-keyboard-response","100","382994","0.0-100.0","621D0B67BBB041CFB69F8FEF77B3C67A","019cfa7f-7a4e-734f-bcf0-0356ca283fb5","019cfa3a-388e-72ab-ad58-bdeb258f96cd","","null","<div style=""background-color: white; width: 100vw; height: 100vh;""></div>","null","","","","","","","","","","","",""
"","","","","","html-keyboard-response","101","383996","0.0-101.0","621D0B67BBB041CFB69F8FEF77B3C67A","019cfa7f-7a4e-734f-bcf0-0356ca283fb5","019cfa3a-388e-72ab-ad58-bdeb258f96cd","","null","
                <div class=""stimulus-container"">
                    <img src=""images/semantic_sequence/using_technology_semantic/using_technology_semantic_1.png"" class=""exp-image"">
                    <div class=""question-area""></div> 
                </div>","null","","","","","","","","","","","",""
"","","","","","html-button-response","102","384937","0.0-102.0","621D0B67BBB041CFB69F8FEF77B3C67A","019cfa7f-7a4e-734f-bcf0-0356ca283fb5","019cfa3a-388e-72ab-ad58-bdeb258f96cd","","939","
                <div class=""stimulus-container"">
                    <img src=""images/semantic_sequence/using_technology_semantic/using_technology_semantic_1.png"" class=""exp-image"">
                    <div class=""question-area"">
                        <p style=""font-size: 20px; font-weight: bold; margin: 0;"">Is there a person in this image?</p>
                    </div>
                </div>","0","main_experiment_trial","1","using_technology_semantic","semantic_sequence","chronological","","","","","","",""
"","","","","","html-keyboard-response","103","385940","0.0-103.0","621D0B67BBB041CFB69F8FEF77B3C67A","019cfa7f-7a4e-734f-bcf0-0356ca283fb5","019cfa3a-388e-72ab-ad58-bdeb258f96cd","","null","
                <div class=""stimulus-container"">
                    <img src=""images/semantic_sequence/using_technology_semantic/using_technology_semantic_2.png"" class=""exp-image"">
                    <div class=""question-area""></div> 
                </div>","null","","","","","","","","","","","",""
"","","","","","html-button-response","104","387233","0.0-104.0","621D0B67BBB041CFB69F8FEF77B3C67A","019cfa7f-7a4e-734f-bcf0-0356ca283fb5","019cfa3a-388e-72ab-ad58-bdeb258f96cd","","1291","
                <div class=""stimulus-container"">
                    <img src=""images/semantic_sequence/using_technology_semantic/using_technology_semantic_2.png"" class=""exp-image"">
                    <div class=""question-area"">
                        <p style=""font-size: 20px; font-weight: bold; margin: 0;"">Is there a person in this image?</p>
                    </div>
                </div>","0","main_experiment_trial","2","using_technology_semantic","semantic_sequence","chronological","","","","","","",""
"","","","","","html-keyboard-response","105","388236","0.0-105.0","621D0B67BBB041CFB69F8FEF77B3C67A","019cfa7f-7a4e-734f-bcf0-0356ca283fb5","019cfa3a-388e-72ab-ad58-bdeb258f96cd","","null","
                <div class=""stimulus-container"">
                    <img src=""images/semantic_sequence/using_technology_semantic/using_technology_semantic_3.png"" class=""exp-image"">
                    <div class=""question-area""></div> 
                </div>","null","","","","","","","","","","","",""
"","","","","","html-button-response","106","389286","0.0-106.0","621D0B67BBB041CFB69F8FEF77B3C67A","019cfa7f-7a4e-734f-bcf0-0356ca283fb5","019cfa3a-388e-72ab-ad58-bdeb258f96cd","","1047","
                <div class=""stimulus-container"">
                    <img src=""images/semantic_sequence/using_technology_semantic/using_technology_semantic_3.png"" class=""exp-image"">
                    <div class=""question-area"">
                        <p style=""font-size: 20px; font-weight: bold; margin: 0;"">Is there a person in this image?</p>
                    </div>
                </div>","0","main_experiment_trial","3","using_technology_semantic","semantic_sequence","chronological","","","","","","",""
"","","","","","html-keyboard-response","107","390289","0.0-107.0","621D0B67BBB041CFB69F8FEF77B3C67A","019cfa7f-7a4e-734f-bcf0-0356ca283fb5","019cfa3a-388e-72ab-ad58-bdeb258f96cd","","null","
                <div class=""stimulus-container"">
                    <img src=""images/semantic_sequence/using_technology_semantic/using_technology_semantic_4.png"" class=""exp-image"">
                    <div class=""question-area""></div> 
                </div>","null","","","","","","","","","","","",""
"","","","","","html-button-response","108","391293","0.0-108.0","621D0B67BBB041CFB69F8FEF77B3C67A","019cfa7f-7a4e-734f-bcf0-0356ca283fb5","019cfa3a-388e-72ab-ad58-bdeb258f96cd","","1002","
                <div class=""stimulus-container"">
                    <img src=""images/semantic_sequence/using_technology_semantic/using_technology_semantic_4.png"" class=""exp-image"">
                    <div class=""question-area"">
                        <p style=""font-size: 20px; font-weight: bold; margin: 0;"">Is there a person in this image?</p>
                    </div>
                </div>","0","main_experiment_trial","4","using_technology_semantic","semantic_sequence","chronological","","","","","","",""
"","","","","","html-keyboard-response","109","392296","0.0-109.0","621D0B67BBB041CFB69F8FEF77B3C67A","019cfa7f-7a4e-734f-bcf0-0356ca283fb5","019cfa3a-388e-72ab-ad58-bdeb258f96cd","","null","
                <div class=""stimulus-container"">
                    <img src=""images/semantic_sequence/using_technology_semantic/using_technology_semantic_5.png"" class=""exp-image"">
                    <div class=""question-area""></div> 
                </div>","null","","","","","","","","","","","",""
"","","","","","html-button-response","110","393093","0.0-110.0","621D0B67BBB041CFB69F8FEF77B3C67A","019cfa7f-7a4e-734f-bcf0-0356ca283fb5","019cfa3a-388e-72ab-ad58-bdeb258f96cd","","795","
                <div class=""stimulus-container"">
                    <img src=""images/semantic_sequence/using_technology_semantic/using_technology_semantic_5.png"" class=""exp-image"">
                    <div class=""question-area"">
                        <p style=""font-size: 20px; font-weight: bold; margin: 0;"">Is there a person in this image?</p>
                    </div>
                </div>","0","main_experiment_trial","5","using_technology_semantic","semantic_sequence","chronological","","","","","","",""
"","","","","","html-keyboard-response","111","394096","0.0-111.0","621D0B67BBB041CFB69F8FEF77B3C67A","019cfa7f-7a4e-734f-bcf0-0356ca283fb5","019cfa3a-388e-72ab-ad58-bdeb258f96cd","","null","
                <div class=""stimulus-container"">
                    <img src=""images/semantic_sequence/using_technology_semantic/using_technology_semantic_6.png"" class=""exp-image"">
                    <div class=""question-area""></div> 
                </div>","null","","","","","","","","","","","",""
"","","","","","html-button-response","112","395493","0.0-112.0","621D0B67BBB041CFB69F8FEF77B3C67A","019cfa7f-7a4e-734f-bcf0-0356ca283fb5","019cfa3a-388e-72ab-ad58-bdeb258f96cd","","1395","
                <div class=""stimulus-container"">
                    <img src=""images/semantic_sequence/using_technology_semantic/using_technology_semantic_6.png"" class=""exp-image"">
                    <div class=""question-area"">
                        <p style=""font-size: 20px; font-weight: bold; margin: 0;"">Is there a person in this image?</p>
                    </div>
                </div>","0","main_experiment_trial","6","using_technology_semantic","semantic_sequence","chronological","","","","","","",""
"","","","","","html-keyboard-response","113","396496","0.0-113.0","621D0B67BBB041CFB69F8FEF77B3C67A","019cfa7f-7a4e-734f-bcf0-0356ca283fb5","019cfa3a-388e-72ab-ad58-bdeb258f96cd","","null","
                <div class=""stimulus-container"">
                    <img src=""images/semantic_sequence/using_technology_semantic/using_technology_semantic_7.png"" class=""exp-image"">
                    <div class=""question-area""></div> 
                </div>","null","","","","","","","","","","","",""
"","","","","","html-button-response","114","397375","0.0-114.0","621D0B67BBB041CFB69F8FEF77B3C67A","019cfa7f-7a4e-734f-bcf0-0356ca283fb5","019cfa3a-388e-72ab-ad58-bdeb258f96cd","","877","
                <div class=""stimulus-container"">
                    <img src=""images/semantic_sequence/using_technology_semantic/using_technology_semantic_7.png"" class=""exp-image"">
                    <div class=""question-area"">
                        <p style=""font-size: 20px; font-weight: bold; margin: 0;"">Is there a person in this image?</p>
                    </div>
                </div>","0","main_experiment_trial","7","using_technology_semantic","semantic_sequence","chronological","","","","","","",""
"","","","","","html-keyboard-response","115","398378","0.0-115.0","621D0B67BBB041CFB69F8FEF77B3C67A","019cfa7f-7a4e-734f-bcf0-0356ca283fb5","019cfa3a-388e-72ab-ad58-bdeb258f96cd","","null","
                <div class=""stimulus-container"">
                    <img src=""images/semantic_sequence/using_technology_semantic/using_technology_semantic_8.png"" class=""exp-image"">
                    <div class=""question-area""></div> 
                </div>","null","","","","","","","","","","","",""
"","","","","","html-button-response","116","399267","0.0-116.0","621D0B67BBB041CFB69F8FEF77B3C67A","019cfa7f-7a4e-734f-bcf0-0356ca283fb5","019cfa3a-388e-72ab-ad58-bdeb258f96cd","","887","
                <div class=""stimulus-container"">
                    <img src=""images/semantic_sequence/using_technology_semantic/using_technology_semantic_8.png"" class=""exp-image"">
                    <div class=""question-area"">
                        <p style=""font-size: 20px; font-weight: bold; margin: 0;"">Is there a person in this image?</p>
                    </div>
                </div>","0","main_experiment_trial","8","using_technology_semantic","semantic_sequence","chronological","","","","","","",""
"","","","","","html-keyboard-response","117","400270","0.0-117.0","621D0B67BBB041CFB69F8FEF77B3C67A","019cfa7f-7a4e-734f-bcf0-0356ca283fb5","019cfa3a-388e-72ab-ad58-bdeb258f96cd","","null","
                <div class=""stimulus-container"">
                    <img src=""images/semantic_sequence/using_technology_semantic/using_technology_semantic_9.png"" class=""exp-image"">
                    <div class=""question-area""></div> 
                </div>","null","","","","","","","","","","","",""
"","","","","","html-button-response","118","400977","0.0-118.0","621D0B67BBB041CFB69F8FEF77B3C67A","019cfa7f-7a4e-734f-bcf0-0356ca283fb5","019cfa3a-388e-72ab-ad58-bdeb258f96cd","","705","
                <div class=""stimulus-container"">
                    <img src=""images/semantic_sequence/using_technology_semantic/using_technology_semantic_9.png"" class=""exp-image"">
                    <div class=""question-area"">
                        <p style=""font-size: 20px; font-weight: bold; margin: 0;"">Is there a person in this image?</p>
                    </div>
                </div>","0","main_experiment_trial","9","using_technology_semantic","semantic_sequence","chronological","","","","","","",""
"","","","","","html-keyboard-response","119","401980","0.0-119.0","621D0B67BBB041CFB69F8FEF77B3C67A","019cfa7f-7a4e-734f-bcf0-0356ca283fb5","019cfa3a-388e-72ab-ad58-bdeb258f96cd","","null","
                <div class=""stimulus-container"">
                    <img src=""images/semantic_sequence/using_technology_semantic/using_technology_semantic_ten.png"" class=""exp-image"">
                    <div class=""question-area""></div> 
                </div>","null","","","","","","","","","","","",""
"","","","","","html-button-response","120","402722","0.0-120.0","621D0B67BBB041CFB69F8FEF77B3C67A","019cfa7f-7a4e-734f-bcf0-0356ca283fb5","019cfa3a-388e-72ab-ad58-bdeb258f96cd","","739","
                <div class=""stimulus-container"">
                    <img src=""images/semantic_sequence/using_technology_semantic/using_technology_semantic_ten.png"" class=""exp-image"">
                    <div class=""question-area"">
                        <p style=""font-size: 20px; font-weight: bold; margin: 0;"">Is there a person in this image?</p>
                    </div>
                </div>","0","main_experiment_trial","ten","using_technology_semantic","semantic_sequence","chronological","","","","","","",""
"","","","","","html-keyboard-response","121","407725","0.0-121.0","621D0B67BBB041CFB69F8FEF77B3C67A","019cfa7f-7a4e-734f-bcf0-0356ca283fb5","019cfa3a-388e-72ab-ad58-bdeb258f96cd","","null","<div style=""background-color: white; width: 100vw; height: 100vh;""></div>","null","","","","","","","","","","","",""
"","","","","","html-keyboard-response","122","408727","0.0-122.0","621D0B67BBB041CFB69F8FEF77B3C67A","019cfa7f-7a4e-734f-bcf0-0356ca283fb5","019cfa3a-388e-72ab-ad58-bdeb258f96cd","","null","
                <div class=""stimulus-container"">
                    <img src=""images/semantic_sequence/visiting_cities_semantic/visiting_cities_semantic_1.png"" class=""exp-image"">
                    <div class=""question-area""></div> 
                </div>","null","","","","","","","","","","","",""
"","","","","","html-button-response","123","411729","0.0-123.0","621D0B67BBB041CFB69F8FEF77B3C67A","019cfa7f-7a4e-734f-bcf0-0356ca283fb5","019cfa3a-388e-72ab-ad58-bdeb258f96cd","","null","
                <div class=""stimulus-container"">
                    <img src=""images/semantic_sequence/visiting_cities_semantic/visiting_cities_semantic_1.png"" class=""exp-image"">
                    <div class=""question-area"">
                        <p style=""font-size: 20px; font-weight: bold; margin: 0;"">Is there a person in this image?</p>
                    </div>
                </div>","null","main_experiment_trial","1","visiting_cities_semantic","semantic_sequence","chronological","","","","","","",""
"","","","","","html-keyboard-response","124","412732","0.0-124.0","621D0B67BBB041CFB69F8FEF77B3C67A","019cfa7f-7a4e-734f-bcf0-0356ca283fb5","019cfa3a-388e-72ab-ad58-bdeb258f96cd","","null","
                <div class=""stimulus-container"">
                    <img src=""images/semantic_sequence/visiting_cities_semantic/visiting_cities_semantic_2.png"" class=""exp-image"">
                    <div class=""question-area""></div> 
                </div>","null","","","","","","","","","","","",""
"","","","","","html-button-response","125","413903","0.0-125.0","621D0B67BBB041CFB69F8FEF77B3C67A","019cfa7f-7a4e-734f-bcf0-0356ca283fb5","019cfa3a-388e-72ab-ad58-bdeb258f96cd","","1169","
                <div class=""stimulus-container"">
                    <img src=""images/semantic_sequence/visiting_cities_semantic/visiting_cities_semantic_2.png"" class=""exp-image"">
                    <div class=""question-area"">
                        <p style=""font-size: 20px; font-weight: bold; margin: 0;"">Is there a person in this image?</p>
                    </div>
                </div>","1","main_experiment_trial","2","visiting_cities_semantic","semantic_sequence","chronological","","","","","","",""
"","","","","","html-keyboard-response","126","414906","0.0-126.0","621D0B67BBB041CFB69F8FEF77B3C67A","019cfa7f-7a4e-734f-bcf0-0356ca283fb5","019cfa3a-388e-72ab-ad58-bdeb258f96cd","","null","
                <div class=""stimulus-container"">
                    <img src=""images/semantic_sequence/visiting_cities_semantic/visiting_cities_semantic_3.png"" class=""exp-image"">
                    <div class=""question-area""></div> 
                </div>","null","","","","","","","","","","","",""
"","","","","","html-button-response","127","415583","0.0-127.0","621D0B67BBB041CFB69F8FEF77B3C67A","019cfa7f-7a4e-734f-bcf0-0356ca283fb5","019cfa3a-388e-72ab-ad58-bdeb258f96cd","","675","
                <div class=""stimulus-container"">
                    <img src=""images/semantic_sequence/visiting_cities_semantic/visiting_cities_semantic_3.png"" class=""exp-image"">
                    <div class=""question-area"">
                        <p style=""font-size: 20px; font-weight: bold; margin: 0;"">Is there a person in this image?</p>
                    </div>
                </div>","1","main_experiment_trial","3","visiting_cities_semantic","semantic_sequence","chronological","","","","","","",""
"","","","","","html-keyboard-response","128","416586","0.0-128.0","621D0B67BBB041CFB69F8FEF77B3C67A","019cfa7f-7a4e-734f-bcf0-0356ca283fb5","019cfa3a-388e-72ab-ad58-bdeb258f96cd","","null","
                <div class=""stimulus-container"">
                    <img src=""images/semantic_sequence/visiting_cities_semantic/visiting_cities_semantic_4.png"" class=""exp-image"">
                    <div class=""question-area""></div> 
                </div>","null","","","","","","","","","","","",""
"","","","","","html-button-response","129","417279","0.0-129.0","621D0B67BBB041CFB69F8FEF77B3C67A","019cfa7f-7a4e-734f-bcf0-0356ca283fb5","019cfa3a-388e-72ab-ad58-bdeb258f96cd","","692","
                <div class=""stimulus-container"">
                    <img src=""images/semantic_sequence/visiting_cities_semantic/visiting_cities_semantic_4.png"" class=""exp-image"">
                    <div class=""question-area"">
                        <p style=""font-size: 20px; font-weight: bold; margin: 0;"">Is there a person in this image?</p>
                    </div>
                </div>","1","main_experiment_trial","4","visiting_cities_semantic","semantic_sequence","chronological","","","","","","",""
"","","","","","html-keyboard-response","130","418282","0.0-130.0","621D0B67BBB041CFB69F8FEF77B3C67A","019cfa7f-7a4e-734f-bcf0-0356ca283fb5","019cfa3a-388e-72ab-ad58-bdeb258f96cd","","null","
                <div class=""stimulus-container"">
                    <img src=""images/semantic_sequence/visiting_cities_semantic/visiting_cities_semantic_5.png"" class=""exp-image"">
                    <div class=""question-area""></div> 
                </div>","null","","","","","","","","","","","",""
"","","","","","html-button-response","131","418712","0.0-131.0","621D0B67BBB041CFB69F8FEF77B3C67A","019cfa7f-7a4e-734f-bcf0-0356ca283fb5","019cfa3a-388e-72ab-ad58-bdeb258f96cd","","427","
                <div class=""stimulus-container"">
                    <img src=""images/semantic_sequence/visiting_cities_semantic/visiting_cities_semantic_5.png"" class=""exp-image"">
                    <div class=""question-area"">
                        <p style=""font-size: 20px; font-weight: bold; margin: 0;"">Is there a person in this image?</p>
                    </div>
                </div>","1","main_experiment_trial","5","visiting_cities_semantic","semantic_sequence","chronological","","","","","","",""
"","","","","","html-keyboard-response","132","419714","0.0-132.0","621D0B67BBB041CFB69F8FEF77B3C67A","019cfa7f-7a4e-734f-bcf0-0356ca283fb5","019cfa3a-388e-72ab-ad58-bdeb258f96cd","","null","
                <div class=""stimulus-container"">
                    <img src=""images/semantic_sequence/visiting_cities_semantic/visiting_cities_semantic_6.png"" class=""exp-image"">
                    <div class=""question-area""></div> 
                </div>","null","","","","","","","","","","","",""
"","","","","","html-button-response","133","420392","0.0-133.0","621D0B67BBB041CFB69F8FEF77B3C67A","019cfa7f-7a4e-734f-bcf0-0356ca283fb5","019cfa3a-388e-72ab-ad58-bdeb258f96cd","","676","
                <div class=""stimulus-container"">
                    <img src=""images/semantic_sequence/visiting_cities_semantic/visiting_cities_semantic_6.png"" class=""exp-image"">
                    <div class=""question-area"">
                        <p style=""font-size: 20px; font-weight: bold; margin: 0;"">Is there a person in this image?</p>
                    </div>
                </div>","1","main_experiment_trial","6","visiting_cities_semantic","semantic_sequence","chronological","","","","","","",""
"","","","","","html-keyboard-response","134","421395","0.0-134.0","621D0B67BBB041CFB69F8FEF77B3C67A","019cfa7f-7a4e-734f-bcf0-0356ca283fb5","019cfa3a-388e-72ab-ad58-bdeb258f96cd","","null","
                <div class=""stimulus-container"">
                    <img src=""images/semantic_sequence/visiting_cities_semantic/visiting_cities_semantic_7.png"" class=""exp-image"">
                    <div class=""question-area""></div> 
                </div>","null","","","","","","","","","","","",""
"","","","","","html-button-response","135","422555","0.0-135.0","621D0B67BBB041CFB69F8FEF77B3C67A","019cfa7f-7a4e-734f-bcf0-0356ca283fb5","019cfa3a-388e-72ab-ad58-bdeb258f96cd","","1158","
                <div class=""stimulus-container"">
                    <img src=""images/semantic_sequence/visiting_cities_semantic/visiting_cities_semantic_7.png"" class=""exp-image"">
                    <div class=""question-area"">
                        <p style=""font-size: 20px; font-weight: bold; margin: 0;"">Is there a person in this image?</p>
                    </div>
                </div>","1","main_experiment_trial","7","visiting_cities_semantic","semantic_sequence","chronological","","","","","","",""
"","","","","","html-keyboard-response","136","423558","0.0-136.0","621D0B67BBB041CFB69F8FEF77B3C67A","019cfa7f-7a4e-734f-bcf0-0356ca283fb5","019cfa3a-388e-72ab-ad58-bdeb258f96cd","","null","
                <div class=""stimulus-container"">
                    <img src=""images/semantic_sequence/visiting_cities_semantic/visiting_cities_semantic_8.png"" class=""exp-image"">
                    <div class=""question-area""></div> 
                </div>","null","","","","","","","","","","","",""
"","","","","","html-button-response","137","424259","0.0-137.0","621D0B67BBB041CFB69F8FEF77B3C67A","019cfa7f-7a4e-734f-bcf0-0356ca283fb5","019cfa3a-388e-72ab-ad58-bdeb258f96cd","","699","
                <div class=""stimulus-container"">
                    <img src=""images/semantic_sequence/visiting_cities_semantic/visiting_cities_semantic_8.png"" class=""exp-image"">
                    <div class=""question-area"">
                        <p style=""font-size: 20px; font-weight: bold; margin: 0;"">Is there a person in this image?</p>
                    </div>
                </div>","1","main_experiment_trial","8","visiting_cities_semantic","semantic_sequence","chronological","","","","","","",""
"","","","","","html-keyboard-response","138","425262","0.0-138.0","621D0B67BBB041CFB69F8FEF77B3C67A","019cfa7f-7a4e-734f-bcf0-0356ca283fb5","019cfa3a-388e-72ab-ad58-bdeb258f96cd","","null","
                <div class=""stimulus-container"">
                    <img src=""images/semantic_sequence/visiting_cities_semantic/visiting_cities_semantic_9.png"" class=""exp-image"">
                    <div class=""question-area""></div> 
                </div>","null","","","","","","","","","","","",""
"","","","","","html-button-response","139","425843","0.0-139.0","621D0B67BBB041CFB69F8FEF77B3C67A","019cfa7f-7a4e-734f-bcf0-0356ca283fb5","019cfa3a-388e-72ab-ad58-bdeb258f96cd","","579","
                <div class=""stimulus-container"">
                    <img src=""images/semantic_sequence/visiting_cities_semantic/visiting_cities_semantic_9.png"" class=""exp-image"">
                    <div class=""question-area"">
                        <p style=""font-size: 20px; font-weight: bold; margin: 0;"">Is there a person in this image?</p>
                    </div>
                </div>","1","main_experiment_trial","9","visiting_cities_semantic","semantic_sequence","chronological","","","","","","",""
"","","","","","html-keyboard-response","140","426846","0.0-140.0","621D0B67BBB041CFB69F8FEF77B3C67A","019cfa7f-7a4e-734f-bcf0-0356ca283fb5","019cfa3a-388e-72ab-ad58-bdeb258f96cd","","null","
                <div class=""stimulus-container"">
                    <img src=""images/semantic_sequence/visiting_cities_semantic/visiting_cities_semantic_ten.png"" class=""exp-image"">
                    <div class=""question-area""></div> 
                </div>","null","","","","","","","","","","","",""
"","","","","","html-button-response","141","427584","0.0-141.0","621D0B67BBB041CFB69F8FEF77B3C67A","019cfa7f-7a4e-734f-bcf0-0356ca283fb5","019cfa3a-388e-72ab-ad58-bdeb258f96cd","","735","
                <div class=""stimulus-container"">
                    <img src=""images/semantic_sequence/visiting_cities_semantic/visiting_cities_semantic_ten.png"" class=""exp-image"">
                    <div class=""question-area"">
                        <p style=""font-size: 20px; font-weight: bold; margin: 0;"">Is there a person in this image?</p>
                    </div>
                </div>","1","main_experiment_trial","ten","visiting_cities_semantic","semantic_sequence","chronological","","","","","","",""
"","","","","","html-keyboard-response","142","432586","0.0-142.0","621D0B67BBB041CFB69F8FEF77B3C67A","019cfa7f-7a4e-734f-bcf0-0356ca283fb5","019cfa3a-388e-72ab-ad58-bdeb258f96cd","","null","<div style=""background-color: white; width: 100vw; height: 100vh;""></div>","null","","","","","","","","","","","",""
"","","","","","html-keyboard-response","143","433588","0.0-143.0","621D0B67BBB041CFB69F8FEF77B3C67A","019cfa7f-7a4e-734f-bcf0-0356ca283fb5","019cfa3a-388e-72ab-ad58-bdeb258f96cd","","null","
                <div class=""stimulus-container"">
                    <img src=""images/semantic_sequence/kitchen_operations_semantic/kitchen_operations_semantic_1.png"" class=""exp-image"">
                    <div class=""question-area""></div> 
                </div>","null","","","","","","","","","","","",""
"","","","","","html-button-response","144","434459","0.0-144.0","621D0B67BBB041CFB69F8FEF77B3C67A","019cfa7f-7a4e-734f-bcf0-0356ca283fb5","019cfa3a-388e-72ab-ad58-bdeb258f96cd","","869","
                <div class=""stimulus-container"">
                    <img src=""images/semantic_sequence/kitchen_operations_semantic/kitchen_operations_semantic_1.png"" class=""exp-image"">
                    <div class=""question-area"">
                        <p style=""font-size: 20px; font-weight: bold; margin: 0;"">Is there a person in this image?</p>
                    </div>
                </div>","0","main_experiment_trial","1","kitchen_operations_semantic","semantic_sequence","chronological","","","","","","",""
"","","","","","html-keyboard-response","145","435462","0.0-145.0","621D0B67BBB041CFB69F8FEF77B3C67A","019cfa7f-7a4e-734f-bcf0-0356ca283fb5","019cfa3a-388e-72ab-ad58-bdeb258f96cd","","null","
                <div class=""stimulus-container"">
                    <img src=""images/semantic_sequence/kitchen_operations_semantic/kitchen_operations_semantic_2.png"" class=""exp-image"">
                    <div class=""question-area""></div> 
                </div>","null","","","","","","","","","","","",""
"","","","","","html-button-response","146","436215","0.0-146.0","621D0B67BBB041CFB69F8FEF77B3C67A","019cfa7f-7a4e-734f-bcf0-0356ca283fb5","019cfa3a-388e-72ab-ad58-bdeb258f96cd","","751","
                <div class=""stimulus-container"">
                    <img src=""images/semantic_sequence/kitchen_operations_semantic/kitchen_operations_semantic_2.png"" class=""exp-image"">
                    <div class=""question-area"">
                        <p style=""font-size: 20px; font-weight: bold; margin: 0;"">Is there a person in this image?</p>
                    </div>
                </div>","0","main_experiment_trial","2","kitchen_operations_semantic","semantic_sequence","chronological","","","","","","",""
"","","","","","html-keyboard-response","147","437218","0.0-147.0","621D0B67BBB041CFB69F8FEF77B3C67A","019cfa7f-7a4e-734f-bcf0-0356ca283fb5","019cfa3a-388e-72ab-ad58-bdeb258f96cd","","null","
                <div class=""stimulus-container"">
                    <img src=""images/semantic_sequence/kitchen_operations_semantic/kitchen_operations_semantic_3.png"" class=""exp-image"">
                    <div class=""question-area""></div> 
                </div>","null","","","","","","","","","","","",""
"","","","","","html-button-response","148","438006","0.0-148.0","621D0B67BBB041CFB69F8FEF77B3C67A","019cfa7f-7a4e-734f-bcf0-0356ca283fb5","019cfa3a-388e-72ab-ad58-bdeb258f96cd","","785","
                <div class=""stimulus-container"">
                    <img src=""images/semantic_sequence/kitchen_operations_semantic/kitchen_operations_semantic_3.png"" class=""exp-image"">
                    <div class=""question-area"">
                        <p style=""font-size: 20px; font-weight: bold; margin: 0;"">Is there a person in this image?</p>
                    </div>
                </div>","0","main_experiment_trial","3","kitchen_operations_semantic","semantic_sequence","chronological","","","","","","",""
"","","","","","html-keyboard-response","149","439008","0.0-149.0","621D0B67BBB041CFB69F8FEF77B3C67A","019cfa7f-7a4e-734f-bcf0-0356ca283fb5","019cfa3a-388e-72ab-ad58-bdeb258f96cd","","null","
                <div class=""stimulus-container"">
                    <img src=""images/semantic_sequence/kitchen_operations_semantic/kitchen_operations_semantic_4.png"" class=""exp-image"">
                    <div class=""question-area""></div> 
                </div>","null","","","","","","","","","","","",""
"","","","","","html-button-response","150","439539","0.0-150.0","621D0B67BBB041CFB69F8FEF77B3C67A","019cfa7f-7a4e-734f-bcf0-0356ca283fb5","019cfa3a-388e-72ab-ad58-bdeb258f96cd","","530","
                <div class=""stimulus-container"">
                    <img src=""images/semantic_sequence/kitchen_operations_semantic/kitchen_operations_semantic_4.png"" class=""exp-image"">
                    <div class=""question-area"">
                        <p style=""font-size: 20px; font-weight: bold; margin: 0;"">Is there a person in this image?</p>
                    </div>
                </div>","0","main_experiment_trial","4","kitchen_operations_semantic","semantic_sequence","chronological","","","","","","",""
"","","","","","html-keyboard-response","151","440542","0.0-151.0","621D0B67BBB041CFB69F8FEF77B3C67A","019cfa7f-7a4e-734f-bcf0-0356ca283fb5","019cfa3a-388e-72ab-ad58-bdeb258f96cd","","null","
                <div class=""stimulus-container"">
                    <img src=""images/semantic_sequence/kitchen_operations_semantic/kitchen_operations_semantic_5.png"" class=""exp-image"">
                    <div class=""question-area""></div> 
                </div>","null","","","","","","","","","","","",""
"","","","","","html-button-response","152","441183","0.0-152.0","621D0B67BBB041CFB69F8FEF77B3C67A","019cfa7f-7a4e-734f-bcf0-0356ca283fb5","019cfa3a-388e-72ab-ad58-bdeb258f96cd","","639","
                <div class=""stimulus-container"">
                    <img src=""images/semantic_sequence/kitchen_operations_semantic/kitchen_operations_semantic_5.png"" class=""exp-image"">
                    <div class=""question-area"">
                        <p style=""font-size: 20px; font-weight: bold; margin: 0;"">Is there a person in this image?</p>
                    </div>
                </div>","0","main_experiment_trial","5","kitchen_operations_semantic","semantic_sequence","chronological","","","","","","",""
"","","","","","html-keyboard-response","153","442186","0.0-153.0","621D0B67BBB041CFB69F8FEF77B3C67A","019cfa7f-7a4e-734f-bcf0-0356ca283fb5","019cfa3a-388e-72ab-ad58-bdeb258f96cd","","null","
                <div class=""stimulus-container"">
                    <img src=""images/semantic_sequence/kitchen_operations_semantic/kitchen_operations_semantic_6.png"" class=""exp-image"">
                    <div class=""question-area""></div> 
                </div>","null","","","","","","","","","","","",""
"","","","","","html-button-response","154","442951","0.0-154.0","621D0B67BBB041CFB69F8FEF77B3C67A","019cfa7f-7a4e-734f-bcf0-0356ca283fb5","019cfa3a-388e-72ab-ad58-bdeb258f96cd","","761","
                <div class=""stimulus-container"">
                    <img src=""images/semantic_sequence/kitchen_operations_semantic/kitchen_operations_semantic_6.png"" class=""exp-image"">
                    <div class=""question-area"">
                        <p style=""font-size: 20px; font-weight: bold; margin: 0;"">Is there a person in this image?</p>
                    </div>
                </div>","0","main_experiment_trial","6","kitchen_operations_semantic","semantic_sequence","chronological","","","","","","",""
"","","","","","html-keyboard-response","155","443953","0.0-155.0","621D0B67BBB041CFB69F8FEF77B3C67A","019cfa7f-7a4e-734f-bcf0-0356ca283fb5","019cfa3a-388e-72ab-ad58-bdeb258f96cd","","null","
                <div class=""stimulus-container"">
                    <img src=""images/semantic_sequence/kitchen_operations_semantic/kitchen_operations_semantic_7.png"" class=""exp-image"">
                    <div class=""question-area""></div> 
                </div>","null","","","","","","","","","","","",""
"","","","","","html-button-response","156","444728","0.0-156.0","621D0B67BBB041CFB69F8FEF77B3C67A","019cfa7f-7a4e-734f-bcf0-0356ca283fb5","019cfa3a-388e-72ab-ad58-bdeb258f96cd","","774","
                <div class=""stimulus-container"">
                    <img src=""images/semantic_sequence/kitchen_operations_semantic/kitchen_operations_semantic_7.png"" class=""exp-image"">
                    <div class=""question-area"">
                        <p style=""font-size: 20px; font-weight: bold; margin: 0;"">Is there a person in this image?</p>
                    </div>
                </div>","0","main_experiment_trial","7","kitchen_operations_semantic","semantic_sequence","chronological","","","","","","",""
"","","","","","html-keyboard-response","157","445730","0.0-157.0","621D0B67BBB041CFB69F8FEF77B3C67A","019cfa7f-7a4e-734f-bcf0-0356ca283fb5","019cfa3a-388e-72ab-ad58-bdeb258f96cd","","null","
                <div class=""stimulus-container"">
                    <img src=""images/semantic_sequence/kitchen_operations_semantic/kitchen_operations_semantic_8.png"" class=""exp-image"">
                    <div class=""question-area""></div> 
                </div>","null","","","","","","","","","","","",""
"","","","","","html-button-response","158","446434","0.0-158.0","621D0B67BBB041CFB69F8FEF77B3C67A","019cfa7f-7a4e-734f-bcf0-0356ca283fb5","019cfa3a-388e-72ab-ad58-bdeb258f96cd","","702","
                <div class=""stimulus-container"">
                    <img src=""images/semantic_sequence/kitchen_operations_semantic/kitchen_operations_semantic_8.png"" class=""exp-image"">
                    <div class=""question-area"">
                        <p style=""font-size: 20px; font-weight: bold; margin: 0;"">Is there a person in this image?</p>
                    </div>
                </div>","0","main_experiment_trial","8","kitchen_operations_semantic","semantic_sequence","chronological","","","","","","",""
"","","","","","html-keyboard-response","159","447436","0.0-159.0","621D0B67BBB041CFB69F8FEF77B3C67A","019cfa7f-7a4e-734f-bcf0-0356ca283fb5","019cfa3a-388e-72ab-ad58-bdeb258f96cd","","null","
                <div class=""stimulus-container"">
                    <img src=""images/semantic_sequence/kitchen_operations_semantic/kitchen_operations_semantic_9.png"" class=""exp-image"">
                    <div class=""question-area""></div> 
                </div>","null","","","","","","","","","","","",""
"","","","","","html-button-response","160","448169","0.0-160.0","621D0B67BBB041CFB69F8FEF77B3C67A","019cfa7f-7a4e-734f-bcf0-0356ca283fb5","019cfa3a-388e-72ab-ad58-bdeb258f96cd","","731","
                <div class=""stimulus-container"">
                    <img src=""images/semantic_sequence/kitchen_operations_semantic/kitchen_operations_semantic_9.png"" class=""exp-image"">
                    <div class=""question-area"">
                        <p style=""font-size: 20px; font-weight: bold; margin: 0;"">Is there a person in this image?</p>
                    </div>
                </div>","0","main_experiment_trial","9","kitchen_operations_semantic","semantic_sequence","chronological","","","","","","",""
"","","","","","html-keyboard-response","161","449172","0.0-161.0","621D0B67BBB041CFB69F8FEF77B3C67A","019cfa7f-7a4e-734f-bcf0-0356ca283fb5","019cfa3a-388e-72ab-ad58-bdeb258f96cd","","null","
                <div class=""stimulus-container"">
                    <img src=""images/semantic_sequence/kitchen_operations_semantic/kitchen_operations_semantic_ten.png"" class=""exp-image"">
                    <div class=""question-area""></div> 
                </div>","null","","","","","","","","","","","",""
"","","","","","html-button-response","162","449773","0.0-162.0","621D0B67BBB041CFB69F8FEF77B3C67A","019cfa7f-7a4e-734f-bcf0-0356ca283fb5","019cfa3a-388e-72ab-ad58-bdeb258f96cd","","599","
                <div class=""stimulus-container"">
                    <img src=""images/semantic_sequence/kitchen_operations_semantic/kitchen_operations_semantic_ten.png"" class=""exp-image"">
                    <div class=""question-area"">
                        <p style=""font-size: 20px; font-weight: bold; margin: 0;"">Is there a person in this image?</p>
                    </div>
                </div>","0","main_experiment_trial","ten","kitchen_operations_semantic","semantic_sequence","chronological","","","","","","",""
"","","","","","html-keyboard-response","163","454776","0.0-163.0","621D0B67BBB041CFB69F8FEF77B3C67A","019cfa7f-7a4e-734f-bcf0-0356ca283fb5","019cfa3a-388e-72ab-ad58-bdeb258f96cd","","null","<div style=""background-color: white; width: 100vw; height: 100vh;""></div>","null","","","","","","","","","","","",""
"","","","","","html-keyboard-response","164","455778","0.0-164.0","621D0B67BBB041CFB69F8FEF77B3C67A","019cfa7f-7a4e-734f-bcf0-0356ca283fb5","019cfa3a-388e-72ab-ad58-bdeb258f96cd","","null","
                <div class=""stimulus-container"">
                    <img src=""images/causal_sequence/dog_causal/dog_causal_1.png"" class=""exp-image"">
                    <div class=""question-area""></div> 
                </div>","null","","","","","","","","","","","",""
"","","","","","html-button-response","165","456279","0.0-165.0","621D0B67BBB041CFB69F8FEF77B3C67A","019cfa7f-7a4e-734f-bcf0-0356ca283fb5","019cfa3a-388e-72ab-ad58-bdeb258f96cd","","499","
                <div class=""stimulus-container"">
                    <img src=""images/causal_sequence/dog_causal/dog_causal_1.png"" class=""exp-image"">
                    <div class=""question-area"">
                        <p style=""font-size: 20px; font-weight: bold; margin: 0;"">Is there a person in this image?</p>
                    </div>
                </div>","0","main_experiment_trial","1","dog_causal","causal_sequence","chronological","","","","","","",""
"","","","","","html-keyboard-response","166","457282","0.0-166.0","621D0B67BBB041CFB69F8FEF77B3C67A","019cfa7f-7a4e-734f-bcf0-0356ca283fb5","019cfa3a-388e-72ab-ad58-bdeb258f96cd","","null","
                <div class=""stimulus-container"">
                    <img src=""images/causal_sequence/dog_causal/dog_causal_2.png"" class=""exp-image"">
                    <div class=""question-area""></div> 
                </div>","null","","","","","","","","","","","",""
"","","","","","html-button-response","167","457889","0.0-167.0","621D0B67BBB041CFB69F8FEF77B3C67A","019cfa7f-7a4e-734f-bcf0-0356ca283fb5","019cfa3a-388e-72ab-ad58-bdeb258f96cd","","605","
                <div class=""stimulus-container"">
                    <img src=""images/causal_sequence/dog_causal/dog_causal_2.png"" class=""exp-image"">
                    <div class=""question-area"">
                        <p style=""font-size: 20px; font-weight: bold; margin: 0;"">Is there a person in this image?</p>
                    </div>
                </div>","0","main_experiment_trial","2","dog_causal","causal_sequence","chronological","","","","","","",""
"","","","","","html-keyboard-response","168","458892","0.0-168.0","621D0B67BBB041CFB69F8FEF77B3C67A","019cfa7f-7a4e-734f-bcf0-0356ca283fb5","019cfa3a-388e-72ab-ad58-bdeb258f96cd","","null","
                <div class=""stimulus-container"">
                    <img src=""images/causal_sequence/dog_causal/dog_causal_3.png"" class=""exp-image"">
                    <div class=""question-area""></div> 
                </div>","null","","","","","","","","","","","",""
"","","","","","html-button-response","169","459547","0.0-169.0","621D0B67BBB041CFB69F8FEF77B3C67A","019cfa7f-7a4e-734f-bcf0-0356ca283fb5","019cfa3a-388e-72ab-ad58-bdeb258f96cd","","653","
                <div class=""stimulus-container"">
                    <img src=""images/causal_sequence/dog_causal/dog_causal_3.png"" class=""exp-image"">
                    <div class=""question-area"">
                        <p style=""font-size: 20px; font-weight: bold; margin: 0;"">Is there a person in this image?</p>
                    </div>
                </div>","0","main_experiment_trial","3","dog_causal","causal_sequence","chronological","","","","","","",""
"","","","","","html-keyboard-response","170","460550","0.0-170.0","621D0B67BBB041CFB69F8FEF77B3C67A","019cfa7f-7a4e-734f-bcf0-0356ca283fb5","019cfa3a-388e-72ab-ad58-bdeb258f96cd","","null","
                <div class=""stimulus-container"">
                    <img src=""images/causal_sequence/dog_causal/dog_causal_4.png"" class=""exp-image"">
                    <div class=""question-area""></div> 
                </div>","null","","","","","","","","","","","",""
"","","","","","html-button-response","171","461096","0.0-171.0","621D0B67BBB041CFB69F8FEF77B3C67A","019cfa7f-7a4e-734f-bcf0-0356ca283fb5","019cfa3a-388e-72ab-ad58-bdeb258f96cd","","543","
                <div class=""stimulus-container"">
                    <img src=""images/causal_sequence/dog_causal/dog_causal_4.png"" class=""exp-image"">
                    <div class=""question-area"">
                        <p style=""font-size: 20px; font-weight: bold; margin: 0;"">Is there a person in this image?</p>
                    </div>
                </div>","0","main_experiment_trial","4","dog_causal","causal_sequence","chronological","","","","","","",""
"","","","","","html-keyboard-response","172","462098","0.0-172.0","621D0B67BBB041CFB69F8FEF77B3C67A","019cfa7f-7a4e-734f-bcf0-0356ca283fb5","019cfa3a-388e-72ab-ad58-bdeb258f96cd","","null","
                <div class=""stimulus-container"">
                    <img src=""images/causal_sequence/dog_causal/dog_causal_5.png"" class=""exp-image"">
                    <div class=""question-area""></div> 
                </div>","null","","","","","","","","","","","",""
"","","","","","html-button-response","173","462771","0.0-173.0","621D0B67BBB041CFB69F8FEF77B3C67A","019cfa7f-7a4e-734f-bcf0-0356ca283fb5","019cfa3a-388e-72ab-ad58-bdeb258f96cd","","671","
                <div class=""stimulus-container"">
                    <img src=""images/causal_sequence/dog_causal/dog_causal_5.png"" class=""exp-image"">
                    <div class=""question-area"">
                        <p style=""font-size: 20px; font-weight: bold; margin: 0;"">Is there a person in this image?</p>
                    </div>
                </div>","0","main_experiment_trial","5","dog_causal","causal_sequence","chronological","","","","","","",""
"","","","","","html-keyboard-response","174","463774","0.0-174.0","621D0B67BBB041CFB69F8FEF77B3C67A","019cfa7f-7a4e-734f-bcf0-0356ca283fb5","019cfa3a-388e-72ab-ad58-bdeb258f96cd","","null","
                <div class=""stimulus-container"">
                    <img src=""images/causal_sequence/dog_causal/dog_causal_6.png"" class=""exp-image"">
                    <div class=""question-area""></div> 
                </div>","null","","","","","","","","","","","",""
"","","","","","html-button-response","175","464551","0.0-175.0","621D0B67BBB041CFB69F8FEF77B3C67A","019cfa7f-7a4e-734f-bcf0-0356ca283fb5","019cfa3a-388e-72ab-ad58-bdeb258f96cd","","775","
                <div class=""stimulus-container"">
                    <img src=""images/causal_sequence/dog_causal/dog_causal_6.png"" class=""exp-image"">
                    <div class=""question-area"">
                        <p style=""font-size: 20px; font-weight: bold; margin: 0;"">Is there a person in this image?</p>
                    </div>
