"success","timeout","failed_images","failed_audio","failed_video","trial_type","trial_index","time_elapsed","internal_node_id","view_history","rt","stimulus","response","task","folder","sequence_type","img_idx","value","version","comparison_type","block_story","block_info","left_path","right_path"
"true","false","[]","[]","[]","preload","0","468","0.0-0.0","","","","","","","","","","","","","","",""
"","","","","","instructions","1","3681","0.0-1.0","[{""page_index"":0,""viewing_time"":3212}]","3212","","","","","","","","","","","","",""
"","","","","","instructions","2","5911","0.0-2.0","[{""page_index"":0,""viewing_time"":2230}]","2230","","","","","","","","","","","","",""
"true","","","","","fullscreen","3","9256","0.0-3.0","","2344","","","","","","","","","","","","",""
"","","","","","instructions","4","13252","0.0-4.0","[{""page_index"":0,""viewing_time"":3995}]","3995","","","","","","","","","","","","",""
"","","","","","html-keyboard-response","5","15259","0.0-5.0","","null","<div class=""transition-square""></div>","null","","","","","","","","","","",""
"","","","","","html-keyboard-response","6","20275","0.0-6.0","","null","<div class=""stimulus-container""><img src=""images_story_vs_info/info_1_1.png"" class=""exp-image""><div class=""question-area""></div></div>","null","","","","","","","","","","",""
"","","","","","html-button-response","7","22414","0.0-7.0","","2139","<div class=""stimulus-container""><img src=""images_story_vs_info/info_1_1.png"" class=""exp-image""><div class=""question-area""><p style=""font-size: 20px; font-weight: bold; margin: 0;"">Is there a person in the description or image?</p></div></div>","1","observation","info_1","info","1","","","","","","",""
"","","","","","html-keyboard-response","8","27417","0.0-8.0","","null","<div class=""stimulus-container""><img src=""images_story_vs_info/info_1_2.png"" class=""exp-image""><div class=""question-area""></div></div>","null","","","","","","","","","","",""
"","","","","","html-button-response","9","30131","0.0-9.0","","2714","<div class=""stimulus-container""><img src=""images_story_vs_info/info_1_2.png"" class=""exp-image""><div class=""question-area""><p style=""font-size: 20px; font-weight: bold; margin: 0;"">Is there a person in the description or image?</p></div></div>","1","observation","info_1","info","2","","","","","","",""
"","","","","","html-keyboard-response","10","35138","0.0-10.0","","null","<div class=""stimulus-container""><img src=""images_story_vs_info/info_1_3.png"" class=""exp-image""><div class=""question-area""></div></div>","null","","","","","","","","","","",""
"","","","","","html-button-response","11","38149","0.0-11.0","","null","<div class=""stimulus-container""><img src=""images_story_vs_info/info_1_3.png"" class=""exp-image""><div class=""question-area""><p style=""font-size: 20px; font-weight: bold; margin: 0;"">Is there a person in the description or image?</p></div></div>","null","observation","info_1","info","3","","","","","","",""
"","","","","","html-keyboard-response","12","43164","0.0-12.0","","null","<div class=""stimulus-container""><img src=""images_story_vs_info/info_1_4.png"" class=""exp-image""><div class=""question-area""></div></div>","null","","","","","","","","","","",""
"","","","","","html-button-response","13","44007","0.0-13.0","","842","<div class=""stimulus-container""><img src=""images_story_vs_info/info_1_4.png"" class=""exp-image""><div class=""question-area""><p style=""font-size: 20px; font-weight: bold; margin: 0;"">Is there a person in the description or image?</p></div></div>","1","observation","info_1","info","4","","","","","","",""
"","","","","","html-keyboard-response","14","49013","0.0-14.0","","null","<div class=""stimulus-container""><img src=""images_story_vs_info/info_1_5.png"" class=""exp-image""><div class=""question-area""></div></div>","null","","","","","","","","","","",""
"","","","","","html-button-response","15","49761","0.0-15.0","","749","<div class=""stimulus-container""><img src=""images_story_vs_info/info_1_5.png"" class=""exp-image""><div class=""question-area""><p style=""font-size: 20px; font-weight: bold; margin: 0;"">Is there a person in the description or image?</p></div></div>","1","observation","info_1","info","5","","","","","","",""
"","","","","","html-keyboard-response","16","51764","0.0-16.0","","null","<div class=""transition-square""></div>","null","","","","","","","","","","",""
"","","","","","html-keyboard-response","17","56767","0.0-17.0","","null","<div class=""stimulus-container""><img src=""images_story_vs_info/story_2_1.png"" class=""exp-image""><div class=""question-area""></div></div>","null","","","","","","","","","","",""
"","","","","","html-button-response","18","57722","0.0-18.0","","954","<div class=""stimulus-container""><img src=""images_story_vs_info/story_2_1.png"" class=""exp-image""><div class=""question-area""><p style=""font-size: 20px; font-weight: bold; margin: 0;"">Is there a person in the description or image?</p></div></div>","0","observation","story_2","story","1","","","","","","",""
"","","","","","html-keyboard-response","19","62735","0.0-19.0","","null","<div class=""stimulus-container""><img src=""images_story_vs_info/story_2_2.png"" class=""exp-image""><div class=""question-area""></div></div>","null","","","","","","","","","","",""
"","","","","","html-button-response","20","64575","0.0-20.0","","1839","<div class=""stimulus-container""><img src=""images_story_vs_info/story_2_2.png"" class=""exp-image""><div class=""question-area""><p style=""font-size: 20px; font-weight: bold; margin: 0;"">Is there a person in the description or image?</p></div></div>","1","observation","story_2","story","2","","","","","","",""
"","","","","","html-keyboard-response","21","69577","0.0-21.0","","null","<div class=""stimulus-container""><img src=""images_story_vs_info/story_2_3.png"" class=""exp-image""><div class=""question-area""></div></div>","null","","","","","","","","","","",""
"","","","","","html-button-response","22","71027","0.0-22.0","","1450","<div class=""stimulus-container""><img src=""images_story_vs_info/story_2_3.png"" class=""exp-image""><div class=""question-area""><p style=""font-size: 20px; font-weight: bold; margin: 0;"">Is there a person in the description or image?</p></div></div>","1","observation","story_2","story","3","","","","","","",""
"","","","","","html-keyboard-response","23","76030","0.0-23.0","","null","<div class=""stimulus-container""><img src=""images_story_vs_info/story_2_4.png"" class=""exp-image""><div class=""question-area""></div></div>","null","","","","","","","","","","",""
"","","","","","html-button-response","24","76862","0.0-24.0","","832","<div class=""stimulus-container""><img src=""images_story_vs_info/story_2_4.png"" class=""exp-image""><div class=""question-area""><p style=""font-size: 20px; font-weight: bold; margin: 0;"">Is there a person in the description or image?</p></div></div>","1","observation","story_2","story","4","","","","","","",""
"","","","","","html-keyboard-response","25","81875","0.0-25.0","","null","<div class=""stimulus-container""><img src=""images_story_vs_info/story_2_5.png"" class=""exp-image""><div class=""question-area""></div></div>","null","","","","","","","","","","",""
"","","","","","html-button-response","26","82657","0.0-26.0","","782","<div class=""stimulus-container""><img src=""images_story_vs_info/story_2_5.png"" class=""exp-image""><div class=""question-area""><p style=""font-size: 20px; font-weight: bold; margin: 0;"">Is there a person in the description or image?</p></div></div>","1","observation","story_2","story","5","","","","","","",""
"","","","","","html-keyboard-response","27","84659","0.0-27.0","","null","<div class=""transition-square""></div>","null","","","","","","","","","","",""
"","","","","","html-keyboard-response","28","89668","0.0-28.0","","null","<div class=""stimulus-container""><img src=""images_story_vs_info/story_4_1.png"" class=""exp-image""><div class=""question-area""></div></div>","null","","","","","","","","","","",""
"","","","","","html-button-response","29","90863","0.0-29.0","","1195","<div class=""stimulus-container""><img src=""images_story_vs_info/story_4_1.png"" class=""exp-image""><div class=""question-area""><p style=""font-size: 20px; font-weight: bold; margin: 0;"">Is there a person in the description or image?</p></div></div>","1","observation","story_4","story","1","","","","","","",""
"","","","","","html-keyboard-response","30","95877","0.0-30.0","","null","<div class=""stimulus-container""><img src=""images_story_vs_info/story_4_2.png"" class=""exp-image""><div class=""question-area""></div></div>","null","","","","","","","","","","",""
"","","","","","html-button-response","31","96534","0.0-31.0","","656","<div class=""stimulus-container""><img src=""images_story_vs_info/story_4_2.png"" class=""exp-image""><div class=""question-area""><p style=""font-size: 20px; font-weight: bold; margin: 0;"">Is there a person in the description or image?</p></div></div>","0","observation","story_4","story","2","","","","","","",""
"","","","","","html-keyboard-response","32","101535","0.0-32.0","","null","<div class=""stimulus-container""><img src=""images_story_vs_info/story_4_3.png"" class=""exp-image""><div class=""question-area""></div></div>","null","","","","","","","","","","",""
"","","","","","html-button-response","33","102130","0.0-33.0","","595","<div class=""stimulus-container""><img src=""images_story_vs_info/story_4_3.png"" class=""exp-image""><div class=""question-area""><p style=""font-size: 20px; font-weight: bold; margin: 0;"">Is there a person in the description or image?</p></div></div>","0","observation","story_4","story","3","","","","","","",""
"","","","","","html-keyboard-response","34","107140","0.0-34.0","","null","<div class=""stimulus-container""><img src=""images_story_vs_info/story_4_4.png"" class=""exp-image""><div class=""question-area""></div></div>","null","","","","","","","","","","",""
"","","","","","html-button-response","35","107881","0.0-35.0","","741","<div class=""stimulus-container""><img src=""images_story_vs_info/story_4_4.png"" class=""exp-image""><div class=""question-area""><p style=""font-size: 20px; font-weight: bold; margin: 0;"">Is there a person in the description or image?</p></div></div>","0","observation","story_4","story","4","","","","","","",""
"","","","","","html-keyboard-response","36","112885","0.0-36.0","","null","<div class=""stimulus-container""><img src=""images_story_vs_info/story_4_5.png"" class=""exp-image""><div class=""question-area""></div></div>","null","","","","","","","","","","",""
"","","","","","html-button-response","37","114203","0.0-37.0","","1317","<div class=""stimulus-container""><img src=""images_story_vs_info/story_4_5.png"" class=""exp-image""><div class=""question-area""><p style=""font-size: 20px; font-weight: bold; margin: 0;"">Is there a person in the description or image?</p></div></div>","0","observation","story_4","story","5","","","","","","",""
"","","","","","html-keyboard-response","38","116214","0.0-38.0","","null","<div class=""transition-square""></div>","null","","","","","","","","","","",""
"","","","","","html-keyboard-response","39","121228","0.0-39.0","","null","<div class=""stimulus-container""><img src=""images_story_vs_info/info_3_1.png"" class=""exp-image""><div class=""question-area""></div></div>","null","","","","","","","","","","",""
"","","","","","html-button-response","40","121926","0.0-40.0","","697","<div class=""stimulus-container""><img src=""images_story_vs_info/info_3_1.png"" class=""exp-image""><div class=""question-area""><p style=""font-size: 20px; font-weight: bold; margin: 0;"">Is there a person in the description or image?</p></div></div>","1","observation","info_3","info","1","","","","","","",""
"","","","","","html-keyboard-response","41","126932","0.0-41.0","","null","<div class=""stimulus-container""><img src=""images_story_vs_info/info_3_2.png"" class=""exp-image""><div class=""question-area""></div></div>","null","","","","","","","","","","",""
"","","","","","html-button-response","42","128523","0.0-42.0","","1590","<div class=""stimulus-container""><img src=""images_story_vs_info/info_3_2.png"" class=""exp-image""><div class=""question-area""><p style=""font-size: 20px; font-weight: bold; margin: 0;"">Is there a person in the description or image?</p></div></div>","1","observation","info_3","info","2","","","","","","",""
"","","","","","html-keyboard-response","43","133526","0.0-43.0","","null","<div class=""stimulus-container""><img src=""images_story_vs_info/info_3_3.png"" class=""exp-image""><div class=""question-area""></div></div>","null","","","","","","","","","","",""
"","","","","","html-button-response","44","134306","0.0-44.0","","780","<div class=""stimulus-container""><img src=""images_story_vs_info/info_3_3.png"" class=""exp-image""><div class=""question-area""><p style=""font-size: 20px; font-weight: bold; margin: 0;"">Is there a person in the description or image?</p></div></div>","1","observation","info_3","info","3","","","","","","",""
"","","","","","html-keyboard-response","45","139310","0.0-45.0","","null","<div class=""stimulus-container""><img src=""images_story_vs_info/info_3_4.png"" class=""exp-image""><div class=""question-area""></div></div>","null","","","","","","","","","","",""
"","","","","","html-button-response","46","140548","0.0-46.0","","1238","<div class=""stimulus-container""><img src=""images_story_vs_info/info_3_4.png"" class=""exp-image""><div class=""question-area""><p style=""font-size: 20px; font-weight: bold; margin: 0;"">Is there a person in the description or image?</p></div></div>","0","observation","info_3","info","4","","","","","","",""
"","","","","","html-keyboard-response","47","145553","0.0-47.0","","null","<div class=""stimulus-container""><img src=""images_story_vs_info/info_3_5.png"" class=""exp-image""><div class=""question-area""></div></div>","null","","","","","","","","","","",""
"","","","","","html-button-response","48","146226","0.0-48.0","","672","<div class=""stimulus-container""><img src=""images_story_vs_info/info_3_5.png"" class=""exp-image""><div class=""question-area""><p style=""font-size: 20px; font-weight: bold; margin: 0;"">Is there a person in the description or image?</p></div></div>","1","observation","info_3","info","5","","","","","","",""
"","","","","","instructions","49","150416","0.0-49.0","[{""page_index"":0,""viewing_time"":4190}]","4190","","","","","","","","","","","","",""
"","","","","","html-button-response","50","152342","0.0-50.0","","1926","<div class=""stimulus-container""><p style=""font-family:Arial; font-size:20px;"">The event is reaching its end...</p><img src=""images_story_vs_info/info_1_5.png"" class=""exp-image""></div>","0","","","","","","","","","","",""
"","","","","","html-button-response","51","159680","0.0-51.0","","7337","<div class=""stimulus-container""><p style=""font-family:Arial; font-size:20px;"">The outcome:</p><img src=""images_story_vs_info/info_1_6_b.png"" class=""exp-image""><div class=""value-tag val-low"">This outcome is worth: $0</div></div>","0","learning","info_1","","","$0","b","","","","",""
"","","","","","html-button-response","52","160968","0.0-52.0","","1288","<div class=""stimulus-container""><p style=""font-family:Arial; font-size:20px;"">The event is reaching its end...</p><img src=""images_story_vs_info/story_4_5.png"" class=""exp-image""></div>","0","","","","","","","","","","",""
"","","","","","html-button-response","53","167342","0.0-53.0","","6374","<div class=""stimulus-container""><p style=""font-family:Arial; font-size:20px;"">The outcome:</p><img src=""images_story_vs_info/story_4_6_b.png"" class=""exp-image""><div class=""value-tag val-low"">This outcome is worth: $0</div></div>","0","learning","story_4","","","$0","b","","","","",""
"","","","","","html-button-response","54","168517","0.0-54.0","","1174","<div class=""stimulus-container""><p style=""font-family:Arial; font-size:20px;"">The event is reaching its end...</p><img src=""images_story_vs_info/info_3_5.png"" class=""exp-image""></div>","0","","","","","","","","","","",""
"","","","","","html-button-response","55","174815","0.0-55.0","","6298","<div class=""stimulus-container""><p style=""font-family:Arial; font-size:20px;"">The outcome:</p><img src=""images_story_vs_info/info_3_6_a.png"" class=""exp-image""><div class=""value-tag val-high"">This outcome is worth: $100</div></div>","0","learning","info_3","","","$100","a","","","","",""
"","","","","","html-button-response","56","175538","0.0-56.0","","723","<div class=""stimulus-container""><p style=""font-family:Arial; font-size:20px;"">The event is reaching its end...</p><img src=""images_story_vs_info/story_2_5.png"" class=""exp-image""></div>","0","","","","","","","","","","",""
"","","","","","html-button-response","57","181902","0.0-57.0","","6363","<div class=""stimulus-container""><p style=""font-family:Arial; font-size:20px;"">The outcome:</p><img src=""images_story_vs_info/story_2_6_a.png"" class=""exp-image""><div class=""value-tag val-high"">This outcome is worth: $100</div></div>","0","learning","story_2","","","$100","a","","","","",""
"","","","","","instructions","58","184968","0.0-58.0","[{""page_index"":0,""viewing_time"":3066}]","3066","","","","","","","","","","","","",""
"","","","","","html-button-response","59","189439","0.0-59.0","","4470","
                <div style=""font-family: Arial; margin-bottom: 20px;""><h3>Which image is worth <b>more money</b>?</h3></div>
                <div class=""stimulus-container"" style=""display: flex; flex-direction: row; width: 800px; justify-content: center; gap: 30px;"">
                    <img src=""images_story_vs_info/story_2_4.png"" class=""small-image"">
                    <img src=""images_story_vs_info/info_3_4.png"" class=""small-image"">
                </div>","0","choice_comparison","","","4","","","Valuable_Story_vs_Info","story_2","info_3","images_story_vs_info/story_2_4.png","images_story_vs_info/info_3_4.png"
"","","","","","html-button-response","60","191481","0.0-60.0","","2041","
                <div style=""font-family: Arial; margin-bottom: 20px;""><h3>Which image is worth <b>more money</b>?</h3></div>
                <div class=""stimulus-container"" style=""display: flex; flex-direction: row; width: 800px; justify-content: center; gap: 30px;"">
                    <img src=""images_story_vs_info/story_4_6_b.png"" class=""small-image"">
                    <img src=""images_story_vs_info/info_1_6_b.png"" class=""small-image"">
                </div>","0","choice_comparison","","","6","","","Neutral_Story_vs_Info","story_4","info_1","images_story_vs_info/story_4_6_b.png","images_story_vs_info/info_1_6_b.png"
"","","","","","html-button-response","61","194180","0.0-61.0","","2699","
                <div style=""font-family: Arial; margin-bottom: 20px;""><h3>Which image is worth <b>more money</b>?</h3></div>
                <div class=""stimulus-container"" style=""display: flex; flex-direction: row; width: 800px; justify-content: center; gap: 30px;"">
                    <img src=""images_story_vs_info/info_3_2.png"" class=""small-image"">
                    <img src=""images_story_vs_info/story_2_2.png"" class=""small-image"">
                </div>","0","choice_comparison","","","2","","","Valuable_Story_vs_Info","story_2","info_3","images_story_vs_info/info_3_2.png","images_story_vs_info/story_2_2.png"
"","","","","","html-button-response","62","196276","0.0-62.0","","2096","
                <div style=""font-family: Arial; margin-bottom: 20px;""><h3>Which image is worth <b>more money</b>?</h3></div>
                <div class=""stimulus-container"" style=""display: flex; flex-direction: row; width: 800px; justify-content: center; gap: 30px;"">
                    <img src=""images_story_vs_info/info_1_4.png"" class=""small-image"">
                    <img src=""images_story_vs_info/story_4_4.png"" class=""small-image"">
                </div>","1","choice_comparison","","","4","","","Neutral_Story_vs_Info","story_4","info_1","images_story_vs_info/info_1_4.png","images_story_vs_info/story_4_4.png"
"","","","","","html-button-response","63","198638","0.0-63.0","","2361","
                <div style=""font-family: Arial; margin-bottom: 20px;""><h3>Which image is worth <b>more money</b>?</h3></div>
                <div class=""stimulus-container"" style=""display: flex; flex-direction: row; width: 800px; justify-content: center; gap: 30px;"">
                    <img src=""images_story_vs_info/info_1_1.png"" class=""small-image"">
                    <img src=""images_story_vs_info/story_4_1.png"" class=""small-image"">
                </div>","1","choice_comparison","","","1","","","Neutral_Story_vs_Info","story_4","info_1","images_story_vs_info/info_1_1.png","images_story_vs_info/story_4_1.png"
"","","","","","html-button-response","64","201946","0.0-64.0","","3308","
                <div style=""font-family: Arial; margin-bottom: 20px;""><h3>Which image is worth <b>more money</b>?</h3></div>
                <div class=""stimulus-container"" style=""display: flex; flex-direction: row; width: 800px; justify-content: center; gap: 30px;"">
                    <img src=""images_story_vs_info/info_3_6_b.png"" class=""small-image"">
                    <img src=""images_story_vs_info/story_2_6_b.png"" class=""small-image"">
                </div>","1","choice_comparison","","","6","","","Valuable_Story_vs_Info","story_2","info_3","images_story_vs_info/info_3_6_b.png","images_story_vs_info/story_2_6_b.png"
"","","","","","html-button-response","65","204807","0.0-65.0","","2860","
                <div style=""font-family: Arial; margin-bottom: 20px;""><h3>Which image is worth <b>more money</b>?</h3></div>
                <div class=""stimulus-container"" style=""display: flex; flex-direction: row; width: 800px; justify-content: center; gap: 30px;"">
                    <img src=""images_story_vs_info/story_4_2.png"" class=""small-image"">
                    <img src=""images_story_vs_info/info_1_2.png"" class=""small-image"">
                </div>","0","choice_comparison","","","2","","","Neutral_Story_vs_Info","story_4","info_1","images_story_vs_info/story_4_2.png","images_story_vs_info/info_1_2.png"
"","","","","","html-button-response","66","207158","0.0-66.0","","2351","
                <div style=""font-family: Arial; margin-bottom: 20px;""><h3>Which image is worth <b>more money</b>?</h3></div>
                <div class=""stimulus-container"" style=""display: flex; flex-direction: row; width: 800px; justify-content: center; gap: 30px;"">
                    <img src=""images_story_vs_info/story_2_3.png"" class=""small-image"">
                    <img src=""images_story_vs_info/info_3_3.png"" class=""small-image"">
                </div>","1","choice_comparison","","","3","","","Valuable_Story_vs_Info","story_2","info_3","images_story_vs_info/story_2_3.png","images_story_vs_info/info_3_3.png"
"","","","","","html-button-response","67","208669","0.0-67.0","","1510","
                <div style=""font-family: Arial; margin-bottom: 20px;""><h3>Which image is worth <b>more money</b>?</h3></div>
                <div class=""stimulus-container"" style=""display: flex; flex-direction: row; width: 800px; justify-content: center; gap: 30px;"">
                    <img src=""images_story_vs_info/info_1_5.png"" class=""small-image"">
                    <img src=""images_story_vs_info/story_4_5.png"" class=""small-image"">
                </div>","1","choice_comparison","","","5","","","Neutral_Story_vs_Info","story_4","info_1","images_story_vs_info/info_1_5.png","images_story_vs_info/story_4_5.png"
"","","","","","html-button-response","68","210277","0.0-68.0","","1608","
                <div style=""font-family: Arial; margin-bottom: 20px;""><h3>Which image is worth <b>more money</b>?</h3></div>
                <div class=""stimulus-container"" style=""display: flex; flex-direction: row; width: 800px; justify-content: center; gap: 30px;"">
                    <img src=""images_story_vs_info/info_3_1.png"" class=""small-image"">
                    <img src=""images_story_vs_info/story_2_1.png"" class=""small-image"">
                </div>","0","choice_comparison","","","1","","","Valuable_Story_vs_Info","story_2","info_3","images_story_vs_info/info_3_1.png","images_story_vs_info/story_2_1.png"
"","","","","","html-button-response","69","211748","0.0-69.0","","1471","
                <div style=""font-family: Arial; margin-bottom: 20px;""><h3>Which image is worth <b>more money</b>?</h3></div>
                <div class=""stimulus-container"" style=""display: flex; flex-direction: row; width: 800px; justify-content: center; gap: 30px;"">
                    <img src=""images_story_vs_info/info_3_5.png"" class=""small-image"">
                    <img src=""images_story_vs_info/story_2_5.png"" class=""small-image"">
                </div>","0","choice_comparison","","","5","","","Valuable_Story_vs_Info","story_2","info_3","images_story_vs_info/info_3_5.png","images_story_vs_info/story_2_5.png"
"","","","","","html-button-response","70","213338","0.0-70.0","","1589","
                <div style=""font-family: Arial; margin-bottom: 20px;""><h3>Which image is worth <b>more money</b>?</h3></div>
                <div class=""stimulus-container"" style=""display: flex; flex-direction: row; width: 800px; justify-content: center; gap: 30px;"">
                    <img src=""images_story_vs_info/info_1_3.png"" class=""small-image"">
                    <img src=""images_story_vs_info/story_4_3.png"" class=""small-image"">
                </div>","0","choice_comparison","","","3","","","Neutral_Story_vs_Info","story_4","info_1","images_story_vs_info/info_1_3.png","images_story_vs_info/story_4_3.png"
"","","","","","survey-text","71","246173","0.0-71.0","","32833","","{""choice_strategy"":""My strategy was picking the items that are objectively worth more money. "",""gender"":""male "",""age"":""24""}","","","","","","","","","","",""
"","","","","","instructions","72","251007","0.0-72.0","[{""page_index"":0,""viewing_time"":4834}]","4834","","","","","","","","","","","","",""
