"success","timeout","failed_images","failed_audio","failed_video","trial_type","trial_index","time_elapsed","internal_node_id","subject_id","study_id","session_id","view_history","rt","stimulus","response","task","image_index","folder","valuable_image_index","valuable_X","chosen_image_index","distance_from_X"
"false","false","[]","[]","[]","preload","0","11041","0.0-0.0","EE2832D62B2C48C49D222C6B09F06DB2","019ce7b5-8c4a-711f-b49a-199db19ef428","019ce7a0-0965-7aa7-a556-174d32a8e773","","","","","","","","","","",""
"","","","","","instructions","1","12425","0.0-1.0","EE2832D62B2C48C49D222C6B09F06DB2","019ce7b5-8c4a-711f-b49a-199db19ef428","019ce7a0-0965-7aa7-a556-174d32a8e773","[{""page_index"":0,""viewing_time"":1384}]","1384","","","","","","","","",""
"","","","","","instructions","2","48450","0.0-2.0","EE2832D62B2C48C49D222C6B09F06DB2","019ce7b5-8c4a-711f-b49a-199db19ef428","019ce7a0-0965-7aa7-a556-174d32a8e773","[{""page_index"":0,""viewing_time"":36022}]","36023","","","","","","","","",""
"true","","","","","fullscreen","3","51201","0.0-3.0","EE2832D62B2C48C49D222C6B09F06DB2","019ce7b5-8c4a-711f-b49a-199db19ef428","019ce7a0-0965-7aa7-a556-174d32a8e773","","1747","","","","","","","","",""
"","","","","","instructions","4","53002","0.0-4.0","EE2832D62B2C48C49D222C6B09F06DB2","019ce7b5-8c4a-711f-b49a-199db19ef428","019ce7a0-0965-7aa7-a556-174d32a8e773","[{""page_index"":0,""viewing_time"":1800}]","1801","","","","","","","","",""
"","","","","","instructions","5","55138","0.0-5.0","EE2832D62B2C48C49D222C6B09F06DB2","019ce7b5-8c4a-711f-b49a-199db19ef428","019ce7a0-0965-7aa7-a556-174d32a8e773","[{""page_index"":0,""viewing_time"":2136}]","2136","","","","","","","","",""
"","","","","","html-keyboard-response","6","59141","0.0-6.0","EE2832D62B2C48C49D222C6B09F06DB2","019ce7b5-8c4a-711f-b49a-199db19ef428","019ce7a0-0965-7aa7-a556-174d32a8e773","","null","
                <div class=""stimulus-container"">
                    <img src=""images/instructions/movie_1.png"" class=""exp-image"">
                    <div class=""question-area""></div> 
                </div>","null","","","","","","",""
"","","","","","html-button-response","7","61486","0.0-7.0","EE2832D62B2C48C49D222C6B09F06DB2","019ce7b5-8c4a-711f-b49a-199db19ef428","019ce7a0-0965-7aa7-a556-174d32a8e773","","2344","
                <div class=""stimulus-container"">
                    <img src=""images/instructions/movie_1.png"" class=""exp-image"">
                    <div class=""question-area"">
                        <p style=""font-size: 20px; font-weight: bold; margin: 0;"">Was there a person in this image?</p>
                    </div>
                </div>","0","example_question","1","","","","",""
"","","","","","html-keyboard-response","8","65496","0.0-8.0","EE2832D62B2C48C49D222C6B09F06DB2","019ce7b5-8c4a-711f-b49a-199db19ef428","019ce7a0-0965-7aa7-a556-174d32a8e773","","null","
                <div class=""stimulus-container"">
                    <img src=""images/instructions/movie_2.png"" class=""exp-image"">
                    <div class=""question-area""></div> 
                </div>","null","","","","","","",""
"","","","","","html-button-response","9","67441","0.0-9.0","EE2832D62B2C48C49D222C6B09F06DB2","019ce7b5-8c4a-711f-b49a-199db19ef428","019ce7a0-0965-7aa7-a556-174d32a8e773","","1945","
                <div class=""stimulus-container"">
                    <img src=""images/instructions/movie_2.png"" class=""exp-image"">
                    <div class=""question-area"">
                        <p style=""font-size: 20px; font-weight: bold; margin: 0;"">Was there a person in this image?</p>
                    </div>
                </div>","0","example_question","2","","","","",""
"","","","","","html-keyboard-response","10","71444","0.0-10.0","EE2832D62B2C48C49D222C6B09F06DB2","019ce7b5-8c4a-711f-b49a-199db19ef428","019ce7a0-0965-7aa7-a556-174d32a8e773","","null","
                <div class=""stimulus-container"">
                    <img src=""images/instructions/movie_3.png"" class=""exp-image"">
                    <div class=""question-area""></div> 
                </div>","null","","","","","","",""
"","","","","","html-button-response","11","73014","0.0-11.0","EE2832D62B2C48C49D222C6B09F06DB2","019ce7b5-8c4a-711f-b49a-199db19ef428","019ce7a0-0965-7aa7-a556-174d32a8e773","","1569","
                <div class=""stimulus-container"">
                    <img src=""images/instructions/movie_3.png"" class=""exp-image"">
                    <div class=""question-area"">
                        <p style=""font-size: 20px; font-weight: bold; margin: 0;"">Was there a person in this image?</p>
                    </div>
                </div>","0","example_question","3","","","","",""
"","","","","","html-keyboard-response","12","77019","0.0-12.0","EE2832D62B2C48C49D222C6B09F06DB2","019ce7b5-8c4a-711f-b49a-199db19ef428","019ce7a0-0965-7aa7-a556-174d32a8e773","","null","
                <div class=""stimulus-container"">
                    <img src=""images/instructions/movie_4.png"" class=""exp-image"">
                    <div class=""question-area""></div> 
                </div>","null","","","","","","",""
"","","","","","html-button-response","13","78213","0.0-13.0","EE2832D62B2C48C49D222C6B09F06DB2","019ce7b5-8c4a-711f-b49a-199db19ef428","019ce7a0-0965-7aa7-a556-174d32a8e773","","1193","
                <div class=""stimulus-container"">
                    <img src=""images/instructions/movie_4.png"" class=""exp-image"">
                    <div class=""question-area"">
                        <p style=""font-size: 20px; font-weight: bold; margin: 0;"">Was there a person in this image?</p>
                    </div>
                </div>","0","example_question","4","","","","",""
"","","","","","instructions","14","79714","0.0-14.0","EE2832D62B2C48C49D222C6B09F06DB2","019ce7b5-8c4a-711f-b49a-199db19ef428","019ce7a0-0965-7aa7-a556-174d32a8e773","[{""page_index"":0,""viewing_time"":1501}]","1501","","","","","","","","",""
"","","","","","html-keyboard-response","15","80725","0.0-15.0","EE2832D62B2C48C49D222C6B09F06DB2","019ce7b5-8c4a-711f-b49a-199db19ef428","019ce7a0-0965-7aa7-a556-174d32a8e773","","null","<div style=""background-color: gray; width: 100vw; height: 100vh;""></div>","null","","","","","","",""
"","","","","","html-keyboard-response","16","85728","0.0-16.0","EE2832D62B2C48C49D222C6B09F06DB2","019ce7b5-8c4a-711f-b49a-199db19ef428","019ce7a0-0965-7aa7-a556-174d32a8e773","","null","
                    <div class=""stimulus-container"">
                        <img src=""images/causal_sequence/dog_causal/dog_causal_1.png"" class=""exp-image"">
                        <div class=""question-area""></div> 
                    </div>","null","","","","","","",""
"","","","","","html-button-response","17","88744","0.0-17.0","EE2832D62B2C48C49D222C6B09F06DB2","019ce7b5-8c4a-711f-b49a-199db19ef428","019ce7a0-0965-7aa7-a556-174d32a8e773","","null","
                    <div class=""stimulus-container"">
                        <img src=""images/causal_sequence/dog_causal/dog_causal_1.png"" class=""exp-image"">
                        <div class=""question-area"">
                            <p style=""font-size: 20px; font-weight: bold; margin: 0;"">Is there a person in this image?</p>
                        </div>
                    </div>","null","main_causal_task","1","dog_causal","","","",""
"","","","","","html-keyboard-response","18","94356","0.0-18.0","EE2832D62B2C48C49D222C6B09F06DB2","019ce7b5-8c4a-711f-b49a-199db19ef428","019ce7a0-0965-7aa7-a556-174d32a8e773","","null","
                    <div class=""stimulus-container"">
                        <img src=""images/causal_sequence/dog_causal/dog_causal_2.png"" class=""exp-image"">
                        <div class=""question-area""></div> 
                    </div>","null","","","","","","",""
"","","","","","html-button-response","19","97368","0.0-19.0","EE2832D62B2C48C49D222C6B09F06DB2","019ce7b5-8c4a-711f-b49a-199db19ef428","019ce7a0-0965-7aa7-a556-174d32a8e773","","null","
                    <div class=""stimulus-container"">
                        <img src=""images/causal_sequence/dog_causal/dog_causal_2.png"" class=""exp-image"">
                        <div class=""question-area"">
                            <p style=""font-size: 20px; font-weight: bold; margin: 0;"">Is there a person in this image?</p>
                        </div>
                    </div>","null","main_causal_task","2","dog_causal","","","",""
"","","","","","html-keyboard-response","20","102378","0.0-20.0","EE2832D62B2C48C49D222C6B09F06DB2","019ce7b5-8c4a-711f-b49a-199db19ef428","019ce7a0-0965-7aa7-a556-174d32a8e773","","null","
                    <div class=""stimulus-container"">
                        <img src=""images/causal_sequence/dog_causal/dog_causal_3.png"" class=""exp-image"">
                        <div class=""question-area""></div> 
                    </div>","null","","","","","","",""
"","","","","","html-button-response","21","103420","0.0-21.0","EE2832D62B2C48C49D222C6B09F06DB2","019ce7b5-8c4a-711f-b49a-199db19ef428","019ce7a0-0965-7aa7-a556-174d32a8e773","","1042","
                    <div class=""stimulus-container"">
                        <img src=""images/causal_sequence/dog_causal/dog_causal_3.png"" class=""exp-image"">
                        <div class=""question-area"">
                            <p style=""font-size: 20px; font-weight: bold; margin: 0;"">Is there a person in this image?</p>
                        </div>
                    </div>","0","main_causal_task","3","dog_causal","","","",""
"","","","","","html-keyboard-response","22","108429","0.0-22.0","EE2832D62B2C48C49D222C6B09F06DB2","019ce7b5-8c4a-711f-b49a-199db19ef428","019ce7a0-0965-7aa7-a556-174d32a8e773","","null","
                    <div class=""stimulus-container"">
                        <img src=""images/causal_sequence/dog_causal/dog_causal_4.png"" class=""exp-image"">
                        <div class=""question-area""></div> 
                    </div>","null","","","","","","",""
"","","","","","html-button-response","23","109353","0.0-23.0","EE2832D62B2C48C49D222C6B09F06DB2","019ce7b5-8c4a-711f-b49a-199db19ef428","019ce7a0-0965-7aa7-a556-174d32a8e773","","923","
                    <div class=""stimulus-container"">
                        <img src=""images/causal_sequence/dog_causal/dog_causal_4.png"" class=""exp-image"">
                        <div class=""question-area"">
                            <p style=""font-size: 20px; font-weight: bold; margin: 0;"">Is there a person in this image?</p>
                        </div>
                    </div>","0","main_causal_task","4","dog_causal","","","",""
"","","","","","html-keyboard-response","24","114364","0.0-24.0","EE2832D62B2C48C49D222C6B09F06DB2","019ce7b5-8c4a-711f-b49a-199db19ef428","019ce7a0-0965-7aa7-a556-174d32a8e773","","null","
                    <div class=""stimulus-container"">
                        <img src=""images/causal_sequence/dog_causal/dog_causal_5.png"" class=""exp-image"">
                        <div class=""question-area""></div> 
                    </div>","null","","","","","","",""
"","","","","","html-button-response","25","115289","0.0-25.0","EE2832D62B2C48C49D222C6B09F06DB2","019ce7b5-8c4a-711f-b49a-199db19ef428","019ce7a0-0965-7aa7-a556-174d32a8e773","","925","
                    <div class=""stimulus-container"">
                        <img src=""images/causal_sequence/dog_causal/dog_causal_5.png"" class=""exp-image"">
                        <div class=""question-area"">
                            <p style=""font-size: 20px; font-weight: bold; margin: 0;"">Is there a person in this image?</p>
                        </div>
                    </div>","0","main_causal_task","5","dog_causal","","","",""
"","","","","","html-keyboard-response","26","120298","0.0-26.0","EE2832D62B2C48C49D222C6B09F06DB2","019ce7b5-8c4a-711f-b49a-199db19ef428","019ce7a0-0965-7aa7-a556-174d32a8e773","","null","
                    <div class=""stimulus-container"">
                        <img src=""images/causal_sequence/dog_causal/dog_causal_6.png"" class=""exp-image"">
                        <div class=""question-area""></div> 
                    </div>","null","","","","","","",""
"","","","","","html-button-response","27","121137","0.0-27.0","EE2832D62B2C48C49D222C6B09F06DB2","019ce7b5-8c4a-711f-b49a-199db19ef428","019ce7a0-0965-7aa7-a556-174d32a8e773","","838","
                    <div class=""stimulus-container"">
                        <img src=""images/causal_sequence/dog_causal/dog_causal_6.png"" class=""exp-image"">
                        <div class=""question-area"">
                            <p style=""font-size: 20px; font-weight: bold; margin: 0;"">Is there a person in this image?</p>
                        </div>
                    </div>","0","main_causal_task","6","dog_causal","","","",""
"","","","","","html-keyboard-response","28","126151","0.0-28.0","EE2832D62B2C48C49D222C6B09F06DB2","019ce7b5-8c4a-711f-b49a-199db19ef428","019ce7a0-0965-7aa7-a556-174d32a8e773","","null","
                    <div class=""stimulus-container"">
                        <img src=""images/causal_sequence/dog_causal/dog_causal_7.png"" class=""exp-image"">
                        <div class=""question-area""></div> 
                    </div>","null","","","","","","",""
"","","","","","html-button-response","29","127325","0.0-29.0","EE2832D62B2C48C49D222C6B09F06DB2","019ce7b5-8c4a-711f-b49a-199db19ef428","019ce7a0-0965-7aa7-a556-174d32a8e773","","1172","
                    <div class=""stimulus-container"">
                        <img src=""images/causal_sequence/dog_causal/dog_causal_7.png"" class=""exp-image"">
                        <div class=""question-area"">
                            <p style=""font-size: 20px; font-weight: bold; margin: 0;"">Is there a person in this image?</p>
                        </div>
                    </div>","0","main_causal_task","7","dog_causal","","","",""
"","","","","","html-keyboard-response","30","132335","0.0-30.0","EE2832D62B2C48C49D222C6B09F06DB2","019ce7b5-8c4a-711f-b49a-199db19ef428","019ce7a0-0965-7aa7-a556-174d32a8e773","","null","
                    <div class=""stimulus-container"">
                        <img src=""images/causal_sequence/dog_causal/dog_causal_8.png"" class=""exp-image"">
                        <div class=""question-area""></div> 
                    </div>","null","","","","","","",""
"","","","","","html-button-response","31","133512","0.0-31.0","EE2832D62B2C48C49D222C6B09F06DB2","019ce7b5-8c4a-711f-b49a-199db19ef428","019ce7a0-0965-7aa7-a556-174d32a8e773","","1176","
                    <div class=""stimulus-container"">
                        <img src=""images/causal_sequence/dog_causal/dog_causal_8.png"" class=""exp-image"">
                        <div class=""question-area"">
                            <p style=""font-size: 20px; font-weight: bold; margin: 0;"">Is there a person in this image?</p>
                        </div>
                    </div>","0","main_causal_task","8","dog_causal","","","",""
"","","","","","html-keyboard-response","32","138514","0.0-32.0","EE2832D62B2C48C49D222C6B09F06DB2","019ce7b5-8c4a-711f-b49a-199db19ef428","019ce7a0-0965-7aa7-a556-174d32a8e773","","null","
                    <div class=""stimulus-container"">
                        <img src=""images/causal_sequence/dog_causal/dog_causal_9.png"" class=""exp-image"">
                        <div class=""question-area""></div> 
                    </div>","null","","","","","","",""
"","","","","","html-button-response","33","139789","0.0-33.0","EE2832D62B2C48C49D222C6B09F06DB2","019ce7b5-8c4a-711f-b49a-199db19ef428","019ce7a0-0965-7aa7-a556-174d32a8e773","","1274","
                    <div class=""stimulus-container"">
                        <img src=""images/causal_sequence/dog_causal/dog_causal_9.png"" class=""exp-image"">
                        <div class=""question-area"">
                            <p style=""font-size: 20px; font-weight: bold; margin: 0;"">Is there a person in this image?</p>
                        </div>
                    </div>","0","main_causal_task","9","dog_causal","","","",""
"","","","","","html-keyboard-response","34","140804","0.0-34.0","EE2832D62B2C48C49D222C6B09F06DB2","019ce7b5-8c4a-711f-b49a-199db19ef428","019ce7a0-0965-7aa7-a556-174d32a8e773","","null","<div style=""background-color: gray; width: 100vw; height: 100vh;""></div>","null","","","","","","",""
"","","","","","html-keyboard-response","35","145809","0.0-35.0","EE2832D62B2C48C49D222C6B09F06DB2","019ce7b5-8c4a-711f-b49a-199db19ef428","019ce7a0-0965-7aa7-a556-174d32a8e773","","null","
                    <div class=""stimulus-container"">
                        <img src=""images/causal_sequence/the_performance_causal/the_performance_causal_1.png"" class=""exp-image"">
                        <div class=""question-area""></div> 
                    </div>","null","","","","","","",""
"","","","","","html-button-response","36","146817","0.0-36.0","EE2832D62B2C48C49D222C6B09F06DB2","019ce7b5-8c4a-711f-b49a-199db19ef428","019ce7a0-0965-7aa7-a556-174d32a8e773","","1007","
                    <div class=""stimulus-container"">
                        <img src=""images/causal_sequence/the_performance_causal/the_performance_causal_1.png"" class=""exp-image"">
                        <div class=""question-area"">
                            <p style=""font-size: 20px; font-weight: bold; margin: 0;"">Is there a person in this image?</p>
                        </div>
                    </div>","0","main_causal_task","1","the_performance_causal","","","",""
"","","","","","html-keyboard-response","37","151828","0.0-37.0","EE2832D62B2C48C49D222C6B09F06DB2","019ce7b5-8c4a-711f-b49a-199db19ef428","019ce7a0-0965-7aa7-a556-174d32a8e773","","null","
                    <div class=""stimulus-container"">
                        <img src=""images/causal_sequence/the_performance_causal/the_performance_causal_2.png"" class=""exp-image"">
                        <div class=""question-area""></div> 
                    </div>","null","","","","","","",""
"","","","","","html-button-response","38","152901","0.0-38.0","EE2832D62B2C48C49D222C6B09F06DB2","019ce7b5-8c4a-711f-b49a-199db19ef428","019ce7a0-0965-7aa7-a556-174d32a8e773","","1072","
                    <div class=""stimulus-container"">
                        <img src=""images/causal_sequence/the_performance_causal/the_performance_causal_2.png"" class=""exp-image"">
                        <div class=""question-area"">
                            <p style=""font-size: 20px; font-weight: bold; margin: 0;"">Is there a person in this image?</p>
                        </div>
                    </div>","0","main_causal_task","2","the_performance_causal","","","",""
"","","","","","html-keyboard-response","39","157913","0.0-39.0","EE2832D62B2C48C49D222C6B09F06DB2","019ce7b5-8c4a-711f-b49a-199db19ef428","019ce7a0-0965-7aa7-a556-174d32a8e773","","null","
                    <div class=""stimulus-container"">
                        <img src=""images/causal_sequence/the_performance_causal/the_performance_causal_3.png"" class=""exp-image"">
                        <div class=""question-area""></div> 
                    </div>","null","","","","","","",""
"","","","","","html-button-response","40","158787","0.0-40.0","EE2832D62B2C48C49D222C6B09F06DB2","019ce7b5-8c4a-711f-b49a-199db19ef428","019ce7a0-0965-7aa7-a556-174d32a8e773","","873","
                    <div class=""stimulus-container"">
                        <img src=""images/causal_sequence/the_performance_causal/the_performance_causal_3.png"" class=""exp-image"">
                        <div class=""question-area"">
                            <p style=""font-size: 20px; font-weight: bold; margin: 0;"">Is there a person in this image?</p>
                        </div>
                    </div>","0","main_causal_task","3","the_performance_causal","","","",""
"","","","","","html-keyboard-response","41","163793","0.0-41.0","EE2832D62B2C48C49D222C6B09F06DB2","019ce7b5-8c4a-711f-b49a-199db19ef428","019ce7a0-0965-7aa7-a556-174d32a8e773","","null","
                    <div class=""stimulus-container"">
                        <img src=""images/causal_sequence/the_performance_causal/the_performance_causal_4.png"" class=""exp-image"">
                        <div class=""question-area""></div> 
                    </div>","null","","","","","","",""
"","","","","","html-button-response","42","164762","0.0-42.0","EE2832D62B2C48C49D222C6B09F06DB2","019ce7b5-8c4a-711f-b49a-199db19ef428","019ce7a0-0965-7aa7-a556-174d32a8e773","","968","
                    <div class=""stimulus-container"">
                        <img src=""images/causal_sequence/the_performance_causal/the_performance_causal_4.png"" class=""exp-image"">
                        <div class=""question-area"">
                            <p style=""font-size: 20px; font-weight: bold; margin: 0;"">Is there a person in this image?</p>
                        </div>
                    </div>","0","main_causal_task","4","the_performance_causal","","","",""
"","","","","","html-keyboard-response","43","169773","0.0-43.0","EE2832D62B2C48C49D222C6B09F06DB2","019ce7b5-8c4a-711f-b49a-199db19ef428","019ce7a0-0965-7aa7-a556-174d32a8e773","","null","
                    <div class=""stimulus-container"">
                        <img src=""images/causal_sequence/the_performance_causal/the_performance_causal_5.png"" class=""exp-image"">
                        <div class=""question-area""></div> 
                    </div>","null","","","","","","",""
"","","","","","html-button-response","44","170467","0.0-44.0","EE2832D62B2C48C49D222C6B09F06DB2","019ce7b5-8c4a-711f-b49a-199db19ef428","019ce7a0-0965-7aa7-a556-174d32a8e773","","693","
                    <div class=""stimulus-container"">
                        <img src=""images/causal_sequence/the_performance_causal/the_performance_causal_5.png"" class=""exp-image"">
                        <div class=""question-area"">
                            <p style=""font-size: 20px; font-weight: bold; margin: 0;"">Is there a person in this image?</p>
                        </div>
                    </div>","0","main_causal_task","5","the_performance_causal","","","",""
"","","","","","html-keyboard-response","45","175476","0.0-45.0","EE2832D62B2C48C49D222C6B09F06DB2","019ce7b5-8c4a-711f-b49a-199db19ef428","019ce7a0-0965-7aa7-a556-174d32a8e773","","null","
                    <div class=""stimulus-container"">
                        <img src=""images/causal_sequence/the_performance_causal/the_performance_causal_6.png"" class=""exp-image"">
                        <div class=""question-area""></div> 
                    </div>","null","","","","","","",""
"","","","","","html-button-response","46","176171","0.0-46.0","EE2832D62B2C48C49D222C6B09F06DB2","019ce7b5-8c4a-711f-b49a-199db19ef428","019ce7a0-0965-7aa7-a556-174d32a8e773","","694","
                    <div class=""stimulus-container"">
                        <img src=""images/causal_sequence/the_performance_causal/the_performance_causal_6.png"" class=""exp-image"">
                        <div class=""question-area"">
                            <p style=""font-size: 20px; font-weight: bold; margin: 0;"">Is there a person in this image?</p>
                        </div>
                    </div>","0","main_causal_task","6","the_performance_causal","","","",""
"","","","","","html-keyboard-response","47","181175","0.0-47.0","EE2832D62B2C48C49D222C6B09F06DB2","019ce7b5-8c4a-711f-b49a-199db19ef428","019ce7a0-0965-7aa7-a556-174d32a8e773","","null","
                    <div class=""stimulus-container"">
                        <img src=""images/causal_sequence/the_performance_causal/the_performance_causal_7.png"" class=""exp-image"">
                        <div class=""question-area""></div> 
                    </div>","null","","","","","","",""
"","","","","","html-button-response","48","182008","0.0-48.0","EE2832D62B2C48C49D222C6B09F06DB2","019ce7b5-8c4a-711f-b49a-199db19ef428","019ce7a0-0965-7aa7-a556-174d32a8e773","","832","
                    <div class=""stimulus-container"">
                        <img src=""images/causal_sequence/the_performance_causal/the_performance_causal_7.png"" class=""exp-image"">
                        <div class=""question-area"">
                            <p style=""font-size: 20px; font-weight: bold; margin: 0;"">Is there a person in this image?</p>
                        </div>
                    </div>","0","main_causal_task","7","the_performance_causal","","","",""
"","","","","","html-keyboard-response","49","187021","0.0-49.0","EE2832D62B2C48C49D222C6B09F06DB2","019ce7b5-8c4a-711f-b49a-199db19ef428","019ce7a0-0965-7aa7-a556-174d32a8e773","","null","
                    <div class=""stimulus-container"">
                        <img src=""images/causal_sequence/the_performance_causal/the_performance_causal_8.png"" class=""exp-image"">
                        <div class=""question-area""></div> 
                    </div>","null","","","","","","",""
"","","","","","html-button-response","50","187699","0.0-50.0","EE2832D62B2C48C49D222C6B09F06DB2","019ce7b5-8c4a-711f-b49a-199db19ef428","019ce7a0-0965-7aa7-a556-174d32a8e773","","677","
                    <div class=""stimulus-container"">
                        <img src=""images/causal_sequence/the_performance_causal/the_performance_causal_8.png"" class=""exp-image"">
                        <div class=""question-area"">
                            <p style=""font-size: 20px; font-weight: bold; margin: 0;"">Is there a person in this image?</p>
                        </div>
                    </div>","0","main_causal_task","8","the_performance_causal","","","",""
"","","","","","html-keyboard-response","51","192703","0.0-51.0","EE2832D62B2C48C49D222C6B09F06DB2","019ce7b5-8c4a-711f-b49a-199db19ef428","019ce7a0-0965-7aa7-a556-174d32a8e773","","null","
                    <div class=""stimulus-container"">
                        <img src=""images/causal_sequence/the_performance_causal/the_performance_causal_9.png"" class=""exp-image"">
                        <div class=""question-area""></div> 
                    </div>","null","","","","","","",""
"","","","","","html-button-response","52","193088","0.0-52.0","EE2832D62B2C48C49D222C6B09F06DB2","019ce7b5-8c4a-711f-b49a-199db19ef428","019ce7a0-0965-7aa7-a556-174d32a8e773","","383","
                    <div class=""stimulus-container"">
                        <img src=""images/causal_sequence/the_performance_causal/the_performance_causal_9.png"" class=""exp-image"">
                        <div class=""question-area"">
                            <p style=""font-size: 20px; font-weight: bold; margin: 0;"">Is there a person in this image?</p>
                        </div>
                    </div>","0","main_causal_task","9","the_performance_causal","","","",""
"","","","","","html-keyboard-response","53","194102","0.0-53.0","EE2832D62B2C48C49D222C6B09F06DB2","019ce7b5-8c4a-711f-b49a-199db19ef428","019ce7a0-0965-7aa7-a556-174d32a8e773","","null","<div style=""background-color: gray; width: 100vw; height: 100vh;""></div>","null","","","","","","",""
"","","","","","html-keyboard-response","54","199107","0.0-54.0","EE2832D62B2C48C49D222C6B09F06DB2","019ce7b5-8c4a-711f-b49a-199db19ef428","019ce7a0-0965-7aa7-a556-174d32a8e773","","null","
                    <div class=""stimulus-container"">
                        <img src=""images/causal_sequence/coin_causal/coin_causal_1.png"" class=""exp-image"">
                        <div class=""question-area""></div> 
                    </div>","null","","","","","","",""
"","","","","","html-button-response","55","199927","0.0-55.0","EE2832D62B2C48C49D222C6B09F06DB2","019ce7b5-8c4a-711f-b49a-199db19ef428","019ce7a0-0965-7aa7-a556-174d32a8e773","","819","
                    <div class=""stimulus-container"">
                        <img src=""images/causal_sequence/coin_causal/coin_causal_1.png"" class=""exp-image"">
                        <div class=""question-area"">
                            <p style=""font-size: 20px; font-weight: bold; margin: 0;"">Is there a person in this image?</p>
                        </div>
                    </div>","0","main_causal_task","1","coin_causal","","","",""
"","","","","","html-keyboard-response","56","204933","0.0-56.0","EE2832D62B2C48C49D222C6B09F06DB2","019ce7b5-8c4a-711f-b49a-199db19ef428","019ce7a0-0965-7aa7-a556-174d32a8e773","","null","
                    <div class=""stimulus-container"">
                        <img src=""images/causal_sequence/coin_causal/coin_causal_2.png"" class=""exp-image"">
                        <div class=""question-area""></div> 
                    </div>","null","","","","","","",""
"","","","","","html-button-response","57","205348","0.0-57.0","EE2832D62B2C48C49D222C6B09F06DB2","019ce7b5-8c4a-711f-b49a-199db19ef428","019ce7a0-0965-7aa7-a556-174d32a8e773","","414","
                    <div class=""stimulus-container"">
                        <img src=""images/causal_sequence/coin_causal/coin_causal_2.png"" class=""exp-image"">
                        <div class=""question-area"">
                            <p style=""font-size: 20px; font-weight: bold; margin: 0;"">Is there a person in this image?</p>
                        </div>
                    </div>","0","main_causal_task","2","coin_causal","","","",""
"","","","","","html-keyboard-response","58","210355","0.0-58.0","EE2832D62B2C48C49D222C6B09F06DB2","019ce7b5-8c4a-711f-b49a-199db19ef428","019ce7a0-0965-7aa7-a556-174d32a8e773","","null","
                    <div class=""stimulus-container"">
                        <img src=""images/causal_sequence/coin_causal/coin_causal_3.png"" class=""exp-image"">
                        <div class=""question-area""></div> 
                    </div>","null","","","","","","",""
"","","","","","html-button-response","59","211163","0.0-59.0","EE2832D62B2C48C49D222C6B09F06DB2","019ce7b5-8c4a-711f-b49a-199db19ef428","019ce7a0-0965-7aa7-a556-174d32a8e773","","807","
                    <div class=""stimulus-container"">
                        <img src=""images/causal_sequence/coin_causal/coin_causal_3.png"" class=""exp-image"">
                        <div class=""question-area"">
                            <p style=""font-size: 20px; font-weight: bold; margin: 0;"">Is there a person in this image?</p>
                        </div>
                    </div>","0","main_causal_task","3","coin_causal","","","",""
"","","","","","html-keyboard-response","60","216179","0.0-60.0","EE2832D62B2C48C49D222C6B09F06DB2","019ce7b5-8c4a-711f-b49a-199db19ef428","019ce7a0-0965-7aa7-a556-174d32a8e773","","null","
                    <div class=""stimulus-container"">
                        <img src=""images/causal_sequence/coin_causal/coin_causal_4.png"" class=""exp-image"">
                        <div class=""question-area""></div> 
                    </div>","null","","","","","","",""
"","","","","","html-button-response","61","216630","0.0-61.0","EE2832D62B2C48C49D222C6B09F06DB2","019ce7b5-8c4a-711f-b49a-199db19ef428","019ce7a0-0965-7aa7-a556-174d32a8e773","","450","
                    <div class=""stimulus-container"">
                        <img src=""images/causal_sequence/coin_causal/coin_causal_4.png"" class=""exp-image"">
                        <div class=""question-area"">
                            <p style=""font-size: 20px; font-weight: bold; margin: 0;"">Is there a person in this image?</p>
                        </div>
                    </div>","0","main_causal_task","4","coin_causal","","","",""
"","","","","","html-keyboard-response","62","221638","0.0-62.0","EE2832D62B2C48C49D222C6B09F06DB2","019ce7b5-8c4a-711f-b49a-199db19ef428","019ce7a0-0965-7aa7-a556-174d32a8e773","","null","
                    <div class=""stimulus-container"">
                        <img src=""images/causal_sequence/coin_causal/coin_causal_5.png"" class=""exp-image"">
                        <div class=""question-area""></div> 
                    </div>","null","","","","","","",""
"","","","","","html-button-response","63","222038","0.0-63.0","EE2832D62B2C48C49D222C6B09F06DB2","019ce7b5-8c4a-711f-b49a-199db19ef428","019ce7a0-0965-7aa7-a556-174d32a8e773","","399","
                    <div class=""stimulus-container"">
                        <img src=""images/causal_sequence/coin_causal/coin_causal_5.png"" class=""exp-image"">
                        <div class=""question-area"">
                            <p style=""font-size: 20px; font-weight: bold; margin: 0;"">Is there a person in this image?</p>
                        </div>
                    </div>","0","main_causal_task","5","coin_causal","","","",""
"","","","","","html-keyboard-response","64","227053","0.0-64.0","EE2832D62B2C48C49D222C6B09F06DB2","019ce7b5-8c4a-711f-b49a-199db19ef428","019ce7a0-0965-7aa7-a556-174d32a8e773","","null","
                    <div class=""stimulus-container"">
                        <img src=""images/causal_sequence/coin_causal/coin_causal_6.png"" class=""exp-image"">
                        <div class=""question-area""></div> 
                    </div>","null","","","","","","",""
"","","","","","html-button-response","65","227594","0.0-65.0","EE2832D62B2C48C49D222C6B09F06DB2","019ce7b5-8c4a-711f-b49a-199db19ef428","019ce7a0-0965-7aa7-a556-174d32a8e773","","540","
                    <div class=""stimulus-container"">
                        <img src=""images/causal_sequence/coin_causal/coin_causal_6.png"" class=""exp-image"">
                        <div class=""question-area"">
                            <p style=""font-size: 20px; font-weight: bold; margin: 0;"">Is there a person in this image?</p>
                        </div>
                    </div>","0","main_causal_task","6","coin_causal","","","",""
"","","","","","html-keyboard-response","66","232611","0.0-66.0","EE2832D62B2C48C49D222C6B09F06DB2","019ce7b5-8c4a-711f-b49a-199db19ef428","019ce7a0-0965-7aa7-a556-174d32a8e773","","null","
                    <div class=""stimulus-container"">
                        <img src=""images/causal_sequence/coin_causal/coin_causal_7.png"" class=""exp-image"">
                        <div class=""question-area""></div> 
                    </div>","null","","","","","","",""
"","","","","","html-button-response","67","233310","0.0-67.0","EE2832D62B2C48C49D222C6B09F06DB2","019ce7b5-8c4a-711f-b49a-199db19ef428","019ce7a0-0965-7aa7-a556-174d32a8e773","","698","
                    <div class=""stimulus-container"">
                        <img src=""images/causal_sequence/coin_causal/coin_causal_7.png"" class=""exp-image"">
                        <div class=""question-area"">
                            <p style=""font-size: 20px; font-weight: bold; margin: 0;"">Is there a person in this image?</p>
                        </div>
                    </div>","0","main_causal_task","7","coin_causal","","","",""
"","","","","","html-keyboard-response","68","238315","0.0-68.0","EE2832D62B2C48C49D222C6B09F06DB2","019ce7b5-8c4a-711f-b49a-199db19ef428","019ce7a0-0965-7aa7-a556-174d32a8e773","","null","
                    <div class=""stimulus-container"">
                        <img src=""images/causal_sequence/coin_causal/coin_causal_8.png"" class=""exp-image"">
                        <div class=""question-area""></div> 
                    </div>","null","","","","","","",""
"","","","","","html-button-response","69","239273","0.0-69.0","EE2832D62B2C48C49D222C6B09F06DB2","019ce7b5-8c4a-711f-b49a-199db19ef428","019ce7a0-0965-7aa7-a556-174d32a8e773","","957","
                    <div class=""stimulus-container"">
                        <img src=""images/causal_sequence/coin_causal/coin_causal_8.png"" class=""exp-image"">
                        <div class=""question-area"">
                            <p style=""font-size: 20px; font-weight: bold; margin: 0;"">Is there a person in this image?</p>
                        </div>
                    </div>","0","main_causal_task","8","coin_causal","","","",""
"","","","","","html-keyboard-response","70","244283","0.0-70.0","EE2832D62B2C48C49D222C6B09F06DB2","019ce7b5-8c4a-711f-b49a-199db19ef428","019ce7a0-0965-7aa7-a556-174d32a8e773","","null","
                    <div class=""stimulus-container"">
                        <img src=""images/causal_sequence/coin_causal/coin_causal_9.png"" class=""exp-image"">
                        <div class=""question-area""></div> 
                    </div>","null","","","","","","",""
"","","","","","html-button-response","71","245978","0.0-71.0","EE2832D62B2C48C49D222C6B09F06DB2","019ce7b5-8c4a-711f-b49a-199db19ef428","019ce7a0-0965-7aa7-a556-174d32a8e773","","1694","
                    <div class=""stimulus-container"">
                        <img src=""images/causal_sequence/coin_causal/coin_causal_9.png"" class=""exp-image"">
                        <div class=""question-area"">
                            <p style=""font-size: 20px; font-weight: bold; margin: 0;"">Is there a person in this image?</p>
                        </div>
                    </div>","0","main_causal_task","9","coin_causal","","","",""
"","","","","","html-keyboard-response","72","246986","0.0-72.0","EE2832D62B2C48C49D222C6B09F06DB2","019ce7b5-8c4a-711f-b49a-199db19ef428","019ce7a0-0965-7aa7-a556-174d32a8e773","","null","<div style=""background-color: gray; width: 100vw; height: 100vh;""></div>","null","","","","","","",""
"","","","","","html-keyboard-response","73","252002","0.0-73.0","EE2832D62B2C48C49D222C6B09F06DB2","019ce7b5-8c4a-711f-b49a-199db19ef428","019ce7a0-0965-7aa7-a556-174d32a8e773","","null","
                    <div class=""stimulus-container"">
                        <img src=""images/causal_sequence/saving_a_cat_causal/saving_a_cat_causal_1.png"" class=""exp-image"">
                        <div class=""question-area""></div> 
                    </div>","null","","","","","","",""
"","","","","","html-button-response","74","252915","0.0-74.0","EE2832D62B2C48C49D222C6B09F06DB2","019ce7b5-8c4a-711f-b49a-199db19ef428","019ce7a0-0965-7aa7-a556-174d32a8e773","","911","
                    <div class=""stimulus-container"">
                        <img src=""images/causal_sequence/saving_a_cat_causal/saving_a_cat_causal_1.png"" class=""exp-image"">
                        <div class=""question-area"">
                            <p style=""font-size: 20px; font-weight: bold; margin: 0;"">Is there a person in this image?</p>
                        </div>
                    </div>","0","main_causal_task","1","saving_a_cat_causal","","","",""
"","","","","","html-keyboard-response","75","257926","0.0-75.0","EE2832D62B2C48C49D222C6B09F06DB2","019ce7b5-8c4a-711f-b49a-199db19ef428","019ce7a0-0965-7aa7-a556-174d32a8e773","","null","
                    <div class=""stimulus-container"">
                        <img src=""images/causal_sequence/saving_a_cat_causal/saving_a_cat_causal_2.png"" class=""exp-image"">
                        <div class=""question-area""></div> 
                    </div>","null","","","","","","",""
"","","","","","html-button-response","76","258414","0.0-76.0","EE2832D62B2C48C49D222C6B09F06DB2","019ce7b5-8c4a-711f-b49a-199db19ef428","019ce7a0-0965-7aa7-a556-174d32a8e773","","486","
                    <div class=""stimulus-container"">
                        <img src=""images/causal_sequence/saving_a_cat_causal/saving_a_cat_causal_2.png"" class=""exp-image"">
                        <div class=""question-area"">
                            <p style=""font-size: 20px; font-weight: bold; margin: 0;"">Is there a person in this image?</p>
                        </div>
                    </div>","0","main_causal_task","2","saving_a_cat_causal","","","",""
"","","","","","html-keyboard-response","77","263426","0.0-77.0","EE2832D62B2C48C49D222C6B09F06DB2","019ce7b5-8c4a-711f-b49a-199db19ef428","019ce7a0-0965-7aa7-a556-174d32a8e773","","null","
                    <div class=""stimulus-container"">
                        <img src=""images/causal_sequence/saving_a_cat_causal/saving_a_cat_causal_3.png"" class=""exp-image"">
                        <div class=""question-area""></div> 
                    </div>","null","","","","","","",""
"","","","","","html-button-response","78","264306","0.0-78.0","EE2832D62B2C48C49D222C6B09F06DB2","019ce7b5-8c4a-711f-b49a-199db19ef428","019ce7a0-0965-7aa7-a556-174d32a8e773","","880","
                    <div class=""stimulus-container"">
                        <img src=""images/causal_sequence/saving_a_cat_causal/saving_a_cat_causal_3.png"" class=""exp-image"">
                        <div class=""question-area"">
                            <p style=""font-size: 20px; font-weight: bold; margin: 0;"">Is there a person in this image?</p>
                        </div>
                    </div>","1","main_causal_task","3","saving_a_cat_causal","","","",""
"","","","","","html-keyboard-response","79","269309","0.0-79.0","EE2832D62B2C48C49D222C6B09F06DB2","019ce7b5-8c4a-711f-b49a-199db19ef428","019ce7a0-0965-7aa7-a556-174d32a8e773","","null","
                    <div class=""stimulus-container"">
                        <img src=""images/causal_sequence/saving_a_cat_causal/saving_a_cat_causal_4.png"" class=""exp-image"">
                        <div class=""question-area""></div> 
                    </div>","null","","","","","","",""
"","","","","","html-button-response","80","269843","0.0-80.0","EE2832D62B2C48C49D222C6B09F06DB2","019ce7b5-8c4a-711f-b49a-199db19ef428","019ce7a0-0965-7aa7-a556-174d32a8e773","","534","
                    <div class=""stimulus-container"">
                        <img src=""images/causal_sequence/saving_a_cat_causal/saving_a_cat_causal_4.png"" class=""exp-image"">
                        <div class=""question-area"">
                            <p style=""font-size: 20px; font-weight: bold; margin: 0;"">Is there a person in this image?</p>
                        </div>
                    </div>","0","main_causal_task","4","saving_a_cat_causal","","","",""
"","","","","","html-keyboard-response","81","274852","0.0-81.0","EE2832D62B2C48C49D222C6B09F06DB2","019ce7b5-8c4a-711f-b49a-199db19ef428","019ce7a0-0965-7aa7-a556-174d32a8e773","","null","
                    <div class=""stimulus-container"">
                        <img src=""images/causal_sequence/saving_a_cat_causal/saving_a_cat_causal_5.png"" class=""exp-image"">
                        <div class=""question-area""></div> 
                    </div>","null","","","","","","",""
"","","","","","html-button-response","82","275482","0.0-82.0","EE2832D62B2C48C49D222C6B09F06DB2","019ce7b5-8c4a-711f-b49a-199db19ef428","019ce7a0-0965-7aa7-a556-174d32a8e773","","629","
                    <div class=""stimulus-container"">
                        <img src=""images/causal_sequence/saving_a_cat_causal/saving_a_cat_causal_5.png"" class=""exp-image"">
                        <div class=""question-area"">
                            <p style=""font-size: 20px; font-weight: bold; margin: 0;"">Is there a person in this image?</p>
                        </div>
                    </div>","0","main_causal_task","5","saving_a_cat_causal","","","",""
"","","","","","html-keyboard-response","83","280483","0.0-83.0","EE2832D62B2C48C49D222C6B09F06DB2","019ce7b5-8c4a-711f-b49a-199db19ef428","019ce7a0-0965-7aa7-a556-174d32a8e773","","null","
                    <div class=""stimulus-container"">
                        <img src=""images/causal_sequence/saving_a_cat_causal/saving_a_cat_causal_6.png"" class=""exp-image"">
                        <div class=""question-area""></div> 
                    </div>","null","","","","","","",""
"","","","","","html-button-response","84","281506","0.0-84.0","EE2832D62B2C48C49D222C6B09F06DB2","019ce7b5-8c4a-711f-b49a-199db19ef428","019ce7a0-0965-7aa7-a556-174d32a8e773","","1023","
                    <div class=""stimulus-container"">
                        <img src=""images/causal_sequence/saving_a_cat_causal/saving_a_cat_causal_6.png"" class=""exp-image"">
                        <div class=""question-area"">
                            <p style=""font-size: 20px; font-weight: bold; margin: 0;"">Is there a person in this image?</p>
                        </div>
                    </div>","0","main_causal_task","6","saving_a_cat_causal","","","",""
"","","","","","html-keyboard-response","85","286514","0.0-85.0","EE2832D62B2C48C49D222C6B09F06DB2","019ce7b5-8c4a-711f-b49a-199db19ef428","019ce7a0-0965-7aa7-a556-174d32a8e773","","null","
                    <div class=""stimulus-container"">
                        <img src=""images/causal_sequence/saving_a_cat_causal/saving_a_cat_causal_7.png"" class=""exp-image"">
                        <div class=""question-area""></div> 
                    </div>","null","","","","","","",""
"","","","","","html-button-response","86","287028","0.0-86.0","EE2832D62B2C48C49D222C6B09F06DB2","019ce7b5-8c4a-711f-b49a-199db19ef428","019ce7a0-0965-7aa7-a556-174d32a8e773","","514","
                    <div class=""stimulus-container"">
                        <img src=""images/causal_sequence/saving_a_cat_causal/saving_a_cat_causal_7.png"" class=""exp-image"">
                        <div class=""question-area"">
                            <p style=""font-size: 20px; font-weight: bold; margin: 0;"">Is there a person in this image?</p>
                        </div>
                    </div>","0","main_causal_task","7","saving_a_cat_causal","","","",""
"","","","","","html-keyboard-response","87","292032","0.0-87.0","EE2832D62B2C48C49D222C6B09F06DB2","019ce7b5-8c4a-711f-b49a-199db19ef428","019ce7a0-0965-7aa7-a556-174d32a8e773","","null","
                    <div class=""stimulus-container"">
                        <img src=""images/causal_sequence/saving_a_cat_causal/saving_a_cat_causal_8.png"" class=""exp-image"">
                        <div class=""question-area""></div> 
                    </div>","null","","","","","","",""
"","","","","","html-button-response","88","292549","0.0-88.0","EE2832D62B2C48C49D222C6B09F06DB2","019ce7b5-8c4a-711f-b49a-199db19ef428","019ce7a0-0965-7aa7-a556-174d32a8e773","","516","
                    <div class=""stimulus-container"">
                        <img src=""images/causal_sequence/saving_a_cat_causal/saving_a_cat_causal_8.png"" class=""exp-image"">
                        <div class=""question-area"">
                            <p style=""font-size: 20px; font-weight: bold; margin: 0;"">Is there a person in this image?</p>
                        </div>
                    </div>","0","main_causal_task","8","saving_a_cat_causal","","","",""
"","","","","","html-keyboard-response","89","297559","0.0-89.0","EE2832D62B2C48C49D222C6B09F06DB2","019ce7b5-8c4a-711f-b49a-199db19ef428","019ce7a0-0965-7aa7-a556-174d32a8e773","","null","
                    <div class=""stimulus-container"">
                        <img src=""images/causal_sequence/saving_a_cat_causal/saving_a_cat_causal_9.png"" class=""exp-image"">
                        <div class=""question-area""></div> 
                    </div>","null","","","","","","",""
"","","","","","html-button-response","90","298149","0.0-90.0","EE2832D62B2C48C49D222C6B09F06DB2","019ce7b5-8c4a-711f-b49a-199db19ef428","019ce7a0-0965-7aa7-a556-174d32a8e773","","589","
                    <div class=""stimulus-container"">
                        <img src=""images/causal_sequence/saving_a_cat_causal/saving_a_cat_causal_9.png"" class=""exp-image"">
                        <div class=""question-area"">
                            <p style=""font-size: 20px; font-weight: bold; margin: 0;"">Is there a person in this image?</p>
                        </div>
                    </div>","0","main_causal_task","9","saving_a_cat_causal","","","",""
"","","","","","html-keyboard-response","91","299164","0.0-91.0","EE2832D62B2C48C49D222C6B09F06DB2","019ce7b5-8c4a-711f-b49a-199db19ef428","019ce7a0-0965-7aa7-a556-174d32a8e773","","null","<div style=""background-color: gray; width: 100vw; height: 100vh;""></div>","null","","","","","","",""
"","","","","","html-keyboard-response","92","304166","0.0-92.0","EE2832D62B2C48C49D222C6B09F06DB2","019ce7b5-8c4a-711f-b49a-199db19ef428","019ce7a0-0965-7aa7-a556-174d32a8e773","","null","
                    <div class=""stimulus-container"">
                        <img src=""images/causal_sequence/package_causal/package_causal_1.png"" class=""exp-image"">
                        <div class=""question-area""></div> 
                    </div>","null","","","","","","",""
"","","","","","html-button-response","93","304661","0.0-93.0","EE2832D62B2C48C49D222C6B09F06DB2","019ce7b5-8c4a-711f-b49a-199db19ef428","019ce7a0-0965-7aa7-a556-174d32a8e773","","494","
                    <div class=""stimulus-container"">
                        <img src=""images/causal_sequence/package_causal/package_causal_1.png"" class=""exp-image"">
                        <div class=""question-area"">
                            <p style=""font-size: 20px; font-weight: bold; margin: 0;"">Is there a person in this image?</p>
                        </div>
                    </div>","0","main_causal_task","1","package_causal","","","",""
"","","","","","html-keyboard-response","94","309676","0.0-94.0","EE2832D62B2C48C49D222C6B09F06DB2","019ce7b5-8c4a-711f-b49a-199db19ef428","019ce7a0-0965-7aa7-a556-174d32a8e773","","null","
                    <div class=""stimulus-container"">
                        <img src=""images/causal_sequence/package_causal/package_causal_2.png"" class=""exp-image"">
                        <div class=""question-area""></div> 
                    </div>","null","","","","","","",""
"","","","","","html-button-response","95","310408","0.0-95.0","EE2832D62B2C48C49D222C6B09F06DB2","019ce7b5-8c4a-711f-b49a-199db19ef428","019ce7a0-0965-7aa7-a556-174d32a8e773","","731","
                    <div class=""stimulus-container"">
                        <img src=""images/causal_sequence/package_causal/package_causal_2.png"" class=""exp-image"">
                        <div class=""question-area"">
                            <p style=""font-size: 20px; font-weight: bold; margin: 0;"">Is there a person in this image?</p>
                        </div>
                    </div>","0","main_causal_task","2","package_causal","","","",""
"","","","","","html-keyboard-response","96","315416","0.0-96.0","EE2832D62B2C48C49D222C6B09F06DB2","019ce7b5-8c4a-711f-b49a-199db19ef428","019ce7a0-0965-7aa7-a556-174d32a8e773","","null","
                    <div class=""stimulus-container"">
                        <img src=""images/causal_sequence/package_causal/package_causal_3.png"" class=""exp-image"">
                        <div class=""question-area""></div> 
                    </div>","null","","","","","","",""
"","","","","","html-button-response","97","316210","0.0-97.0","EE2832D62B2C48C49D222C6B09F06DB2","019ce7b5-8c4a-711f-b49a-199db19ef428","019ce7a0-0965-7aa7-a556-174d32a8e773","","793","
                    <div class=""stimulus-container"">
                        <img src=""images/causal_sequence/package_causal/package_causal_3.png"" class=""exp-image"">
                        <div class=""question-area"">
                            <p style=""font-size: 20px; font-weight: bold; margin: 0;"">Is there a person in this image?</p>
                        </div>
                    </div>","0","main_causal_task","3","package_causal","","","",""
"","","","","","html-keyboard-response","98","321216","0.0-98.0","EE2832D62B2C48C49D222C6B09F06DB2","019ce7b5-8c4a-711f-b49a-199db19ef428","019ce7a0-0965-7aa7-a556-174d32a8e773","","null","
                    <div class=""stimulus-container"">
                        <img src=""images/causal_sequence/package_causal/package_causal_4.png"" class=""exp-image"">
                        <div class=""question-area""></div> 
                    </div>","null","","","","","","",""
"","","","","","html-button-response","99","321737","0.0-99.0","EE2832D62B2C48C49D222C6B09F06DB2","019ce7b5-8c4a-711f-b49a-199db19ef428","019ce7a0-0965-7aa7-a556-174d32a8e773","","520","
                    <div class=""stimulus-container"">
                        <img src=""images/causal_sequence/package_causal/package_causal_4.png"" class=""exp-image"">
                        <div class=""question-area"">
                            <p style=""font-size: 20px; font-weight: bold; margin: 0;"">Is there a person in this image?</p>
                        </div>
                    </div>","1","main_causal_task","4","package_causal","","","",""
"","","","","","html-keyboard-response","100","326742","0.0-100.0","EE2832D62B2C48C49D222C6B09F06DB2","019ce7b5-8c4a-711f-b49a-199db19ef428","019ce7a0-0965-7aa7-a556-174d32a8e773","","null","
                    <div class=""stimulus-container"">
                        <img src=""images/causal_sequence/package_causal/package_causal_5.png"" class=""exp-image"">
                        <div class=""question-area""></div> 
                    </div>","null","","","","","","",""
"","","","","","html-button-response","101","327361","0.0-101.0","EE2832D62B2C48C49D222C6B09F06DB2","019ce7b5-8c4a-711f-b49a-199db19ef428","019ce7a0-0965-7aa7-a556-174d32a8e773","","618","
                    <div class=""stimulus-container"">
                        <img src=""images/causal_sequence/package_causal/package_causal_5.png"" class=""exp-image"">
                        <div class=""question-area"">
                            <p style=""font-size: 20px; font-weight: bold; margin: 0;"">Is there a person in this image?</p>
                        </div>
                    </div>","0","main_causal_task","5","package_causal","","","",""
"","","","","","html-keyboard-response","102","332371","0.0-102.0","EE2832D62B2C48C49D222C6B09F06DB2","019ce7b5-8c4a-711f-b49a-199db19ef428","019ce7a0-0965-7aa7-a556-174d32a8e773","","null","
                    <div class=""stimulus-container"">
                        <img src=""images/causal_sequence/package_causal/package_causal_6.png"" class=""exp-image"">
                        <div class=""question-area""></div> 
                    </div>","null","","","","","","",""
"","","","","","html-button-response","103","333040","0.0-103.0","EE2832D62B2C48C49D222C6B09F06DB2","019ce7b5-8c4a-711f-b49a-199db19ef428","019ce7a0-0965-7aa7-a556-174d32a8e773","","668","
                    <div class=""stimulus-container"">
                        <img src=""images/causal_sequence/package_causal/package_causal_6.png"" class=""exp-image"">
                        <div class=""question-area"">
                            <p style=""font-size: 20px; font-weight: bold; margin: 0;"">Is there a person in this image?</p>
                        </div>
                    </div>","0","main_causal_task","6","package_causal","","","",""
"","","","","","html-keyboard-response","104","338056","0.0-104.0","EE2832D62B2C48C49D222C6B09F06DB2","019ce7b5-8c4a-711f-b49a-199db19ef428","019ce7a0-0965-7aa7-a556-174d32a8e773","","null","
                    <div class=""stimulus-container"">
                        <img src=""images/causal_sequence/package_causal/package_causal_7.png"" class=""exp-image"">
                        <div class=""question-area""></div> 
                    </div>","null","","","","","","",""
"","","","","","html-button-response","105","338697","0.0-105.0","EE2832D62B2C48C49D222C6B09F06DB2","019ce7b5-8c4a-711f-b49a-199db19ef428","019ce7a0-0965-7aa7-a556-174d32a8e773","","640","
                    <div class=""stimulus-container"">
                        <img src=""images/causal_sequence/package_causal/package_causal_7.png"" class=""exp-image"">
                        <div class=""question-area"">
                            <p style=""font-size: 20px; font-weight: bold; margin: 0;"">Is there a person in this image?</p>
                        </div>
                    </div>","0","main_causal_task","7","package_causal","","","",""
"","","","","","html-keyboard-response","106","343706","0.0-106.0","EE2832D62B2C48C49D222C6B09F06DB2","019ce7b5-8c4a-711f-b49a-199db19ef428","019ce7a0-0965-7aa7-a556-174d32a8e773","","null","
                    <div class=""stimulus-container"">
                        <img src=""images/causal_sequence/package_causal/package_causal_8.png"" class=""exp-image"">
                        <div class=""question-area""></div> 
                    </div>","null","","","","","","",""
"","","","","","html-button-response","107","344194","0.0-107.0","EE2832D62B2C48C49D222C6B09F06DB2","019ce7b5-8c4a-711f-b49a-199db19ef428","019ce7a0-0965-7aa7-a556-174d32a8e773","","486","
                    <div class=""stimulus-container"">
                        <img src=""images/causal_sequence/package_causal/package_causal_8.png"" class=""exp-image"">
                        <div class=""question-area"">
                            <p style=""font-size: 20px; font-weight: bold; margin: 0;"">Is there a person in this image?</p>
                        </div>
                    </div>","0","main_causal_task","8","package_causal","","","",""
"","","","","","html-keyboard-response","108","349207","0.0-108.0","EE2832D62B2C48C49D222C6B09F06DB2","019ce7b5-8c4a-711f-b49a-199db19ef428","019ce7a0-0965-7aa7-a556-174d32a8e773","","null","
                    <div class=""stimulus-container"">
                        <img src=""images/causal_sequence/package_causal/package_causal_9.png"" class=""exp-image"">
                        <div class=""question-area""></div> 
                    </div>","null","","","","","","",""
"","","","","","html-button-response","109","349706","0.0-109.0","EE2832D62B2C48C49D222C6B09F06DB2","019ce7b5-8c4a-711f-b49a-199db19ef428","019ce7a0-0965-7aa7-a556-174d32a8e773","","498","
                    <div class=""stimulus-container"">
                        <img src=""images/causal_sequence/package_causal/package_causal_9.png"" class=""exp-image"">
                        <div class=""question-area"">
                            <p style=""font-size: 20px; font-weight: bold; margin: 0;"">Is there a person in this image?</p>
                        </div>
                    </div>","0","main_causal_task","9","package_causal","","","",""
"","","","","","html-keyboard-response","110","350715","0.0-110.0","EE2832D62B2C48C49D222C6B09F06DB2","019ce7b5-8c4a-711f-b49a-199db19ef428","019ce7a0-0965-7aa7-a556-174d32a8e773","","null","<div style=""background-color: gray; width: 100vw; height: 100vh;""></div>","null","","","","","","",""
"","","","","","html-keyboard-response","111","355720","0.0-111.0","EE2832D62B2C48C49D222C6B09F06DB2","019ce7b5-8c4a-711f-b49a-199db19ef428","019ce7a0-0965-7aa7-a556-174d32a8e773","","null","
                    <div class=""stimulus-container"">
                        <img src=""images/causal_sequence/museum_causal/museum_causal_1.png"" class=""exp-image"">
                        <div class=""question-area""></div> 
                    </div>","null","","","","","","",""
"","","","","","html-button-response","112","356605","0.0-112.0","EE2832D62B2C48C49D222C6B09F06DB2","019ce7b5-8c4a-711f-b49a-199db19ef428","019ce7a0-0965-7aa7-a556-174d32a8e773","","884","
                    <div class=""stimulus-container"">
                        <img src=""images/causal_sequence/museum_causal/museum_causal_1.png"" class=""exp-image"">
                        <div class=""question-area"">
                            <p style=""font-size: 20px; font-weight: bold; margin: 0;"">Is there a person in this image?</p>
                        </div>
                    </div>","0","main_causal_task","1","museum_causal","","","",""
"","","","","","html-keyboard-response","113","361606","0.0-113.0","EE2832D62B2C48C49D222C6B09F06DB2","019ce7b5-8c4a-711f-b49a-199db19ef428","019ce7a0-0965-7aa7-a556-174d32a8e773","","null","
                    <div class=""stimulus-container"">
                        <img src=""images/causal_sequence/museum_causal/museum_causal_2.png"" class=""exp-image"">
                        <div class=""question-area""></div> 
                    </div>","null","","","","","","",""
"","","","","","html-button-response","114","362165","0.0-114.0","EE2832D62B2C48C49D222C6B09F06DB2","019ce7b5-8c4a-711f-b49a-199db19ef428","019ce7a0-0965-7aa7-a556-174d32a8e773","","559","
                    <div class=""stimulus-container"">
                        <img src=""images/causal_sequence/museum_causal/museum_causal_2.png"" class=""exp-image"">
                        <div class=""question-area"">
                            <p style=""font-size: 20px; font-weight: bold; margin: 0;"">Is there a person in this image?</p>
                        </div>
                    </div>","1","main_causal_task","2","museum_causal","","","",""
"","","","","","html-keyboard-response","115","367166","0.0-115.0","EE2832D62B2C48C49D222C6B09F06DB2","019ce7b5-8c4a-711f-b49a-199db19ef428","019ce7a0-0965-7aa7-a556-174d32a8e773","","null","
                    <div class=""stimulus-container"">
                        <img src=""images/causal_sequence/museum_causal/museum_causal_3.png"" class=""exp-image"">
                        <div class=""question-area""></div> 
                    </div>","null","","","","","","",""
"","","","","","html-button-response","116","367730","0.0-116.0","EE2832D62B2C48C49D222C6B09F06DB2","019ce7b5-8c4a-711f-b49a-199db19ef428","019ce7a0-0965-7aa7-a556-174d32a8e773","","563","
                    <div class=""stimulus-container"">
                        <img src=""images/causal_sequence/museum_causal/museum_causal_3.png"" class=""exp-image"">
                        <div class=""question-area"">
                            <p style=""font-size: 20px; font-weight: bold; margin: 0;"">Is there a person in this image?</p>
                        </div>
                    </div>","0","main_causal_task","3","museum_causal","","","",""
"","","","","","html-keyboard-response","117","372740","0.0-117.0","EE2832D62B2C48C49D222C6B09F06DB2","019ce7b5-8c4a-711f-b49a-199db19ef428","019ce7a0-0965-7aa7-a556-174d32a8e773","","null","
                    <div class=""stimulus-container"">
                        <img src=""images/causal_sequence/museum_causal/museum_causal_4.png"" class=""exp-image"">
                        <div class=""question-area""></div> 
                    </div>","null","","","","","","",""
"","","","","","html-button-response","118","373233","0.0-118.0","EE2832D62B2C48C49D222C6B09F06DB2","019ce7b5-8c4a-711f-b49a-199db19ef428","019ce7a0-0965-7aa7-a556-174d32a8e773","","492","
                    <div class=""stimulus-container"">
                        <img src=""images/causal_sequence/museum_causal/museum_causal_4.png"" class=""exp-image"">
                        <div class=""question-area"">
                            <p style=""font-size: 20px; font-weight: bold; margin: 0;"">Is there a person in this image?</p>
                        </div>
                    </div>","1","main_causal_task","4","museum_causal","","","",""
"","","","","","html-keyboard-response","119","378243","0.0-119.0","EE2832D62B2C48C49D222C6B09F06DB2","019ce7b5-8c4a-711f-b49a-199db19ef428","019ce7a0-0965-7aa7-a556-174d32a8e773","","null","
                    <div class=""stimulus-container"">
                        <img src=""images/causal_sequence/museum_causal/museum_causal_5.png"" class=""exp-image"">
                        <div class=""question-area""></div> 
                    </div>","null","","","","","","",""
"","","","","","html-button-response","120","378758","0.0-120.0","EE2832D62B2C48C49D222C6B09F06DB2","019ce7b5-8c4a-711f-b49a-199db19ef428","019ce7a0-0965-7aa7-a556-174d32a8e773","","513","
                    <div class=""stimulus-container"">
                        <img src=""images/causal_sequence/museum_causal/museum_causal_5.png"" class=""exp-image"">
                        <div class=""question-area"">
                            <p style=""font-size: 20px; font-weight: bold; margin: 0;"">Is there a person in this image?</p>
                        </div>
                    </div>","0","main_causal_task","5","museum_causal","","","",""
"","","","","","html-keyboard-response","121","383761","0.0-121.0","EE2832D62B2C48C49D222C6B09F06DB2","019ce7b5-8c4a-711f-b49a-199db19ef428","019ce7a0-0965-7aa7-a556-174d32a8e773","","null","
                    <div class=""stimulus-container"">
                        <img src=""images/causal_sequence/museum_causal/museum_causal_6.png"" class=""exp-image"">
                        <div class=""question-area""></div> 
                    </div>","null","","","","","","",""
"","","","","","html-button-response","122","384262","0.0-122.0","EE2832D62B2C48C49D222C6B09F06DB2","019ce7b5-8c4a-711f-b49a-199db19ef428","019ce7a0-0965-7aa7-a556-174d32a8e773","","500","
                    <div class=""stimulus-container"">
                        <img src=""images/causal_sequence/museum_causal/museum_causal_6.png"" class=""exp-image"">
                        <div class=""question-area"">
                            <p style=""font-size: 20px; font-weight: bold; margin: 0;"">Is there a person in this image?</p>
                        </div>
                    </div>","0","main_causal_task","6","museum_causal","","","",""
"","","","","","html-keyboard-response","123","389264","0.0-123.0","EE2832D62B2C48C49D222C6B09F06DB2","019ce7b5-8c4a-711f-b49a-199db19ef428","019ce7a0-0965-7aa7-a556-174d32a8e773","","null","
                    <div class=""stimulus-container"">
                        <img src=""images/causal_sequence/museum_causal/museum_causal_7.png"" class=""exp-image"">
                        <div class=""question-area""></div> 
                    </div>","null","","","","","","",""
"","","","","","html-button-response","124","389721","0.0-124.0","EE2832D62B2C48C49D222C6B09F06DB2","019ce7b5-8c4a-711f-b49a-199db19ef428","019ce7a0-0965-7aa7-a556-174d32a8e773","","456","
                    <div class=""stimulus-container"">
                        <img src=""images/causal_sequence/museum_causal/museum_causal_7.png"" class=""exp-image"">
                        <div class=""question-area"">
                            <p style=""font-size: 20px; font-weight: bold; margin: 0;"">Is there a person in this image?</p>
                        </div>
                    </div>","1","main_causal_task","7","museum_causal","","","",""
"","","","","","html-keyboard-response","125","394731","0.0-125.0","EE2832D62B2C48C49D222C6B09F06DB2","019ce7b5-8c4a-711f-b49a-199db19ef428","019ce7a0-0965-7aa7-a556-174d32a8e773","","null","
                    <div class=""stimulus-container"">
                        <img src=""images/causal_sequence/museum_causal/museum_causal_8.png"" class=""exp-image"">
                        <div class=""question-area""></div> 
                    </div>","null","","","","","","",""
"","","","","","html-button-response","126","395989","0.0-126.0","EE2832D62B2C48C49D222C6B09F06DB2","019ce7b5-8c4a-711f-b49a-199db19ef428","019ce7a0-0965-7aa7-a556-174d32a8e773","","1257","
                    <div class=""stimulus-container"">
                        <img src=""images/causal_sequence/museum_causal/museum_causal_8.png"" class=""exp-image"">
                        <div class=""question-area"">
                            <p style=""font-size: 20px; font-weight: bold; margin: 0;"">Is there a person in this image?</p>
                        </div>
                    </div>","0","main_causal_task","8","museum_causal","","","",""
"","","","","","html-keyboard-response","127","400992","0.0-127.0","EE2832D62B2C48C49D222C6B09F06DB2","019ce7b5-8c4a-711f-b49a-199db19ef428","019ce7a0-0965-7aa7-a556-174d32a8e773","","null","
                    <div class=""stimulus-container"">
                        <img src=""images/causal_sequence/museum_causal/museum_causal_9.png"" class=""exp-image"">
                        <div class=""question-area""></div> 
                    </div>","null","","","","","","",""
"","","","","","html-button-response","128","401774","0.0-128.0","EE2832D62B2C48C49D222C6B09F06DB2","019ce7b5-8c4a-711f-b49a-199db19ef428","019ce7a0-0965-7aa7-a556-174d32a8e773","","781","
                    <div class=""stimulus-container"">
                        <img src=""images/causal_sequence/museum_causal/museum_causal_9.png"" class=""exp-image"">
                        <div class=""question-area"">
                            <p style=""font-size: 20px; font-weight: bold; margin: 0;"">Is there a person in this image?</p>
                        </div>
                    </div>","1","main_causal_task","9","museum_causal","","","",""
"","","","","","instructions","129","402897","0.0-129.0","EE2832D62B2C48C49D222C6B09F06DB2","019ce7b5-8c4a-711f-b49a-199db19ef428","019ce7a0-0965-7aa7-a556-174d32a8e773","[{""page_index"":0,""viewing_time"":1123}]","1123","","","","","","","","",""
"","","","","","instructions","130","409254","0.0-130.0","EE2832D62B2C48C49D222C6B09F06DB2","019ce7b5-8c4a-711f-b49a-199db19ef428","019ce7a0-0965-7aa7-a556-174d32a8e773","[{""page_index"":0,""viewing_time"":6356}]","6356","","","","","","","","",""
"","","","","","html-keyboard-response","131","410267","0.0-131.0","EE2832D62B2C48C49D222C6B09F06DB2","019ce7b5-8c4a-711f-b49a-199db19ef428","019ce7a0-0965-7aa7-a556-174d32a8e773","","null","
        <div class=""stimulus-container"" style=""display: flex; align-items: center; justify-content: center; gap: 30px;"">
            <img src=""images/instructions/movie_1.png"" class=""exp-image"">
            <div style=""font-size: 40px; font-weight: bold; color: green; border: 5px solid green; padding: 25px; border-radius: 15px; background-color: #f0fff0;"">
                WORTH<br>$1
            </div>
        </div>
        <div class=""question-area""></div>","null","","","","","","",""
"","","","","","html-button-response","132","411754","0.0-132.0","EE2832D62B2C48C49D222C6B09F06DB2","019ce7b5-8c4a-711f-b49a-199db19ef428","019ce7a0-0965-7aa7-a556-174d32a8e773","","1485","
        <div class=""stimulus-container"" style=""display: flex; align-items: center; justify-content: center; gap: 30px;"">
            <img src=""images/instructions/movie_1.png"" class=""exp-image"">
            <div style=""font-size: 40px; font-weight: bold; color: green; border: 5px solid green; padding: 25px; border-radius: 15px; background-color: #f0fff0;"">
                WORTH<br>$1
            </div>
        </div>
        <div class=""question-area"">
            <p style=""font-size: 20px; font-weight: bold; margin: 0;"">Was there a person in this image?</p>
        </div>","0","","","","","","",""
"","","","","","instructions","133","414826","0.0-133.0","EE2832D62B2C48C49D222C6B09F06DB2","019ce7b5-8c4a-711f-b49a-199db19ef428","019ce7a0-0965-7aa7-a556-174d32a8e773","[{""page_index"":0,""viewing_time"":3072}]","3072","","","","","","","","",""
"","","","","","html-keyboard-response","134","424835","0.0-134.0","EE2832D62B2C48C49D222C6B09F06DB2","019ce7b5-8c4a-711f-b49a-199db19ef428","019ce7a0-0965-7aa7-a556-174d32a8e773","","null","
            <div class=""stimulus-container"" style=""display: flex; align-items: center; justify-content: center; gap: 30px;"">
                <img src=""images/causal_sequence/coin_causal/coin_causal_7.png"" class=""exp-image"">
                <div style=""font-size: 40px; font-weight: bold; color: green; border: 5px solid green; padding: 25px; border-radius: 15px; background-color: #f0fff0;"">
                    WORTH<br>$1
                </div>
            </div>
            <div class=""question-area""></div>","null","","","","","","",""
"","","","","","html-button-response","135","426126","0.0-135.0","EE2832D62B2C48C49D222C6B09F06DB2","019ce7b5-8c4a-711f-b49a-199db19ef428","019ce7a0-0965-7aa7-a556-174d32a8e773","","1289","
            <div class=""stimulus-container"" style=""display: flex; align-items: center; justify-content: center; gap: 30px;"">
                <img src=""images/causal_sequence/coin_causal/coin_causal_7.png"" class=""exp-image"">
                <div style=""font-size: 40px; font-weight: bold; color: green; border: 5px solid green; padding: 25px; border-radius: 15px; background-color: #f0fff0;"">
                    WORTH<br>$1
                </div>
            </div>
            <div class=""question-area"">
                <p style=""font-size: 20px; font-weight: bold; margin: 0;"">Was there a person in this image?</p>
            </div>","1","part2_value_learning","","coin_causal","7","","",""
"","","","","","html-keyboard-response","136","436130","0.0-136.0","EE2832D62B2C48C49D222C6B09F06DB2","019ce7b5-8c4a-711f-b49a-199db19ef428","019ce7a0-0965-7aa7-a556-174d32a8e773","","null","
            <div class=""stimulus-container"" style=""display: flex; align-items: center; justify-content: center; gap: 30px;"">
                <img src=""images/causal_sequence/saving_a_cat_causal/saving_a_cat_causal_5.png"" class=""exp-image"">
                <div style=""font-size: 40px; font-weight: bold; color: green; border: 5px solid green; padding: 25px; border-radius: 15px; background-color: #f0fff0;"">
                    WORTH<br>$1
                </div>
            </div>
            <div class=""question-area""></div>","null","","","","","","",""
"","","","","","html-button-response","137","436894","0.0-137.0","EE2832D62B2C48C49D222C6B09F06DB2","019ce7b5-8c4a-711f-b49a-199db19ef428","019ce7a0-0965-7aa7-a556-174d32a8e773","","763","
            <div class=""stimulus-container"" style=""display: flex; align-items: center; justify-content: center; gap: 30px;"">
                <img src=""images/causal_sequence/saving_a_cat_causal/saving_a_cat_causal_5.png"" class=""exp-image"">
                <div style=""font-size: 40px; font-weight: bold; color: green; border: 5px solid green; padding: 25px; border-radius: 15px; background-color: #f0fff0;"">
                    WORTH<br>$1
                </div>
            </div>
            <div class=""question-area"">
                <p style=""font-size: 20px; font-weight: bold; margin: 0;"">Was there a person in this image?</p>
            </div>","0","part2_value_learning","","saving_a_cat_causal","5","","",""
"","","","","","html-keyboard-response","138","446905","0.0-138.0","EE2832D62B2C48C49D222C6B09F06DB2","019ce7b5-8c4a-711f-b49a-199db19ef428","019ce7a0-0965-7aa7-a556-174d32a8e773","","null","
            <div class=""stimulus-container"" style=""display: flex; align-items: center; justify-content: center; gap: 30px;"">
                <img src=""images/causal_sequence/package_causal/package_causal_6.png"" class=""exp-image"">
                <div style=""font-size: 40px; font-weight: bold; color: green; border: 5px solid green; padding: 25px; border-radius: 15px; background-color: #f0fff0;"">
                    WORTH<br>$1
                </div>
            </div>
            <div class=""question-area""></div>","null","","","","","","",""
"","","","","","html-button-response","139","447886","0.0-139.0","EE2832D62B2C48C49D222C6B09F06DB2","019ce7b5-8c4a-711f-b49a-199db19ef428","019ce7a0-0965-7aa7-a556-174d32a8e773","","980","
            <div class=""stimulus-container"" style=""display: flex; align-items: center; justify-content: center; gap: 30px;"">
                <img src=""images/causal_sequence/package_causal/package_causal_6.png"" class=""exp-image"">
                <div style=""font-size: 40px; font-weight: bold; color: green; border: 5px solid green; padding: 25px; border-radius: 15px; background-color: #f0fff0;"">
                    WORTH<br>$1
                </div>
            </div>
            <div class=""question-area"">
                <p style=""font-size: 20px; font-weight: bold; margin: 0;"">Was there a person in this image?</p>
            </div>","0","part2_value_learning","","package_causal","6","","",""
"","","","","","html-keyboard-response","140","457889","0.0-140.0","EE2832D62B2C48C49D222C6B09F06DB2","019ce7b5-8c4a-711f-b49a-199db19ef428","019ce7a0-0965-7aa7-a556-174d32a8e773","","null","
            <div class=""stimulus-container"" style=""display: flex; align-items: center; justify-content: center; gap: 30px;"">
                <img src=""images/causal_sequence/museum_causal/museum_causal_5.png"" class=""exp-image"">
                <div style=""font-size: 40px; font-weight: bold; color: green; border: 5px solid green; padding: 25px; border-radius: 15px; background-color: #f0fff0;"">
                    WORTH<br>$1
                </div>
            </div>
            <div class=""question-area""></div>","null","","","","","","",""
"","","","","","html-button-response","141","458701","0.0-141.0","EE2832D62B2C48C49D222C6B09F06DB2","019ce7b5-8c4a-711f-b49a-199db19ef428","019ce7a0-0965-7aa7-a556-174d32a8e773","","810","
            <div class=""stimulus-container"" style=""display: flex; align-items: center; justify-content: center; gap: 30px;"">
                <img src=""images/causal_sequence/museum_causal/museum_causal_5.png"" class=""exp-image"">
                <div style=""font-size: 40px; font-weight: bold; color: green; border: 5px solid green; padding: 25px; border-radius: 15px; background-color: #f0fff0;"">
                    WORTH<br>$1
                </div>
            </div>
            <div class=""question-area"">
                <p style=""font-size: 20px; font-weight: bold; margin: 0;"">Was there a person in this image?</p>
            </div>","0","part2_value_learning","","museum_causal","5","","",""
"","","","","","html-keyboard-response","142","468706","0.0-142.0","EE2832D62B2C48C49D222C6B09F06DB2","019ce7b5-8c4a-711f-b49a-199db19ef428","019ce7a0-0965-7aa7-a556-174d32a8e773","","null","
            <div class=""stimulus-container"" style=""display: flex; align-items: center; justify-content: center; gap: 30px;"">
                <img src=""images/causal_sequence/dog_causal/dog_causal_5.png"" class=""exp-image"">
                <div style=""font-size: 40px; font-weight: bold; color: green; border: 5px solid green; padding: 25px; border-radius: 15px; background-color: #f0fff0;"">
                    WORTH<br>$1
                </div>
            </div>
            <div class=""question-area""></div>","null","","","","","","",""
"","","","","","html-button-response","143","469505","0.0-143.0","EE2832D62B2C48C49D222C6B09F06DB2","019ce7b5-8c4a-711f-b49a-199db19ef428","019ce7a0-0965-7aa7-a556-174d32a8e773","","798","
            <div class=""stimulus-container"" style=""display: flex; align-items: center; justify-content: center; gap: 30px;"">
                <img src=""images/causal_sequence/dog_causal/dog_causal_5.png"" class=""exp-image"">
                <div style=""font-size: 40px; font-weight: bold; color: green; border: 5px solid green; padding: 25px; border-radius: 15px; background-color: #f0fff0;"">
                    WORTH<br>$1
                </div>
            </div>
            <div class=""question-area"">
                <p style=""font-size: 20px; font-weight: bold; margin: 0;"">Was there a person in this image?</p>
            </div>","0","part2_value_learning","","dog_causal","5","","",""
"","","","","","html-keyboard-response","144","479512","0.0-144.0","EE2832D62B2C48C49D222C6B09F06DB2","019ce7b5-8c4a-711f-b49a-199db19ef428","019ce7a0-0965-7aa7-a556-174d32a8e773","","null","
            <div class=""stimulus-container"" style=""display: flex; align-items: center; justify-content: center; gap: 30px;"">
                <img src=""images/causal_sequence/the_performance_causal/the_performance_causal_6.png"" class=""exp-image"">
                <div style=""font-size: 40px; font-weight: bold; color: green; border: 5px solid green; padding: 25px; border-radius: 15px; background-color: #f0fff0;"">
                    WORTH<br>$1
                </div>
            </div>
            <div class=""question-area""></div>","null","","","","","","",""
"","","","","","html-button-response","145","480626","0.0-145.0","EE2832D62B2C48C49D222C6B09F06DB2","019ce7b5-8c4a-711f-b49a-199db19ef428","019ce7a0-0965-7aa7-a556-174d32a8e773","","1113","
            <div class=""stimulus-container"" style=""display: flex; align-items: center; justify-content: center; gap: 30px;"">
                <img src=""images/causal_sequence/the_performance_causal/the_performance_causal_6.png"" class=""exp-image"">
                <div style=""font-size: 40px; font-weight: bold; color: green; border: 5px solid green; padding: 25px; border-radius: 15px; background-color: #f0fff0;"">
                    WORTH<br>$1
                </div>
            </div>
            <div class=""question-area"">
                <p style=""font-size: 20px; font-weight: bold; margin: 0;"">Was there a person in this image?</p>
            </div>","0","part2_value_learning","","the_performance_causal","6","","",""
"","","","","","instructions","146","481769","0.0-146.0","EE2832D62B2C48C49D222C6B09F06DB2","019ce7b5-8c4a-711f-b49a-199db19ef428","019ce7a0-0965-7aa7-a556-174d32a8e773","[{""page_index"":0,""viewing_time"":1143}]","1143","","","","","","","","",""
"","","","","","instructions","147","482918","0.0-147.0","EE2832D62B2C48C49D222C6B09F06DB2","019ce7b5-8c4a-711f-b49a-199db19ef428","019ce7a0-0965-7aa7-a556-174d32a8e773","[{""page_index"":0,""viewing_time"":1148}]","1149","","","","","","","","",""
"","","","","","html-keyboard-response","148","492929","0.0-148.0-0.0","EE2832D62B2C48C49D222C6B09F06DB2","019ce7b5-8c4a-711f-b49a-199db19ef428","019ce7a0-0965-7aa7-a556-174d32a8e773","","null","
                        <div style=""font-family: Arial; margin-bottom: 20px;""><h3>Which image is more valuable?</h3></div>
                        <div class=""stimulus-container"" style=""display: flex; width: 1100px; justify-content: center; gap: 50px;"">
                            <img src=""images/causal_sequence/museum_causal/museum_causal_7.png"" class=""exp-image"">
                            <img src=""images/causal_sequence/museum_causal/museum_causal_3.png"" class=""exp-image"">
                        </div>","null","","","","","","",""
"","","","","","html-button-response","149","497914","0.0-148.0-1.0","EE2832D62B2C48C49D222C6B09F06DB2","019ce7b5-8c4a-711f-b49a-199db19ef428","019ce7a0-0965-7aa7-a556-174d32a8e773","","4983","
                        <div style=""font-family: Arial; margin-bottom: 20px;""><h3>Which image is more valuable?</h3></div>
                        <div class=""stimulus-container"" style=""display: flex; width: 1100px; justify-content: center; gap: 50px;"">
                            <img src=""images/causal_sequence/museum_causal/museum_causal_7.png"" class=""exp-image"">
                            <img src=""images/causal_sequence/museum_causal/museum_causal_3.png"" class=""exp-image"">
                        </div>","0","part3_final_choice","","museum_causal","","5","7","2"
"","","","","","html-keyboard-response","150","507928","0.0-149.0-0.0","EE2832D62B2C48C49D222C6B09F06DB2","019ce7b5-8c4a-711f-b49a-199db19ef428","019ce7a0-0965-7aa7-a556-174d32a8e773","","null","
                        <div style=""font-family: Arial; margin-bottom: 20px;""><h3>Which image is more valuable?</h3></div>
                        <div class=""stimulus-container"" style=""display: flex; width: 1100px; justify-content: center; gap: 50px;"">
                            <img src=""images/causal_sequence/the_performance_causal/the_performance_causal_4.png"" class=""exp-image"">
                            <img src=""images/causal_sequence/the_performance_causal/the_performance_causal_8.png"" class=""exp-image"">
                        </div>","null","","","","","","",""
"","","","","","html-button-response","151","508730","0.0-149.0-1.0","EE2832D62B2C48C49D222C6B09F06DB2","019ce7b5-8c4a-711f-b49a-199db19ef428","019ce7a0-0965-7aa7-a556-174d32a8e773","","801","
                        <div style=""font-family: Arial; margin-bottom: 20px;""><h3>Which image is more valuable?</h3></div>
                        <div class=""stimulus-container"" style=""display: flex; width: 1100px; justify-content: center; gap: 50px;"">
                            <img src=""images/causal_sequence/the_performance_causal/the_performance_causal_4.png"" class=""exp-image"">
                            <img src=""images/causal_sequence/the_performance_causal/the_performance_causal_8.png"" class=""exp-image"">
                        </div>","1","part3_final_choice","","the_performance_causal","","6","8","2"
"","","","","","html-keyboard-response","152","518738","0.0-150.0-0.0","EE2832D62B2C48C49D222C6B09F06DB2","019ce7b5-8c4a-711f-b49a-199db19ef428","019ce7a0-0965-7aa7-a556-174d32a8e773","","null","
                        <div style=""font-family: Arial; margin-bottom: 20px;""><h3>Which image is more valuable?</h3></div>
                        <div class=""stimulus-container"" style=""display: flex; width: 1100px; justify-content: center; gap: 50px;"">
                            <img src=""images/causal_sequence/coin_causal/coin_causal_9.png"" class=""exp-image"">
                            <img src=""images/causal_sequence/coin_causal/coin_causal_5.png"" class=""exp-image"">
                        </div>","null","","","","","","",""
"","","","","","html-button-response","153","519414","0.0-150.0-1.0","EE2832D62B2C48C49D222C6B09F06DB2","019ce7b5-8c4a-711f-b49a-199db19ef428","019ce7a0-0965-7aa7-a556-174d32a8e773","","674","
                        <div style=""font-family: Arial; margin-bottom: 20px;""><h3>Which image is more valuable?</h3></div>
                        <div class=""stimulus-container"" style=""display: flex; width: 1100px; justify-content: center; gap: 50px;"">
                            <img src=""images/causal_sequence/coin_causal/coin_causal_9.png"" class=""exp-image"">
                            <img src=""images/causal_sequence/coin_causal/coin_causal_5.png"" class=""exp-image"">
                        </div>","1","part3_final_choice","","coin_causal","","7","5","-2"
"","","","","","html-keyboard-response","154","529418","0.0-151.0-0.0","EE2832D62B2C48C49D222C6B09F06DB2","019ce7b5-8c4a-711f-b49a-199db19ef428","019ce7a0-0965-7aa7-a556-174d32a8e773","","null","
                        <div style=""font-family: Arial; margin-bottom: 20px;""><h3>Which image is more valuable?</h3></div>
                        <div class=""stimulus-container"" style=""display: flex; width: 1100px; justify-content: center; gap: 50px;"">
                            <img src=""images/causal_sequence/saving_a_cat_causal/saving_a_cat_causal_7.png"" class=""exp-image"">
                            <img src=""images/causal_sequence/saving_a_cat_causal/saving_a_cat_causal_3.png"" class=""exp-image"">
                        </div>","null","","","","","","",""
"","","","","","html-button-response","155","530050","0.0-151.0-1.0","EE2832D62B2C48C49D222C6B09F06DB2","019ce7b5-8c4a-711f-b49a-199db19ef428","019ce7a0-0965-7aa7-a556-174d32a8e773","","630","
                        <div style=""font-family: Arial; margin-bottom: 20px;""><h3>Which image is more valuable?</h3></div>
                        <div class=""stimulus-container"" style=""display: flex; width: 1100px; justify-content: center; gap: 50px;"">
                            <img src=""images/causal_sequence/saving_a_cat_causal/saving_a_cat_causal_7.png"" class=""exp-image"">
                            <img src=""images/causal_sequence/saving_a_cat_causal/saving_a_cat_causal_3.png"" class=""exp-image"">
                        </div>","0","part3_final_choice","","saving_a_cat_causal","","5","7","2"
"","","","","","html-keyboard-response","156","540060","0.0-152.0-0.0","EE2832D62B2C48C49D222C6B09F06DB2","019ce7b5-8c4a-711f-b49a-199db19ef428","019ce7a0-0965-7aa7-a556-174d32a8e773","","null","
                        <div style=""font-family: Arial; margin-bottom: 20px;""><h3>Which image is more valuable?</h3></div>
                        <div class=""stimulus-container"" style=""display: flex; width: 1100px; justify-content: center; gap: 50px;"">
                            <img src=""images/causal_sequence/dog_causal/dog_causal_3.png"" class=""exp-image"">
                            <img src=""images/causal_sequence/dog_causal/dog_causal_7.png"" class=""exp-image"">
                        </div>","null","","","","","","",""
"","","","","","html-button-response","157","540869","0.0-152.0-1.0","EE2832D62B2C48C49D222C6B09F06DB2","019ce7b5-8c4a-711f-b49a-199db19ef428","019ce7a0-0965-7aa7-a556-174d32a8e773","","809","
                        <div style=""font-family: Arial; margin-bottom: 20px;""><h3>Which image is more valuable?</h3></div>
                        <div class=""stimulus-container"" style=""display: flex; width: 1100px; justify-content: center; gap: 50px;"">
                            <img src=""images/causal_sequence/dog_causal/dog_causal_3.png"" class=""exp-image"">
                            <img src=""images/causal_sequence/dog_causal/dog_causal_7.png"" class=""exp-image"">
                        </div>","0","part3_final_choice","","dog_causal","","5","3","-2"
"","","","","","html-keyboard-response","158","550886","0.0-153.0-0.0","EE2832D62B2C48C49D222C6B09F06DB2","019ce7b5-8c4a-711f-b49a-199db19ef428","019ce7a0-0965-7aa7-a556-174d32a8e773","","null","
                        <div style=""font-family: Arial; margin-bottom: 20px;""><h3>Which image is more valuable?</h3></div>
                        <div class=""stimulus-container"" style=""display: flex; width: 1100px; justify-content: center; gap: 50px;"">
                            <img src=""images/causal_sequence/package_causal/package_causal_4.png"" class=""exp-image"">
                            <img src=""images/causal_sequence/package_causal/package_causal_8.png"" class=""exp-image"">
                        </div>","null","","","","","","",""
"","","","","","html-button-response","159","551682","0.0-153.0-1.0","EE2832D62B2C48C49D222C6B09F06DB2","019ce7b5-8c4a-711f-b49a-199db19ef428","019ce7a0-0965-7aa7-a556-174d32a8e773","","795","
                        <div style=""font-family: Arial; margin-bottom: 20px;""><h3>Which image is more valuable?</h3></div>
                        <div class=""stimulus-container"" style=""display: flex; width: 1100px; justify-content: center; gap: 50px;"">
                            <img src=""images/causal_sequence/package_causal/package_causal_4.png"" class=""exp-image"">
                            <img src=""images/causal_sequence/package_causal/package_causal_8.png"" class=""exp-image"">
                        </div>","1","part3_final_choice","","package_causal","","6","8","2"
"","","","","","survey-text","160","581325","0.0-154.0","EE2832D62B2C48C49D222C6B09F06DB2","019ce7b5-8c4a-711f-b49a-199db19ef428","019ce7a0-0965-7aa7-a556-174d32a8e773","","29637","","{""gender"":""FEMALE"",""age"":""33"",""decision_strategy"":""Picture quality, what means more within my heart"",""consistency_check"":""Yes. I used the same deciding factors""}","demographics_and_strategy","","","","","",""
"","","","","","instructions","161","582574","0.0-155.0","EE2832D62B2C48C49D222C6B09F06DB2","019ce7b5-8c4a-711f-b49a-199db19ef428","019ce7a0-0965-7aa7-a556-174d32a8e773","[{""page_index"":0,""viewing_time"":1248}]","1248","","","","","","","","",""
