"success","timeout","failed_images","failed_audio","failed_video","trial_type","trial_index","time_elapsed","internal_node_id","subject_id","study_id","session_id","view_history","rt","stimulus","response","task","image_index","folder","sequence_type","valuable_image_index","reward_type","chosen_image_index","target_X","correct_choice"
"true","false","[]","[]","[]","preload","0","30190","0.0-0.0","4B1C31AE98E84D668428209AE669585D","019cf81c-115b-741d-b0cb-0fdc704b757b","019cf80d-4266-7117-8a51-54e13c84aca4","","","","","","","","","","","","",""
"","","","","","instructions","1","41660","0.0-1.0","4B1C31AE98E84D668428209AE669585D","019cf81c-115b-741d-b0cb-0fdc704b757b","019cf80d-4266-7117-8a51-54e13c84aca4","[{""page_index"":0,""viewing_time"":11466}]","11467","","","","","","","","","","",""
"","","","","","instructions","2","51596","0.0-2.0","4B1C31AE98E84D668428209AE669585D","019cf81c-115b-741d-b0cb-0fdc704b757b","019cf80d-4266-7117-8a51-54e13c84aca4","[{""page_index"":0,""viewing_time"":9935}]","9935","","","","","","","","","","",""
"true","","","","","fullscreen","3","53869","0.0-3.0","4B1C31AE98E84D668428209AE669585D","019cf81c-115b-741d-b0cb-0fdc704b757b","019cf80d-4266-7117-8a51-54e13c84aca4","","1216","","","","","","","","","","",""
"","","","","","instructions","4","59203","0.0-4.0","4B1C31AE98E84D668428209AE669585D","019cf81c-115b-741d-b0cb-0fdc704b757b","019cf80d-4266-7117-8a51-54e13c84aca4","[{""page_index"":0,""viewing_time"":5333}]","5333","","","","","","","","","","",""
"","","","","","instructions","5","65060","0.0-5.0","4B1C31AE98E84D668428209AE669585D","019cf81c-115b-741d-b0cb-0fdc704b757b","019cf80d-4266-7117-8a51-54e13c84aca4","[{""page_index"":0,""viewing_time"":5855}]","5856","","","","","","","","","","",""
"","","","","","html-keyboard-response","6","69063","0.0-6.0","4B1C31AE98E84D668428209AE669585D","019cf81c-115b-741d-b0cb-0fdc704b757b","019cf80d-4266-7117-8a51-54e13c84aca4","","null","
                <div class=""stimulus-container"">
                    <img src=""images/instructions/movie_1.png"" class=""exp-image"">
                    <div class=""question-area""></div> 
                </div>","null","","","","","","","","",""
"","","","","","html-button-response","7","71331","0.0-7.0","4B1C31AE98E84D668428209AE669585D","019cf81c-115b-741d-b0cb-0fdc704b757b","019cf80d-4266-7117-8a51-54e13c84aca4","","2265","
                <div class=""stimulus-container"">
                    <img src=""images/instructions/movie_1.png"" class=""exp-image"">
                    <div class=""question-area"">
                        <p style=""font-size: 20px; font-weight: bold; margin: 0;"">Was there a person in this image?</p>
                    </div>
                </div>","0","example_question","1","","","","","","",""
"","","","","","html-keyboard-response","8","75348","0.0-8.0","4B1C31AE98E84D668428209AE669585D","019cf81c-115b-741d-b0cb-0fdc704b757b","019cf80d-4266-7117-8a51-54e13c84aca4","","null","
                <div class=""stimulus-container"">
                    <img src=""images/instructions/movie_2.png"" class=""exp-image"">
                    <div class=""question-area""></div> 
                </div>","null","","","","","","","","",""
"","","","","","html-button-response","9","76508","0.0-9.0","4B1C31AE98E84D668428209AE669585D","019cf81c-115b-741d-b0cb-0fdc704b757b","019cf80d-4266-7117-8a51-54e13c84aca4","","1158","
                <div class=""stimulus-container"">
                    <img src=""images/instructions/movie_2.png"" class=""exp-image"">
                    <div class=""question-area"">
                        <p style=""font-size: 20px; font-weight: bold; margin: 0;"">Was there a person in this image?</p>
                    </div>
                </div>","0","example_question","2","","","","","","",""
"","","","","","html-keyboard-response","10","80511","0.0-10.0","4B1C31AE98E84D668428209AE669585D","019cf81c-115b-741d-b0cb-0fdc704b757b","019cf80d-4266-7117-8a51-54e13c84aca4","","null","
                <div class=""stimulus-container"">
                    <img src=""images/instructions/movie_3.png"" class=""exp-image"">
                    <div class=""question-area""></div> 
                </div>","null","","","","","","","","",""
"","","","","","html-button-response","11","81468","0.0-11.0","4B1C31AE98E84D668428209AE669585D","019cf81c-115b-741d-b0cb-0fdc704b757b","019cf80d-4266-7117-8a51-54e13c84aca4","","954","
                <div class=""stimulus-container"">
                    <img src=""images/instructions/movie_3.png"" class=""exp-image"">
                    <div class=""question-area"">
                        <p style=""font-size: 20px; font-weight: bold; margin: 0;"">Was there a person in this image?</p>
                    </div>
                </div>","0","example_question","3","","","","","","",""
"","","","","","html-keyboard-response","12","85474","0.0-12.0","4B1C31AE98E84D668428209AE669585D","019cf81c-115b-741d-b0cb-0fdc704b757b","019cf80d-4266-7117-8a51-54e13c84aca4","","null","
                <div class=""stimulus-container"">
                    <img src=""images/instructions/movie_4.png"" class=""exp-image"">
                    <div class=""question-area""></div> 
                </div>","null","","","","","","","","",""
"","","","","","html-button-response","13","86003","0.0-13.0","4B1C31AE98E84D668428209AE669585D","019cf81c-115b-741d-b0cb-0fdc704b757b","019cf80d-4266-7117-8a51-54e13c84aca4","","527","
                <div class=""stimulus-container"">
                    <img src=""images/instructions/movie_4.png"" class=""exp-image"">
                    <div class=""question-area"">
                        <p style=""font-size: 20px; font-weight: bold; margin: 0;"">Was there a person in this image?</p>
                    </div>
                </div>","0","example_question","4","","","","","","",""
"","","","","","instructions","14","87235","0.0-14.0","4B1C31AE98E84D668428209AE669585D","019cf81c-115b-741d-b0cb-0fdc704b757b","019cf80d-4266-7117-8a51-54e13c84aca4","[{""page_index"":0,""viewing_time"":1231}]","1232","","","","","","","","","","",""
"","","","","","instructions","15","94411","0.0-15.0","4B1C31AE98E84D668428209AE669585D","019cf81c-115b-741d-b0cb-0fdc704b757b","019cf80d-4266-7117-8a51-54e13c84aca4","[{""page_index"":0,""viewing_time"":7175}]","7175","","","","","","","","","","",""
"","","","","","html-keyboard-response","16","95415","0.0-16.0","4B1C31AE98E84D668428209AE669585D","019cf81c-115b-741d-b0cb-0fdc704b757b","019cf80d-4266-7117-8a51-54e13c84aca4","","null","<div style=""background-color: white; width: 100vw; height: 100vh;""></div>","null","","","","","","","","",""
"","","","","","html-keyboard-response","17","100419","0.0-17.0","4B1C31AE98E84D668428209AE669585D","019cf81c-115b-741d-b0cb-0fdc704b757b","019cf80d-4266-7117-8a51-54e13c84aca4","","null","
                <div class=""stimulus-container"">
                    <img src=""images/semantic_sequence/physical_activity_semantic/physical_activity_semantic_1.png"" class=""exp-image"">
                    <div class=""question-area""></div> 
                </div>","null","","","","","","","","",""
"","","","","","html-button-response","18","101516","0.0-18.0","4B1C31AE98E84D668428209AE669585D","019cf81c-115b-741d-b0cb-0fdc704b757b","019cf80d-4266-7117-8a51-54e13c84aca4","","1095","
                <div class=""stimulus-container"">
                    <img src=""images/semantic_sequence/physical_activity_semantic/physical_activity_semantic_1.png"" class=""exp-image"">
                    <div class=""question-area"">
                        <p style=""font-size: 20px; font-weight: bold; margin: 0;"">Is there a person in this image?</p>
                    </div>
                </div>","0","main_experiment_trial","1","physical_activity_semantic","semantic_sequence","","","","",""
"","","","","","html-keyboard-response","19","106517","0.0-19.0","4B1C31AE98E84D668428209AE669585D","019cf81c-115b-741d-b0cb-0fdc704b757b","019cf80d-4266-7117-8a51-54e13c84aca4","","null","
                <div class=""stimulus-container"">
                    <img src=""images/semantic_sequence/physical_activity_semantic/physical_activity_semantic_2.png"" class=""exp-image"">
                    <div class=""question-area""></div> 
                </div>","null","","","","","","","","",""
"","","","","","html-button-response","20","107315","0.0-20.0","4B1C31AE98E84D668428209AE669585D","019cf81c-115b-741d-b0cb-0fdc704b757b","019cf80d-4266-7117-8a51-54e13c84aca4","","796","
                <div class=""stimulus-container"">
                    <img src=""images/semantic_sequence/physical_activity_semantic/physical_activity_semantic_2.png"" class=""exp-image"">
                    <div class=""question-area"">
                        <p style=""font-size: 20px; font-weight: bold; margin: 0;"">Is there a person in this image?</p>
                    </div>
                </div>","0","main_experiment_trial","2","physical_activity_semantic","semantic_sequence","","","","",""
"","","","","","html-keyboard-response","21","112322","0.0-21.0","4B1C31AE98E84D668428209AE669585D","019cf81c-115b-741d-b0cb-0fdc704b757b","019cf80d-4266-7117-8a51-54e13c84aca4","","null","
                <div class=""stimulus-container"">
                    <img src=""images/semantic_sequence/physical_activity_semantic/physical_activity_semantic_3.png"" class=""exp-image"">
                    <div class=""question-area""></div> 
                </div>","null","","","","","","","","",""
"","","","","","html-button-response","22","113059","0.0-22.0","4B1C31AE98E84D668428209AE669585D","019cf81c-115b-741d-b0cb-0fdc704b757b","019cf80d-4266-7117-8a51-54e13c84aca4","","735","
                <div class=""stimulus-container"">
                    <img src=""images/semantic_sequence/physical_activity_semantic/physical_activity_semantic_3.png"" class=""exp-image"">
                    <div class=""question-area"">
                        <p style=""font-size: 20px; font-weight: bold; margin: 0;"">Is there a person in this image?</p>
                    </div>
                </div>","0","main_experiment_trial","3","physical_activity_semantic","semantic_sequence","","","","",""
"","","","","","html-keyboard-response","23","118063","0.0-23.0","4B1C31AE98E84D668428209AE669585D","019cf81c-115b-741d-b0cb-0fdc704b757b","019cf80d-4266-7117-8a51-54e13c84aca4","","null","
                <div class=""stimulus-container"">
                    <img src=""images/semantic_sequence/physical_activity_semantic/physical_activity_semantic_4.png"" class=""exp-image"">
                    <div class=""question-area""></div> 
                </div>","null","","","","","","","","",""
"","","","","","html-button-response","24","118716","0.0-24.0","4B1C31AE98E84D668428209AE669585D","019cf81c-115b-741d-b0cb-0fdc704b757b","019cf80d-4266-7117-8a51-54e13c84aca4","","650","
                <div class=""stimulus-container"">
                    <img src=""images/semantic_sequence/physical_activity_semantic/physical_activity_semantic_4.png"" class=""exp-image"">
                    <div class=""question-area"">
                        <p style=""font-size: 20px; font-weight: bold; margin: 0;"">Is there a person in this image?</p>
                    </div>
                </div>","0","main_experiment_trial","4","physical_activity_semantic","semantic_sequence","","","","",""
"","","","","","html-keyboard-response","25","123721","0.0-25.0","4B1C31AE98E84D668428209AE669585D","019cf81c-115b-741d-b0cb-0fdc704b757b","019cf80d-4266-7117-8a51-54e13c84aca4","","null","
                <div class=""stimulus-container"">
                    <img src=""images/semantic_sequence/physical_activity_semantic/physical_activity_semantic_5.png"" class=""exp-image"">
                    <div class=""question-area""></div> 
                </div>","null","","","","","","","","",""
"","","","","","html-button-response","26","124419","0.0-26.0","4B1C31AE98E84D668428209AE669585D","019cf81c-115b-741d-b0cb-0fdc704b757b","019cf80d-4266-7117-8a51-54e13c84aca4","","696","
                <div class=""stimulus-container"">
                    <img src=""images/semantic_sequence/physical_activity_semantic/physical_activity_semantic_5.png"" class=""exp-image"">
                    <div class=""question-area"">
                        <p style=""font-size: 20px; font-weight: bold; margin: 0;"">Is there a person in this image?</p>
                    </div>
                </div>","0","main_experiment_trial","5","physical_activity_semantic","semantic_sequence","","","","",""
"","","","","","html-keyboard-response","27","129434","0.0-27.0","4B1C31AE98E84D668428209AE669585D","019cf81c-115b-741d-b0cb-0fdc704b757b","019cf80d-4266-7117-8a51-54e13c84aca4","","null","
                <div class=""stimulus-container"">
                    <img src=""images/semantic_sequence/physical_activity_semantic/physical_activity_semantic_6.png"" class=""exp-image"">
                    <div class=""question-area""></div> 
                </div>","null","","","","","","","","",""
"","","","","","html-button-response","28","130195","0.0-28.0","4B1C31AE98E84D668428209AE669585D","019cf81c-115b-741d-b0cb-0fdc704b757b","019cf80d-4266-7117-8a51-54e13c84aca4","","760","
                <div class=""stimulus-container"">
                    <img src=""images/semantic_sequence/physical_activity_semantic/physical_activity_semantic_6.png"" class=""exp-image"">
                    <div class=""question-area"">
                        <p style=""font-size: 20px; font-weight: bold; margin: 0;"">Is there a person in this image?</p>
                    </div>
                </div>","0","main_experiment_trial","6","physical_activity_semantic","semantic_sequence","","","","",""
"","","","","","html-keyboard-response","29","135207","0.0-29.0","4B1C31AE98E84D668428209AE669585D","019cf81c-115b-741d-b0cb-0fdc704b757b","019cf80d-4266-7117-8a51-54e13c84aca4","","null","
                <div class=""stimulus-container"">
                    <img src=""images/semantic_sequence/physical_activity_semantic/physical_activity_semantic_7.png"" class=""exp-image"">
                    <div class=""question-area""></div> 
                </div>","null","","","","","","","","",""
"","","","","","html-button-response","30","135700","0.0-30.0","4B1C31AE98E84D668428209AE669585D","019cf81c-115b-741d-b0cb-0fdc704b757b","019cf80d-4266-7117-8a51-54e13c84aca4","","491","
                <div class=""stimulus-container"">
                    <img src=""images/semantic_sequence/physical_activity_semantic/physical_activity_semantic_7.png"" class=""exp-image"">
                    <div class=""question-area"">
                        <p style=""font-size: 20px; font-weight: bold; margin: 0;"">Is there a person in this image?</p>
                    </div>
                </div>","0","main_experiment_trial","7","physical_activity_semantic","semantic_sequence","","","","",""
"","","","","","html-keyboard-response","31","140709","0.0-31.0","4B1C31AE98E84D668428209AE669585D","019cf81c-115b-741d-b0cb-0fdc704b757b","019cf80d-4266-7117-8a51-54e13c84aca4","","null","
                <div class=""stimulus-container"">
                    <img src=""images/semantic_sequence/physical_activity_semantic/physical_activity_semantic_8.png"" class=""exp-image"">
                    <div class=""question-area""></div> 
                </div>","null","","","","","","","","",""
"","","","","","html-button-response","32","141859","0.0-32.0","4B1C31AE98E84D668428209AE669585D","019cf81c-115b-741d-b0cb-0fdc704b757b","019cf80d-4266-7117-8a51-54e13c84aca4","","1148","
                <div class=""stimulus-container"">
                    <img src=""images/semantic_sequence/physical_activity_semantic/physical_activity_semantic_8.png"" class=""exp-image"">
                    <div class=""question-area"">
                        <p style=""font-size: 20px; font-weight: bold; margin: 0;"">Is there a person in this image?</p>
                    </div>
                </div>","0","main_experiment_trial","8","physical_activity_semantic","semantic_sequence","","","","",""
"","","","","","html-keyboard-response","33","146863","0.0-33.0","4B1C31AE98E84D668428209AE669585D","019cf81c-115b-741d-b0cb-0fdc704b757b","019cf80d-4266-7117-8a51-54e13c84aca4","","null","
                <div class=""stimulus-container"">
                    <img src=""images/semantic_sequence/physical_activity_semantic/physical_activity_semantic_9.png"" class=""exp-image"">
                    <div class=""question-area""></div> 
                </div>","null","","","","","","","","",""
"","","","","","html-button-response","34","147516","0.0-34.0","4B1C31AE98E84D668428209AE669585D","019cf81c-115b-741d-b0cb-0fdc704b757b","019cf80d-4266-7117-8a51-54e13c84aca4","","651","
                <div class=""stimulus-container"">
                    <img src=""images/semantic_sequence/physical_activity_semantic/physical_activity_semantic_9.png"" class=""exp-image"">
                    <div class=""question-area"">
                        <p style=""font-size: 20px; font-weight: bold; margin: 0;"">Is there a person in this image?</p>
                    </div>
                </div>","0","main_experiment_trial","9","physical_activity_semantic","semantic_sequence","","","","",""
"","","","","","html-keyboard-response","35","152533","0.0-35.0","4B1C31AE98E84D668428209AE669585D","019cf81c-115b-741d-b0cb-0fdc704b757b","019cf80d-4266-7117-8a51-54e13c84aca4","","null","
                <div class=""stimulus-container"">
                    <img src=""images/semantic_sequence/physical_activity_semantic/physical_activity_semantic_ten.png"" class=""exp-image"">
                    <div class=""question-area""></div> 
                </div>","null","","","","","","","","",""
"","","","","","html-button-response","36","153227","0.0-36.0","4B1C31AE98E84D668428209AE669585D","019cf81c-115b-741d-b0cb-0fdc704b757b","019cf80d-4266-7117-8a51-54e13c84aca4","","692","
                <div class=""stimulus-container"">
                    <img src=""images/semantic_sequence/physical_activity_semantic/physical_activity_semantic_ten.png"" class=""exp-image"">
                    <div class=""question-area"">
                        <p style=""font-size: 20px; font-weight: bold; margin: 0;"">Is there a person in this image?</p>
                    </div>
                </div>","0","main_experiment_trial","ten","physical_activity_semantic","semantic_sequence","","","","",""
"","","","","","html-keyboard-response","37","154244","0.0-37.0","4B1C31AE98E84D668428209AE669585D","019cf81c-115b-741d-b0cb-0fdc704b757b","019cf80d-4266-7117-8a51-54e13c84aca4","","null","<div style=""background-color: white; width: 100vw; height: 100vh;""></div>","null","","","","","","","","",""
"","","","","","html-keyboard-response","38","159255","0.0-38.0","4B1C31AE98E84D668428209AE669585D","019cf81c-115b-741d-b0cb-0fdc704b757b","019cf80d-4266-7117-8a51-54e13c84aca4","","null","
                <div class=""stimulus-container"">
                    <img src=""images/semantic_sequence/creative_activities_semantic/creative_activities_semantic_1.png"" class=""exp-image"">
                    <div class=""question-area""></div> 
                </div>","null","","","","","","","","",""
"","","","","","html-button-response","39","160035","0.0-39.0","4B1C31AE98E84D668428209AE669585D","019cf81c-115b-741d-b0cb-0fdc704b757b","019cf80d-4266-7117-8a51-54e13c84aca4","","778","
                <div class=""stimulus-container"">
                    <img src=""images/semantic_sequence/creative_activities_semantic/creative_activities_semantic_1.png"" class=""exp-image"">
                    <div class=""question-area"">
                        <p style=""font-size: 20px; font-weight: bold; margin: 0;"">Is there a person in this image?</p>
                    </div>
                </div>","0","main_experiment_trial","1","creative_activities_semantic","semantic_sequence","","","","",""
"","","","","","html-keyboard-response","40","165051","0.0-40.0","4B1C31AE98E84D668428209AE669585D","019cf81c-115b-741d-b0cb-0fdc704b757b","019cf80d-4266-7117-8a51-54e13c84aca4","","null","
                <div class=""stimulus-container"">
                    <img src=""images/semantic_sequence/creative_activities_semantic/creative_activities_semantic_2.png"" class=""exp-image"">
                    <div class=""question-area""></div> 
                </div>","null","","","","","","","","",""
"","","","","","html-button-response","41","165691","0.0-41.0","4B1C31AE98E84D668428209AE669585D","019cf81c-115b-741d-b0cb-0fdc704b757b","019cf80d-4266-7117-8a51-54e13c84aca4","","638","
                <div class=""stimulus-container"">
                    <img src=""images/semantic_sequence/creative_activities_semantic/creative_activities_semantic_2.png"" class=""exp-image"">
                    <div class=""question-area"">
                        <p style=""font-size: 20px; font-weight: bold; margin: 0;"">Is there a person in this image?</p>
                    </div>
                </div>","0","main_experiment_trial","2","creative_activities_semantic","semantic_sequence","","","","",""
"","","","","","html-keyboard-response","42","170698","0.0-42.0","4B1C31AE98E84D668428209AE669585D","019cf81c-115b-741d-b0cb-0fdc704b757b","019cf80d-4266-7117-8a51-54e13c84aca4","","null","
                <div class=""stimulus-container"">
                    <img src=""images/semantic_sequence/creative_activities_semantic/creative_activities_semantic_3.png"" class=""exp-image"">
                    <div class=""question-area""></div> 
                </div>","null","","","","","","","","",""
"","","","","","html-button-response","43","171387","0.0-43.0","4B1C31AE98E84D668428209AE669585D","019cf81c-115b-741d-b0cb-0fdc704b757b","019cf80d-4266-7117-8a51-54e13c84aca4","","688","
                <div class=""stimulus-container"">
                    <img src=""images/semantic_sequence/creative_activities_semantic/creative_activities_semantic_3.png"" class=""exp-image"">
                    <div class=""question-area"">
                        <p style=""font-size: 20px; font-weight: bold; margin: 0;"">Is there a person in this image?</p>
                    </div>
                </div>","0","main_experiment_trial","3","creative_activities_semantic","semantic_sequence","","","","",""
"","","","","","html-keyboard-response","44","176391","0.0-44.0","4B1C31AE98E84D668428209AE669585D","019cf81c-115b-741d-b0cb-0fdc704b757b","019cf80d-4266-7117-8a51-54e13c84aca4","","null","
                <div class=""stimulus-container"">
                    <img src=""images/semantic_sequence/creative_activities_semantic/creative_activities_semantic_4.png"" class=""exp-image"">
                    <div class=""question-area""></div> 
                </div>","null","","","","","","","","",""
"","","","","","html-button-response","45","177003","0.0-45.0","4B1C31AE98E84D668428209AE669585D","019cf81c-115b-741d-b0cb-0fdc704b757b","019cf80d-4266-7117-8a51-54e13c84aca4","","611","
                <div class=""stimulus-container"">
                    <img src=""images/semantic_sequence/creative_activities_semantic/creative_activities_semantic_4.png"" class=""exp-image"">
                    <div class=""question-area"">
                        <p style=""font-size: 20px; font-weight: bold; margin: 0;"">Is there a person in this image?</p>
                    </div>
                </div>","0","main_experiment_trial","4","creative_activities_semantic","semantic_sequence","","","","",""
"","","","","","html-keyboard-response","46","182014","0.0-46.0","4B1C31AE98E84D668428209AE669585D","019cf81c-115b-741d-b0cb-0fdc704b757b","019cf80d-4266-7117-8a51-54e13c84aca4","","null","
                <div class=""stimulus-container"">
                    <img src=""images/semantic_sequence/creative_activities_semantic/creative_activities_semantic_5.png"" class=""exp-image"">
                    <div class=""question-area""></div> 
                </div>","null","","","","","","","","",""
"","","","","","html-button-response","47","182827","0.0-47.0","4B1C31AE98E84D668428209AE669585D","019cf81c-115b-741d-b0cb-0fdc704b757b","019cf80d-4266-7117-8a51-54e13c84aca4","","812","
                <div class=""stimulus-container"">
                    <img src=""images/semantic_sequence/creative_activities_semantic/creative_activities_semantic_5.png"" class=""exp-image"">
                    <div class=""question-area"">
                        <p style=""font-size: 20px; font-weight: bold; margin: 0;"">Is there a person in this image?</p>
                    </div>
                </div>","0","main_experiment_trial","5","creative_activities_semantic","semantic_sequence","","","","",""
"","","","","","html-keyboard-response","48","187842","0.0-48.0","4B1C31AE98E84D668428209AE669585D","019cf81c-115b-741d-b0cb-0fdc704b757b","019cf80d-4266-7117-8a51-54e13c84aca4","","null","
                <div class=""stimulus-container"">
                    <img src=""images/semantic_sequence/creative_activities_semantic/creative_activities_semantic_6.png"" class=""exp-image"">
                    <div class=""question-area""></div> 
                </div>","null","","","","","","","","",""
"","","","","","html-button-response","49","188355","0.0-49.0","4B1C31AE98E84D668428209AE669585D","019cf81c-115b-741d-b0cb-0fdc704b757b","019cf80d-4266-7117-8a51-54e13c84aca4","","511","
                <div class=""stimulus-container"">
                    <img src=""images/semantic_sequence/creative_activities_semantic/creative_activities_semantic_6.png"" class=""exp-image"">
                    <div class=""question-area"">
                        <p style=""font-size: 20px; font-weight: bold; margin: 0;"">Is there a person in this image?</p>
                    </div>
                </div>","0","main_experiment_trial","6","creative_activities_semantic","semantic_sequence","","","","",""
"","","","","","html-keyboard-response","50","193359","0.0-50.0","4B1C31AE98E84D668428209AE669585D","019cf81c-115b-741d-b0cb-0fdc704b757b","019cf80d-4266-7117-8a51-54e13c84aca4","","null","
                <div class=""stimulus-container"">
                    <img src=""images/semantic_sequence/creative_activities_semantic/creative_activities_semantic_7.png"" class=""exp-image"">
                    <div class=""question-area""></div> 
                </div>","null","","","","","","","","",""
"","","","","","html-button-response","51","194115","0.0-51.0","4B1C31AE98E84D668428209AE669585D","019cf81c-115b-741d-b0cb-0fdc704b757b","019cf80d-4266-7117-8a51-54e13c84aca4","","754","
                <div class=""stimulus-container"">
                    <img src=""images/semantic_sequence/creative_activities_semantic/creative_activities_semantic_7.png"" class=""exp-image"">
                    <div class=""question-area"">
                        <p style=""font-size: 20px; font-weight: bold; margin: 0;"">Is there a person in this image?</p>
                    </div>
                </div>","0","main_experiment_trial","7","creative_activities_semantic","semantic_sequence","","","","",""
"","","","","","html-keyboard-response","52","199120","0.0-52.0","4B1C31AE98E84D668428209AE669585D","019cf81c-115b-741d-b0cb-0fdc704b757b","019cf80d-4266-7117-8a51-54e13c84aca4","","null","
                <div class=""stimulus-container"">
                    <img src=""images/semantic_sequence/creative_activities_semantic/creative_activities_semantic_8.png"" class=""exp-image"">
                    <div class=""question-area""></div> 
                </div>","null","","","","","","","","",""
"","","","","","html-button-response","53","200330","0.0-53.0","4B1C31AE98E84D668428209AE669585D","019cf81c-115b-741d-b0cb-0fdc704b757b","019cf80d-4266-7117-8a51-54e13c84aca4","","1209","
                <div class=""stimulus-container"">
                    <img src=""images/semantic_sequence/creative_activities_semantic/creative_activities_semantic_8.png"" class=""exp-image"">
                    <div class=""question-area"">
                        <p style=""font-size: 20px; font-weight: bold; margin: 0;"">Is there a person in this image?</p>
                    </div>
                </div>","0","main_experiment_trial","8","creative_activities_semantic","semantic_sequence","","","","",""
"","","","","","html-keyboard-response","54","205336","0.0-54.0","4B1C31AE98E84D668428209AE669585D","019cf81c-115b-741d-b0cb-0fdc704b757b","019cf80d-4266-7117-8a51-54e13c84aca4","","null","
                <div class=""stimulus-container"">
                    <img src=""images/semantic_sequence/creative_activities_semantic/creative_activities_semantic_9.png"" class=""exp-image"">
                    <div class=""question-area""></div> 
                </div>","null","","","","","","","","",""
"","","","","","html-button-response","55","206266","0.0-55.0","4B1C31AE98E84D668428209AE669585D","019cf81c-115b-741d-b0cb-0fdc704b757b","019cf80d-4266-7117-8a51-54e13c84aca4","","930","
                <div class=""stimulus-container"">
                    <img src=""images/semantic_sequence/creative_activities_semantic/creative_activities_semantic_9.png"" class=""exp-image"">
                    <div class=""question-area"">
                        <p style=""font-size: 20px; font-weight: bold; margin: 0;"">Is there a person in this image?</p>
                    </div>
                </div>","1","main_experiment_trial","9","creative_activities_semantic","semantic_sequence","","","","",""
"","","","","","html-keyboard-response","56","211277","0.0-56.0","4B1C31AE98E84D668428209AE669585D","019cf81c-115b-741d-b0cb-0fdc704b757b","019cf80d-4266-7117-8a51-54e13c84aca4","","null","
                <div class=""stimulus-container"">
                    <img src=""images/semantic_sequence/creative_activities_semantic/creative_activities_semantic_ten.png"" class=""exp-image"">
                    <div class=""question-area""></div> 
                </div>","null","","","","","","","","",""
"","","","","","html-button-response","57","211899","0.0-57.0","4B1C31AE98E84D668428209AE669585D","019cf81c-115b-741d-b0cb-0fdc704b757b","019cf80d-4266-7117-8a51-54e13c84aca4","","620","
                <div class=""stimulus-container"">
                    <img src=""images/semantic_sequence/creative_activities_semantic/creative_activities_semantic_ten.png"" class=""exp-image"">
                    <div class=""question-area"">
                        <p style=""font-size: 20px; font-weight: bold; margin: 0;"">Is there a person in this image?</p>
                    </div>
                </div>","0","main_experiment_trial","ten","creative_activities_semantic","semantic_sequence","","","","",""
"","","","","","html-keyboard-response","58","212914","0.0-58.0","4B1C31AE98E84D668428209AE669585D","019cf81c-115b-741d-b0cb-0fdc704b757b","019cf80d-4266-7117-8a51-54e13c84aca4","","null","<div style=""background-color: white; width: 100vw; height: 100vh;""></div>","null","","","","","","","","",""
"","","","","","html-keyboard-response","59","217924","0.0-59.0","4B1C31AE98E84D668428209AE669585D","019cf81c-115b-741d-b0cb-0fdc704b757b","019cf80d-4266-7117-8a51-54e13c84aca4","","null","
                <div class=""stimulus-container"">
                    <img src=""images/schematic_sequence/hotel_scheme/hotel_scheme_1.png"" class=""exp-image"">
                    <div class=""question-area""></div> 
                </div>","null","","","","","","","","",""
"","","","","","html-button-response","60","218971","0.0-60.0","4B1C31AE98E84D668428209AE669585D","019cf81c-115b-741d-b0cb-0fdc704b757b","019cf80d-4266-7117-8a51-54e13c84aca4","","1046","
                <div class=""stimulus-container"">
                    <img src=""images/schematic_sequence/hotel_scheme/hotel_scheme_1.png"" class=""exp-image"">
                    <div class=""question-area"">
                        <p style=""font-size: 20px; font-weight: bold; margin: 0;"">Is there a person in this image?</p>
                    </div>
                </div>","1","main_experiment_trial","1","hotel_scheme","schematic_sequence","","","","",""
"","","","","","html-keyboard-response","61","223984","0.0-61.0","4B1C31AE98E84D668428209AE669585D","019cf81c-115b-741d-b0cb-0fdc704b757b","019cf80d-4266-7117-8a51-54e13c84aca4","","null","
                <div class=""stimulus-container"">
                    <img src=""images/schematic_sequence/hotel_scheme/hotel_scheme_2.png"" class=""exp-image"">
                    <div class=""question-area""></div> 
                </div>","null","","","","","","","","",""
"","","","","","html-button-response","62","224579","0.0-62.0","4B1C31AE98E84D668428209AE669585D","019cf81c-115b-741d-b0cb-0fdc704b757b","019cf80d-4266-7117-8a51-54e13c84aca4","","593","
                <div class=""stimulus-container"">
                    <img src=""images/schematic_sequence/hotel_scheme/hotel_scheme_2.png"" class=""exp-image"">
                    <div class=""question-area"">
                        <p style=""font-size: 20px; font-weight: bold; margin: 0;"">Is there a person in this image?</p>
                    </div>
                </div>","0","main_experiment_trial","2","hotel_scheme","schematic_sequence","","","","",""
"","","","","","html-keyboard-response","63","229590","0.0-63.0","4B1C31AE98E84D668428209AE669585D","019cf81c-115b-741d-b0cb-0fdc704b757b","019cf80d-4266-7117-8a51-54e13c84aca4","","null","
                <div class=""stimulus-container"">
                    <img src=""images/schematic_sequence/hotel_scheme/hotel_scheme_3.png"" class=""exp-image"">
                    <div class=""question-area""></div> 
                </div>","null","","","","","","","","",""
"","","","","","html-button-response","64","230435","0.0-64.0","4B1C31AE98E84D668428209AE669585D","019cf81c-115b-741d-b0cb-0fdc704b757b","019cf80d-4266-7117-8a51-54e13c84aca4","","843","
                <div class=""stimulus-container"">
                    <img src=""images/schematic_sequence/hotel_scheme/hotel_scheme_3.png"" class=""exp-image"">
                    <div class=""question-area"">
                        <p style=""font-size: 20px; font-weight: bold; margin: 0;"">Is there a person in this image?</p>
                    </div>
                </div>","0","main_experiment_trial","3","hotel_scheme","schematic_sequence","","","","",""
"","","","","","html-keyboard-response","65","235443","0.0-65.0","4B1C31AE98E84D668428209AE669585D","019cf81c-115b-741d-b0cb-0fdc704b757b","019cf80d-4266-7117-8a51-54e13c84aca4","","null","
                <div class=""stimulus-container"">
                    <img src=""images/schematic_sequence/hotel_scheme/hotel_scheme_4.png"" class=""exp-image"">
                    <div class=""question-area""></div> 
                </div>","null","","","","","","","","",""
"","","","","","html-button-response","66","236059","0.0-66.0","4B1C31AE98E84D668428209AE669585D","019cf81c-115b-741d-b0cb-0fdc704b757b","019cf80d-4266-7117-8a51-54e13c84aca4","","615","
                <div class=""stimulus-container"">
                    <img src=""images/schematic_sequence/hotel_scheme/hotel_scheme_4.png"" class=""exp-image"">
                    <div class=""question-area"">
                        <p style=""font-size: 20px; font-weight: bold; margin: 0;"">Is there a person in this image?</p>
                    </div>
                </div>","1","main_experiment_trial","4","hotel_scheme","schematic_sequence","","","","",""
"","","","","","html-keyboard-response","67","241072","0.0-67.0","4B1C31AE98E84D668428209AE669585D","019cf81c-115b-741d-b0cb-0fdc704b757b","019cf80d-4266-7117-8a51-54e13c84aca4","","null","
                <div class=""stimulus-container"">
                    <img src=""images/schematic_sequence/hotel_scheme/hotel_scheme_5.png"" class=""exp-image"">
                    <div class=""question-area""></div> 
                </div>","null","","","","","","","","",""
"","","","","","html-button-response","68","241955","0.0-68.0","4B1C31AE98E84D668428209AE669585D","019cf81c-115b-741d-b0cb-0fdc704b757b","019cf80d-4266-7117-8a51-54e13c84aca4","","881","
                <div class=""stimulus-container"">
                    <img src=""images/schematic_sequence/hotel_scheme/hotel_scheme_5.png"" class=""exp-image"">
                    <div class=""question-area"">
                        <p style=""font-size: 20px; font-weight: bold; margin: 0;"">Is there a person in this image?</p>
                    </div>
                </div>","0","main_experiment_trial","5","hotel_scheme","schematic_sequence","","","","",""
"","","","","","html-keyboard-response","69","246962","0.0-69.0","4B1C31AE98E84D668428209AE669585D","019cf81c-115b-741d-b0cb-0fdc704b757b","019cf80d-4266-7117-8a51-54e13c84aca4","","null","
                <div class=""stimulus-container"">
                    <img src=""images/schematic_sequence/hotel_scheme/hotel_scheme_6.png"" class=""exp-image"">
                    <div class=""question-area""></div> 
                </div>","null","","","","","","","","",""
"","","","","","html-button-response","70","247811","0.0-70.0","4B1C31AE98E84D668428209AE669585D","019cf81c-115b-741d-b0cb-0fdc704b757b","019cf80d-4266-7117-8a51-54e13c84aca4","","847","
                <div class=""stimulus-container"">
                    <img src=""images/schematic_sequence/hotel_scheme/hotel_scheme_6.png"" class=""exp-image"">
                    <div class=""question-area"">
                        <p style=""font-size: 20px; font-weight: bold; margin: 0;"">Is there a person in this image?</p>
                    </div>
                </div>","0","main_experiment_trial","6","hotel_scheme","schematic_sequence","","","","",""
"","","","","","html-keyboard-response","71","252825","0.0-71.0","4B1C31AE98E84D668428209AE669585D","019cf81c-115b-741d-b0cb-0fdc704b757b","019cf80d-4266-7117-8a51-54e13c84aca4","","null","
                <div class=""stimulus-container"">
                    <img src=""images/schematic_sequence/hotel_scheme/hotel_scheme_7.png"" class=""exp-image"">
                    <div class=""question-area""></div> 
                </div>","null","","","","","","","","",""
"","","","","","html-button-response","72","254923","0.0-72.0","4B1C31AE98E84D668428209AE669585D","019cf81c-115b-741d-b0cb-0fdc704b757b","019cf80d-4266-7117-8a51-54e13c84aca4","","2096","
                <div class=""stimulus-container"">
                    <img src=""images/schematic_sequence/hotel_scheme/hotel_scheme_7.png"" class=""exp-image"">
                    <div class=""question-area"">
                        <p style=""font-size: 20px; font-weight: bold; margin: 0;"">Is there a person in this image?</p>
                    </div>
                </div>","0","main_experiment_trial","7","hotel_scheme","schematic_sequence","","","","",""
"","","","","","html-keyboard-response","73","259927","0.0-73.0","4B1C31AE98E84D668428209AE669585D","019cf81c-115b-741d-b0cb-0fdc704b757b","019cf80d-4266-7117-8a51-54e13c84aca4","","null","
                <div class=""stimulus-container"">
                    <img src=""images/schematic_sequence/hotel_scheme/hotel_scheme_8.png"" class=""exp-image"">
                    <div class=""question-area""></div> 
                </div>","null","","","","","","","","",""
"","","","","","html-button-response","74","260747","0.0-74.0","4B1C31AE98E84D668428209AE669585D","019cf81c-115b-741d-b0cb-0fdc704b757b","019cf80d-4266-7117-8a51-54e13c84aca4","","818","
                <div class=""stimulus-container"">
                    <img src=""images/schematic_sequence/hotel_scheme/hotel_scheme_8.png"" class=""exp-image"">
                    <div class=""question-area"">
                        <p style=""font-size: 20px; font-weight: bold; margin: 0;"">Is there a person in this image?</p>
                    </div>
                </div>","0","main_experiment_trial","8","hotel_scheme","schematic_sequence","","","","",""
"","","","","","html-keyboard-response","75","265760","0.0-75.0","4B1C31AE98E84D668428209AE669585D","019cf81c-115b-741d-b0cb-0fdc704b757b","019cf80d-4266-7117-8a51-54e13c84aca4","","null","
                <div class=""stimulus-container"">
                    <img src=""images/schematic_sequence/hotel_scheme/hotel_scheme_9.png"" class=""exp-image"">
                    <div class=""question-area""></div> 
                </div>","null","","","","","","","","",""
"","","","","","html-button-response","76","266771","0.0-76.0","4B1C31AE98E84D668428209AE669585D","019cf81c-115b-741d-b0cb-0fdc704b757b","019cf80d-4266-7117-8a51-54e13c84aca4","","1010","
                <div class=""stimulus-container"">
                    <img src=""images/schematic_sequence/hotel_scheme/hotel_scheme_9.png"" class=""exp-image"">
                    <div class=""question-area"">
                        <p style=""font-size: 20px; font-weight: bold; margin: 0;"">Is there a person in this image?</p>
                    </div>
                </div>","0","main_experiment_trial","9","hotel_scheme","schematic_sequence","","","","",""
"","","","","","html-keyboard-response","77","271772","0.0-77.0","4B1C31AE98E84D668428209AE669585D","019cf81c-115b-741d-b0cb-0fdc704b757b","019cf80d-4266-7117-8a51-54e13c84aca4","","null","
                <div class=""stimulus-container"">
                    <img src=""images/schematic_sequence/hotel_scheme/hotel_scheme_ten.png"" class=""exp-image"">
                    <div class=""question-area""></div> 
                </div>","null","","","","","","","","",""
"","","","","","html-button-response","78","272507","0.0-78.0","4B1C31AE98E84D668428209AE669585D","019cf81c-115b-741d-b0cb-0fdc704b757b","019cf80d-4266-7117-8a51-54e13c84aca4","","733","
                <div class=""stimulus-container"">
                    <img src=""images/schematic_sequence/hotel_scheme/hotel_scheme_ten.png"" class=""exp-image"">
                    <div class=""question-area"">
                        <p style=""font-size: 20px; font-weight: bold; margin: 0;"">Is there a person in this image?</p>
                    </div>
                </div>","0","main_experiment_trial","ten","hotel_scheme","schematic_sequence","","","","",""
"","","","","","html-keyboard-response","79","273514","0.0-79.0","4B1C31AE98E84D668428209AE669585D","019cf81c-115b-741d-b0cb-0fdc704b757b","019cf80d-4266-7117-8a51-54e13c84aca4","","null","<div style=""background-color: white; width: 100vw; height: 100vh;""></div>","null","","","","","","","","",""
"","","","","","html-keyboard-response","80","278524","0.0-80.0","4B1C31AE98E84D668428209AE669585D","019cf81c-115b-741d-b0cb-0fdc704b757b","019cf80d-4266-7117-8a51-54e13c84aca4","","null","
                <div class=""stimulus-container"">
                    <img src=""images/schematic_sequence/dinner_party_scheme/dinner_party_scheme_1.png"" class=""exp-image"">
                    <div class=""question-area""></div> 
                </div>","null","","","","","","","","",""
"","","","","","html-button-response","81","279147","0.0-81.0","4B1C31AE98E84D668428209AE669585D","019cf81c-115b-741d-b0cb-0fdc704b757b","019cf80d-4266-7117-8a51-54e13c84aca4","","621","
                <div class=""stimulus-container"">
                    <img src=""images/schematic_sequence/dinner_party_scheme/dinner_party_scheme_1.png"" class=""exp-image"">
                    <div class=""question-area"">
                        <p style=""font-size: 20px; font-weight: bold; margin: 0;"">Is there a person in this image?</p>
                    </div>
                </div>","1","main_experiment_trial","1","dinner_party_scheme","schematic_sequence","","","","",""
"","","","","","html-keyboard-response","82","284151","0.0-82.0","4B1C31AE98E84D668428209AE669585D","019cf81c-115b-741d-b0cb-0fdc704b757b","019cf80d-4266-7117-8a51-54e13c84aca4","","null","
                <div class=""stimulus-container"">
                    <img src=""images/schematic_sequence/dinner_party_scheme/dinner_party_scheme_2.png"" class=""exp-image"">
                    <div class=""question-area""></div> 
                </div>","null","","","","","","","","",""
"","","","","","html-button-response","83","284675","0.0-83.0","4B1C31AE98E84D668428209AE669585D","019cf81c-115b-741d-b0cb-0fdc704b757b","019cf80d-4266-7117-8a51-54e13c84aca4","","522","
                <div class=""stimulus-container"">
                    <img src=""images/schematic_sequence/dinner_party_scheme/dinner_party_scheme_2.png"" class=""exp-image"">
                    <div class=""question-area"">
                        <p style=""font-size: 20px; font-weight: bold; margin: 0;"">Is there a person in this image?</p>
                    </div>
                </div>","1","main_experiment_trial","2","dinner_party_scheme","schematic_sequence","","","","",""
"","","","","","html-keyboard-response","84","289680","0.0-84.0","4B1C31AE98E84D668428209AE669585D","019cf81c-115b-741d-b0cb-0fdc704b757b","019cf80d-4266-7117-8a51-54e13c84aca4","","null","
                <div class=""stimulus-container"">
                    <img src=""images/schematic_sequence/dinner_party_scheme/dinner_party_scheme_3.png"" class=""exp-image"">
                    <div class=""question-area""></div> 
                </div>","null","","","","","","","","",""
"","","","","","html-button-response","85","290298","0.0-85.0","4B1C31AE98E84D668428209AE669585D","019cf81c-115b-741d-b0cb-0fdc704b757b","019cf80d-4266-7117-8a51-54e13c84aca4","","617","
                <div class=""stimulus-container"">
                    <img src=""images/schematic_sequence/dinner_party_scheme/dinner_party_scheme_3.png"" class=""exp-image"">
                    <div class=""question-area"">
                        <p style=""font-size: 20px; font-weight: bold; margin: 0;"">Is there a person in this image?</p>
                    </div>
                </div>","0","main_experiment_trial","3","dinner_party_scheme","schematic_sequence","","","","",""
"","","","","","html-keyboard-response","86","295308","0.0-86.0","4B1C31AE98E84D668428209AE669585D","019cf81c-115b-741d-b0cb-0fdc704b757b","019cf80d-4266-7117-8a51-54e13c84aca4","","null","
                <div class=""stimulus-container"">
                    <img src=""images/schematic_sequence/dinner_party_scheme/dinner_party_scheme_4.png"" class=""exp-image"">
                    <div class=""question-area""></div> 
                </div>","null","","","","","","","","",""
"","","","","","html-button-response","87","295931","0.0-87.0","4B1C31AE98E84D668428209AE669585D","019cf81c-115b-741d-b0cb-0fdc704b757b","019cf80d-4266-7117-8a51-54e13c84aca4","","621","
                <div class=""stimulus-container"">
                    <img src=""images/schematic_sequence/dinner_party_scheme/dinner_party_scheme_4.png"" class=""exp-image"">
                    <div class=""question-area"">
                        <p style=""font-size: 20px; font-weight: bold; margin: 0;"">Is there a person in this image?</p>
                    </div>
                </div>","0","main_experiment_trial","4","dinner_party_scheme","schematic_sequence","","","","",""
"","","","","","html-keyboard-response","88","300941","0.0-88.0","4B1C31AE98E84D668428209AE669585D","019cf81c-115b-741d-b0cb-0fdc704b757b","019cf80d-4266-7117-8a51-54e13c84aca4","","null","
                <div class=""stimulus-container"">
                    <img src=""images/schematic_sequence/dinner_party_scheme/dinner_party_scheme_5.png"" class=""exp-image"">
                    <div class=""question-area""></div> 
                </div>","null","","","","","","","","",""
"","","","","","html-button-response","89","301515","0.0-89.0","4B1C31AE98E84D668428209AE669585D","019cf81c-115b-741d-b0cb-0fdc704b757b","019cf80d-4266-7117-8a51-54e13c84aca4","","572","
                <div class=""stimulus-container"">
                    <img src=""images/schematic_sequence/dinner_party_scheme/dinner_party_scheme_5.png"" class=""exp-image"">
                    <div class=""question-area"">
                        <p style=""font-size: 20px; font-weight: bold; margin: 0;"">Is there a person in this image?</p>
                    </div>
                </div>","1","main_experiment_trial","5","dinner_party_scheme","schematic_sequence","","","","",""
"","","","","","html-keyboard-response","90","306523","0.0-90.0","4B1C31AE98E84D668428209AE669585D","019cf81c-115b-741d-b0cb-0fdc704b757b","019cf80d-4266-7117-8a51-54e13c84aca4","","null","
                <div class=""stimulus-container"">
                    <img src=""images/schematic_sequence/dinner_party_scheme/dinner_party_scheme_6.png"" class=""exp-image"">
                    <div class=""question-area""></div> 
                </div>","null","","","","","","","","",""
"","","","","","html-button-response","91","307450","0.0-91.0","4B1C31AE98E84D668428209AE669585D","019cf81c-115b-741d-b0cb-0fdc704b757b","019cf80d-4266-7117-8a51-54e13c84aca4","","926","
                <div class=""stimulus-container"">
                    <img src=""images/schematic_sequence/dinner_party_scheme/dinner_party_scheme_6.png"" class=""exp-image"">
                    <div class=""question-area"">
                        <p style=""font-size: 20px; font-weight: bold; margin: 0;"">Is there a person in this image?</p>
                    </div>
                </div>","0","main_experiment_trial","6","dinner_party_scheme","schematic_sequence","","","","",""
"","","","","","html-keyboard-response","92","312465","0.0-92.0","4B1C31AE98E84D668428209AE669585D","019cf81c-115b-741d-b0cb-0fdc704b757b","019cf80d-4266-7117-8a51-54e13c84aca4","","null","
                <div class=""stimulus-container"">
                    <img src=""images/schematic_sequence/dinner_party_scheme/dinner_party_scheme_7.png"" class=""exp-image"">
                    <div class=""question-area""></div> 
                </div>","null","","","","","","","","",""
"","","","","","html-button-response","93","313211","0.0-93.0","4B1C31AE98E84D668428209AE669585D","019cf81c-115b-741d-b0cb-0fdc704b757b","019cf80d-4266-7117-8a51-54e13c84aca4","","744","
                <div class=""stimulus-container"">
                    <img src=""images/schematic_sequence/dinner_party_scheme/dinner_party_scheme_7.png"" class=""exp-image"">
                    <div class=""question-area"">
                        <p style=""font-size: 20px; font-weight: bold; margin: 0;"">Is there a person in this image?</p>
                    </div>
                </div>","0","main_experiment_trial","7","dinner_party_scheme","schematic_sequence","","","","",""
"","","","","","html-keyboard-response","94","318217","0.0-94.0","4B1C31AE98E84D668428209AE669585D","019cf81c-115b-741d-b0cb-0fdc704b757b","019cf80d-4266-7117-8a51-54e13c84aca4","","null","
                <div class=""stimulus-container"">
                    <img src=""images/schematic_sequence/dinner_party_scheme/dinner_party_scheme_8.png"" class=""exp-image"">
                    <div class=""question-area""></div> 
                </div>","null","","","","","","","","",""
"","","","","","html-button-response","95","318803","0.0-95.0","4B1C31AE98E84D668428209AE669585D","019cf81c-115b-741d-b0cb-0fdc704b757b","019cf80d-4266-7117-8a51-54e13c84aca4","","584","
                <div class=""stimulus-container"">
                    <img src=""images/schematic_sequence/dinner_party_scheme/dinner_party_scheme_8.png"" class=""exp-image"">
                    <div class=""question-area"">
                        <p style=""font-size: 20px; font-weight: bold; margin: 0;"">Is there a person in this image?</p>
                    </div>
                </div>","0","main_experiment_trial","8","dinner_party_scheme","schematic_sequence","","","","",""
"","","","","","html-keyboard-response","96","323808","0.0-96.0","4B1C31AE98E84D668428209AE669585D","019cf81c-115b-741d-b0cb-0fdc704b757b","019cf80d-4266-7117-8a51-54e13c84aca4","","null","
                <div class=""stimulus-container"">
                    <img src=""images/schematic_sequence/dinner_party_scheme/dinner_party_scheme_9.png"" class=""exp-image"">
                    <div class=""question-area""></div> 
                </div>","null","","","","","","","","",""
"","","","","","html-button-response","97","326821","0.0-97.0","4B1C31AE98E84D668428209AE669585D","019cf81c-115b-741d-b0cb-0fdc704b757b","019cf80d-4266-7117-8a51-54e13c84aca4","","null","
                <div class=""stimulus-container"">
                    <img src=""images/schematic_sequence/dinner_party_scheme/dinner_party_scheme_9.png"" class=""exp-image"">
                    <div class=""question-area"">
                        <p style=""font-size: 20px; font-weight: bold; margin: 0;"">Is there a person in this image?</p>
                    </div>
                </div>","null","main_experiment_trial","9","dinner_party_scheme","schematic_sequence","","","","",""
"","","","","","html-keyboard-response","98","331824","0.0-98.0","4B1C31AE98E84D668428209AE669585D","019cf81c-115b-741d-b0cb-0fdc704b757b","019cf80d-4266-7117-8a51-54e13c84aca4","","null","
                <div class=""stimulus-container"">
                    <img src=""images/schematic_sequence/dinner_party_scheme/dinner_party_scheme_ten.png"" class=""exp-image"">
                    <div class=""question-area""></div> 
                </div>","null","","","","","","","","",""
"","","","","","html-button-response","99","332603","0.0-99.0","4B1C31AE98E84D668428209AE669585D","019cf81c-115b-741d-b0cb-0fdc704b757b","019cf80d-4266-7117-8a51-54e13c84aca4","","776","
                <div class=""stimulus-container"">
                    <img src=""images/schematic_sequence/dinner_party_scheme/dinner_party_scheme_ten.png"" class=""exp-image"">
                    <div class=""question-area"">
                        <p style=""font-size: 20px; font-weight: bold; margin: 0;"">Is there a person in this image?</p>
                    </div>
                </div>","0","main_experiment_trial","ten","dinner_party_scheme","schematic_sequence","","","","",""
"","","","","","html-keyboard-response","100","333615","0.0-100.0","4B1C31AE98E84D668428209AE669585D","019cf81c-115b-741d-b0cb-0fdc704b757b","019cf80d-4266-7117-8a51-54e13c84aca4","","null","<div style=""background-color: white; width: 100vw; height: 100vh;""></div>","null","","","","","","","","",""
"","","","","","html-keyboard-response","101","338621","0.0-101.0","4B1C31AE98E84D668428209AE669585D","019cf81c-115b-741d-b0cb-0fdc704b757b","019cf80d-4266-7117-8a51-54e13c84aca4","","null","
                <div class=""stimulus-container"">
                    <img src=""images/schematic_sequence/supermarket_scheme/supermarket_scheme_1.png"" class=""exp-image"">
                    <div class=""question-area""></div> 
                </div>","null","","","","","","","","",""
"","","","","","html-button-response","102","339235","0.0-102.0","4B1C31AE98E84D668428209AE669585D","019cf81c-115b-741d-b0cb-0fdc704b757b","019cf80d-4266-7117-8a51-54e13c84aca4","","612","
                <div class=""stimulus-container"">
                    <img src=""images/schematic_sequence/supermarket_scheme/supermarket_scheme_1.png"" class=""exp-image"">
                    <div class=""question-area"">
                        <p style=""font-size: 20px; font-weight: bold; margin: 0;"">Is there a person in this image?</p>
                    </div>
                </div>","1","main_experiment_trial","1","supermarket_scheme","schematic_sequence","","","","",""
"","","","","","html-keyboard-response","103","344252","0.0-103.0","4B1C31AE98E84D668428209AE669585D","019cf81c-115b-741d-b0cb-0fdc704b757b","019cf80d-4266-7117-8a51-54e13c84aca4","","null","
                <div class=""stimulus-container"">
                    <img src=""images/schematic_sequence/supermarket_scheme/supermarket_scheme_2.png"" class=""exp-image"">
                    <div class=""question-area""></div> 
                </div>","null","","","","","","","","",""
"","","","","","html-button-response","104","344914","0.0-104.0","4B1C31AE98E84D668428209AE669585D","019cf81c-115b-741d-b0cb-0fdc704b757b","019cf80d-4266-7117-8a51-54e13c84aca4","","661","
                <div class=""stimulus-container"">
                    <img src=""images/schematic_sequence/supermarket_scheme/supermarket_scheme_2.png"" class=""exp-image"">
                    <div class=""question-area"">
                        <p style=""font-size: 20px; font-weight: bold; margin: 0;"">Is there a person in this image?</p>
                    </div>
                </div>","1","main_experiment_trial","2","supermarket_scheme","schematic_sequence","","","","",""
"","","","","","html-keyboard-response","105","349918","0.0-105.0","4B1C31AE98E84D668428209AE669585D","019cf81c-115b-741d-b0cb-0fdc704b757b","019cf80d-4266-7117-8a51-54e13c84aca4","","null","
                <div class=""stimulus-container"">
                    <img src=""images/schematic_sequence/supermarket_scheme/supermarket_scheme_3.png"" class=""exp-image"">
                    <div class=""question-area""></div> 
                </div>","null","","","","","","","","",""
"","","","","","html-button-response","106","350442","0.0-106.0","4B1C31AE98E84D668428209AE669585D","019cf81c-115b-741d-b0cb-0fdc704b757b","019cf80d-4266-7117-8a51-54e13c84aca4","","523","
                <div class=""stimulus-container"">
                    <img src=""images/schematic_sequence/supermarket_scheme/supermarket_scheme_3.png"" class=""exp-image"">
                    <div class=""question-area"">
                        <p style=""font-size: 20px; font-weight: bold; margin: 0;"">Is there a person in this image?</p>
                    </div>
                </div>","1","main_experiment_trial","3","supermarket_scheme","schematic_sequence","","","","",""
"","","","","","html-keyboard-response","107","355450","0.0-107.0","4B1C31AE98E84D668428209AE669585D","019cf81c-115b-741d-b0cb-0fdc704b757b","019cf80d-4266-7117-8a51-54e13c84aca4","","null","
                <div class=""stimulus-container"">
                    <img src=""images/schematic_sequence/supermarket_scheme/supermarket_scheme_4.png"" class=""exp-image"">
                    <div class=""question-area""></div> 
                </div>","null","","","","","","","","",""
"","","","","","html-button-response","108","356027","0.0-108.0","4B1C31AE98E84D668428209AE669585D","019cf81c-115b-741d-b0cb-0fdc704b757b","019cf80d-4266-7117-8a51-54e13c84aca4","","574","
                <div class=""stimulus-container"">
                    <img src=""images/schematic_sequence/supermarket_scheme/supermarket_scheme_4.png"" class=""exp-image"">
                    <div class=""question-area"">
                        <p style=""font-size: 20px; font-weight: bold; margin: 0;"">Is there a person in this image?</p>
                    </div>
                </div>","0","main_experiment_trial","4","supermarket_scheme","schematic_sequence","","","","",""
"","","","","","html-keyboard-response","109","361030","0.0-109.0","4B1C31AE98E84D668428209AE669585D","019cf81c-115b-741d-b0cb-0fdc704b757b","019cf80d-4266-7117-8a51-54e13c84aca4","","null","
                <div class=""stimulus-container"">
                    <img src=""images/schematic_sequence/supermarket_scheme/supermarket_scheme_5.png"" class=""exp-image"">
                    <div class=""question-area""></div> 
                </div>","null","","","","","","","","",""
"","","","","","html-button-response","110","361779","0.0-110.0","4B1C31AE98E84D668428209AE669585D","019cf81c-115b-741d-b0cb-0fdc704b757b","019cf80d-4266-7117-8a51-54e13c84aca4","","747","
                <div class=""stimulus-container"">
                    <img src=""images/schematic_sequence/supermarket_scheme/supermarket_scheme_5.png"" class=""exp-image"">
                    <div class=""question-area"">
                        <p style=""font-size: 20px; font-weight: bold; margin: 0;"">Is there a person in this image?</p>
                    </div>
                </div>","1","main_experiment_trial","5","supermarket_scheme","schematic_sequence","","","","",""
"","","","","","html-keyboard-response","111","366781","0.0-111.0","4B1C31AE98E84D668428209AE669585D","019cf81c-115b-741d-b0cb-0fdc704b757b","019cf80d-4266-7117-8a51-54e13c84aca4","","null","
                <div class=""stimulus-container"">
                    <img src=""images/schematic_sequence/supermarket_scheme/supermarket_scheme_6.png"" class=""exp-image"">
                    <div class=""question-area""></div> 
                </div>","null","","","","","","","","",""
"","","","","","html-button-response","112","367514","0.0-112.0","4B1C31AE98E84D668428209AE669585D","019cf81c-115b-741d-b0cb-0fdc704b757b","019cf80d-4266-7117-8a51-54e13c84aca4","","731","
                <div class=""stimulus-container"">
                    <img src=""images/schematic_sequence/supermarket_scheme/supermarket_scheme_6.png"" class=""exp-image"">
                    <div class=""question-area"">
                        <p style=""font-size: 20px; font-weight: bold; margin: 0;"">Is there a person in this image?</p>
                    </div>
                </div>","0","main_experiment_trial","6","supermarket_scheme","schematic_sequence","","","","",""
"","","","","","html-keyboard-response","113","372531","0.0-113.0","4B1C31AE98E84D668428209AE669585D","019cf81c-115b-741d-b0cb-0fdc704b757b","019cf80d-4266-7117-8a51-54e13c84aca4","","null","
                <div class=""stimulus-container"">
                    <img src=""images/schematic_sequence/supermarket_scheme/supermarket_scheme_7.png"" class=""exp-image"">
                    <div class=""question-area""></div> 
                </div>","null","","","","","","","","",""
"","","","","","html-button-response","114","373155","0.0-114.0","4B1C31AE98E84D668428209AE669585D","019cf81c-115b-741d-b0cb-0fdc704b757b","019cf80d-4266-7117-8a51-54e13c84aca4","","622","
                <div class=""stimulus-container"">
                    <img src=""images/schematic_sequence/supermarket_scheme/supermarket_scheme_7.png"" class=""exp-image"">
                    <div class=""question-area"">
                        <p style=""font-size: 20px; font-weight: bold; margin: 0;"">Is there a person in this image?</p>
                    </div>
                </div>","0","main_experiment_trial","7","supermarket_scheme","schematic_sequence","","","","",""
"","","","","","html-keyboard-response","115","378163","0.0-115.0","4B1C31AE98E84D668428209AE669585D","019cf81c-115b-741d-b0cb-0fdc704b757b","019cf80d-4266-7117-8a51-54e13c84aca4","","null","
                <div class=""stimulus-container"">
                    <img src=""images/schematic_sequence/supermarket_scheme/supermarket_scheme_8.png"" class=""exp-image"">
                    <div class=""question-area""></div> 
                </div>","null","","","","","","","","",""
"","","","","","html-button-response","116","378906","0.0-116.0","4B1C31AE98E84D668428209AE669585D","019cf81c-115b-741d-b0cb-0fdc704b757b","019cf80d-4266-7117-8a51-54e13c84aca4","","741","
                <div class=""stimulus-container"">
                    <img src=""images/schematic_sequence/supermarket_scheme/supermarket_scheme_8.png"" class=""exp-image"">
                    <div class=""question-area"">
                        <p style=""font-size: 20px; font-weight: bold; margin: 0;"">Is there a person in this image?</p>
                    </div>
                </div>","0","main_experiment_trial","8","supermarket_scheme","schematic_sequence","","","","",""
"","","","","","html-keyboard-response","117","383912","0.0-117.0","4B1C31AE98E84D668428209AE669585D","019cf81c-115b-741d-b0cb-0fdc704b757b","019cf80d-4266-7117-8a51-54e13c84aca4","","null","
                <div class=""stimulus-container"">
                    <img src=""images/schematic_sequence/supermarket_scheme/supermarket_scheme_9.png"" class=""exp-image"">
                    <div class=""question-area""></div> 
                </div>","null","","","","","","","","",""
"","","","","","html-button-response","118","384419","0.0-118.0","4B1C31AE98E84D668428209AE669585D","019cf81c-115b-741d-b0cb-0fdc704b757b","019cf80d-4266-7117-8a51-54e13c84aca4","","505","
                <div class=""stimulus-container"">
                    <img src=""images/schematic_sequence/supermarket_scheme/supermarket_scheme_9.png"" class=""exp-image"">
                    <div class=""question-area"">
                        <p style=""font-size: 20px; font-weight: bold; margin: 0;"">Is there a person in this image?</p>
                    </div>
                </div>","0","main_experiment_trial","9","supermarket_scheme","schematic_sequence","","","","",""
"","","","","","html-keyboard-response","119","389420","0.0-119.0","4B1C31AE98E84D668428209AE669585D","019cf81c-115b-741d-b0cb-0fdc704b757b","019cf80d-4266-7117-8a51-54e13c84aca4","","null","
                <div class=""stimulus-container"">
                    <img src=""images/schematic_sequence/supermarket_scheme/supermarket_scheme_ten.png"" class=""exp-image"">
                    <div class=""question-area""></div> 
                </div>","null","","","","","","","","",""
"","","","","","html-button-response","120","390027","0.0-120.0","4B1C31AE98E84D668428209AE669585D","019cf81c-115b-741d-b0cb-0fdc704b757b","019cf80d-4266-7117-8a51-54e13c84aca4","","605","
                <div class=""stimulus-container"">
                    <img src=""images/schematic_sequence/supermarket_scheme/supermarket_scheme_ten.png"" class=""exp-image"">
                    <div class=""question-area"">
                        <p style=""font-size: 20px; font-weight: bold; margin: 0;"">Is there a person in this image?</p>
                    </div>
                </div>","1","main_experiment_trial","ten","supermarket_scheme","schematic_sequence","","","","",""
"","","","","","html-keyboard-response","121","391034","0.0-121.0","4B1C31AE98E84D668428209AE669585D","019cf81c-115b-741d-b0cb-0fdc704b757b","019cf80d-4266-7117-8a51-54e13c84aca4","","null","<div style=""background-color: white; width: 100vw; height: 100vh;""></div>","null","","","","","","","","",""
"","","","","","html-keyboard-response","122","396040","0.0-122.0","4B1C31AE98E84D668428209AE669585D","019cf81c-115b-741d-b0cb-0fdc704b757b","019cf80d-4266-7117-8a51-54e13c84aca4","","null","
                <div class=""stimulus-container"">
                    <img src=""images/schematic_sequence/flight_scheme/flight_scheme_1.png"" class=""exp-image"">
                    <div class=""question-area""></div> 
                </div>","null","","","","","","","","",""
"","","","","","html-button-response","123","397171","0.0-123.0","4B1C31AE98E84D668428209AE669585D","019cf81c-115b-741d-b0cb-0fdc704b757b","019cf80d-4266-7117-8a51-54e13c84aca4","","1129","
                <div class=""stimulus-container"">
                    <img src=""images/schematic_sequence/flight_scheme/flight_scheme_1.png"" class=""exp-image"">
                    <div class=""question-area"">
                        <p style=""font-size: 20px; font-weight: bold; margin: 0;"">Is there a person in this image?</p>
                    </div>
                </div>","1","main_experiment_trial","1","flight_scheme","schematic_sequence","","","","",""
"","","","","","html-keyboard-response","124","402180","0.0-124.0","4B1C31AE98E84D668428209AE669585D","019cf81c-115b-741d-b0cb-0fdc704b757b","019cf80d-4266-7117-8a51-54e13c84aca4","","null","
                <div class=""stimulus-container"">
                    <img src=""images/schematic_sequence/flight_scheme/flight_scheme_2.png"" class=""exp-image"">
                    <div class=""question-area""></div> 
                </div>","null","","","","","","","","",""
"","","","","","html-button-response","125","402667","0.0-125.0","4B1C31AE98E84D668428209AE669585D","019cf81c-115b-741d-b0cb-0fdc704b757b","019cf80d-4266-7117-8a51-54e13c84aca4","","485","
                <div class=""stimulus-container"">
                    <img src=""images/schematic_sequence/flight_scheme/flight_scheme_2.png"" class=""exp-image"">
                    <div class=""question-area"">
                        <p style=""font-size: 20px; font-weight: bold; margin: 0;"">Is there a person in this image?</p>
                    </div>
                </div>","1","main_experiment_trial","2","flight_scheme","schematic_sequence","","","","",""
"","","","","","html-keyboard-response","126","407680","0.0-126.0","4B1C31AE98E84D668428209AE669585D","019cf81c-115b-741d-b0cb-0fdc704b757b","019cf80d-4266-7117-8a51-54e13c84aca4","","null","
                <div class=""stimulus-container"">
                    <img src=""images/schematic_sequence/flight_scheme/flight_scheme_3.png"" class=""exp-image"">
                    <div class=""question-area""></div> 
                </div>","null","","","","","","","","",""
"","","","","","html-button-response","127","408251","0.0-127.0","4B1C31AE98E84D668428209AE669585D","019cf81c-115b-741d-b0cb-0fdc704b757b","019cf80d-4266-7117-8a51-54e13c84aca4","","569","
                <div class=""stimulus-container"">
                    <img src=""images/schematic_sequence/flight_scheme/flight_scheme_3.png"" class=""exp-image"">
                    <div class=""question-area"">
                        <p style=""font-size: 20px; font-weight: bold; margin: 0;"">Is there a person in this image?</p>
                    </div>
                </div>","0","main_experiment_trial","3","flight_scheme","schematic_sequence","","","","",""
"","","","","","html-keyboard-response","128","413262","0.0-128.0","4B1C31AE98E84D668428209AE669585D","019cf81c-115b-741d-b0cb-0fdc704b757b","019cf80d-4266-7117-8a51-54e13c84aca4","","null","
                <div class=""stimulus-container"">
                    <img src=""images/schematic_sequence/flight_scheme/flight_scheme_4.png"" class=""exp-image"">
                    <div class=""question-area""></div> 
                </div>","null","","","","","","","","",""
"","","","","","html-button-response","129","413834","0.0-129.0","4B1C31AE98E84D668428209AE669585D","019cf81c-115b-741d-b0cb-0fdc704b757b","019cf80d-4266-7117-8a51-54e13c84aca4","","570","
                <div class=""stimulus-container"">
                    <img src=""images/schematic_sequence/flight_scheme/flight_scheme_4.png"" class=""exp-image"">
                    <div class=""question-area"">
                        <p style=""font-size: 20px; font-weight: bold; margin: 0;"">Is there a person in this image?</p>
                    </div>
                </div>","0","main_experiment_trial","4","flight_scheme","schematic_sequence","","","","",""
"","","","","","html-keyboard-response","130","418836","0.0-130.0","4B1C31AE98E84D668428209AE669585D","019cf81c-115b-741d-b0cb-0fdc704b757b","019cf80d-4266-7117-8a51-54e13c84aca4","","null","
                <div class=""stimulus-container"">
                    <img src=""images/schematic_sequence/flight_scheme/flight_scheme_5.png"" class=""exp-image"">
                    <div class=""question-area""></div> 
                </div>","null","","","","","","","","",""
"","","","","","html-button-response","131","419554","0.0-131.0","4B1C31AE98E84D668428209AE669585D","019cf81c-115b-741d-b0cb-0fdc704b757b","019cf80d-4266-7117-8a51-54e13c84aca4","","716","
                <div class=""stimulus-container"">
                    <img src=""images/schematic_sequence/flight_scheme/flight_scheme_5.png"" class=""exp-image"">
                    <div class=""question-area"">
                        <p style=""font-size: 20px; font-weight: bold; margin: 0;"">Is there a person in this image?</p>
                    </div>
                </div>","0","main_experiment_trial","5","flight_scheme","schematic_sequence","","","","",""
"","","","","","html-keyboard-response","132","424562","0.0-132.0","4B1C31AE98E84D668428209AE669585D","019cf81c-115b-741d-b0cb-0fdc704b757b","019cf80d-4266-7117-8a51-54e13c84aca4","","null","
                <div class=""stimulus-container"">
                    <img src=""images/schematic_sequence/flight_scheme/flight_scheme_6.png"" class=""exp-image"">
                    <div class=""question-area""></div> 
                </div>","null","","","","","","","","",""
"","","","","","html-button-response","133","425699","0.0-133.0","4B1C31AE98E84D668428209AE669585D","019cf81c-115b-741d-b0cb-0fdc704b757b","019cf80d-4266-7117-8a51-54e13c84aca4","","1135","
                <div class=""stimulus-container"">
                    <img src=""images/schematic_sequence/flight_scheme/flight_scheme_6.png"" class=""exp-image"">
                    <div class=""question-area"">
                        <p style=""font-size: 20px; font-weight: bold; margin: 0;"">Is there a person in this image?</p>
                    </div>
                </div>","1","main_experiment_trial","6","flight_scheme","schematic_sequence","","","","",""
"","","","","","html-keyboard-response","134","430700","0.0-134.0","4B1C31AE98E84D668428209AE669585D","019cf81c-115b-741d-b0cb-0fdc704b757b","019cf80d-4266-7117-8a51-54e13c84aca4","","null","
                <div class=""stimulus-container"">
                    <img src=""images/schematic_sequence/flight_scheme/flight_scheme_7.png"" class=""exp-image"">
                    <div class=""question-area""></div> 
                </div>","null","","","","","","","","",""
"","","","","","html-button-response","135","431314","0.0-135.0","4B1C31AE98E84D668428209AE669585D","019cf81c-115b-741d-b0cb-0fdc704b757b","019cf80d-4266-7117-8a51-54e13c84aca4","","612","
                <div class=""stimulus-container"">
                    <img src=""images/schematic_sequence/flight_scheme/flight_scheme_7.png"" class=""exp-image"">
                    <div class=""question-area"">
                        <p style=""font-size: 20px; font-weight: bold; margin: 0;"">Is there a person in this image?</p>
                    </div>
                </div>","1","main_experiment_trial","7","flight_scheme","schematic_sequence","","","","",""
"","","","","","html-keyboard-response","136","436316","0.0-136.0","4B1C31AE98E84D668428209AE669585D","019cf81c-115b-741d-b0cb-0fdc704b757b","019cf80d-4266-7117-8a51-54e13c84aca4","","null","
                <div class=""stimulus-container"">
                    <img src=""images/schematic_sequence/flight_scheme/flight_scheme_8.png"" class=""exp-image"">
                    <div class=""question-area""></div> 
                </div>","null","","","","","","","","",""
"","","","","","html-button-response","137","437090","0.0-137.0","4B1C31AE98E84D668428209AE669585D","019cf81c-115b-741d-b0cb-0fdc704b757b","019cf80d-4266-7117-8a51-54e13c84aca4","","772","
                <div class=""stimulus-container"">
                    <img src=""images/schematic_sequence/flight_scheme/flight_scheme_8.png"" class=""exp-image"">
                    <div class=""question-area"">
                        <p style=""font-size: 20px; font-weight: bold; margin: 0;"">Is there a person in this image?</p>
                    </div>
                </div>","1","main_experiment_trial","8","flight_scheme","schematic_sequence","","","","",""
"","","","","","html-keyboard-response","138","442093","0.0-138.0","4B1C31AE98E84D668428209AE669585D","019cf81c-115b-741d-b0cb-0fdc704b757b","019cf80d-4266-7117-8a51-54e13c84aca4","","null","
                <div class=""stimulus-container"">
                    <img src=""images/schematic_sequence/flight_scheme/flight_scheme_9.png"" class=""exp-image"">
                    <div class=""question-area""></div> 
                </div>","null","","","","","","","","",""
"","","","","","html-button-response","139","442730","0.0-139.0","4B1C31AE98E84D668428209AE669585D","019cf81c-115b-741d-b0cb-0fdc704b757b","019cf80d-4266-7117-8a51-54e13c84aca4","","636","
                <div class=""stimulus-container"">
                    <img src=""images/schematic_sequence/flight_scheme/flight_scheme_9.png"" class=""exp-image"">
                    <div class=""question-area"">
                        <p style=""font-size: 20px; font-weight: bold; margin: 0;"">Is there a person in this image?</p>
                    </div>
                </div>","0","main_experiment_trial","9","flight_scheme","schematic_sequence","","","","",""
"","","","","","html-keyboard-response","140","447734","0.0-140.0","4B1C31AE98E84D668428209AE669585D","019cf81c-115b-741d-b0cb-0fdc704b757b","019cf80d-4266-7117-8a51-54e13c84aca4","","null","
                <div class=""stimulus-container"">
                    <img src=""images/schematic_sequence/flight_scheme/flight_scheme_ten.png"" class=""exp-image"">
                    <div class=""question-area""></div> 
                </div>","null","","","","","","","","",""
"","","","","","html-button-response","141","448650","0.0-141.0","4B1C31AE98E84D668428209AE669585D","019cf81c-115b-741d-b0cb-0fdc704b757b","019cf80d-4266-7117-8a51-54e13c84aca4","","914","
                <div class=""stimulus-container"">
                    <img src=""images/schematic_sequence/flight_scheme/flight_scheme_ten.png"" class=""exp-image"">
                    <div class=""question-area"">
                        <p style=""font-size: 20px; font-weight: bold; margin: 0;"">Is there a person in this image?</p>
                    </div>
                </div>","0","main_experiment_trial","ten","flight_scheme","schematic_sequence","","","","",""
"","","","","","html-keyboard-response","142","449662","0.0-142.0","4B1C31AE98E84D668428209AE669585D","019cf81c-115b-741d-b0cb-0fdc704b757b","019cf80d-4266-7117-8a51-54e13c84aca4","","null","<div style=""background-color: white; width: 100vw; height: 100vh;""></div>","null","","","","","","","","",""
"","","","","","html-keyboard-response","143","454680","0.0-143.0","4B1C31AE98E84D668428209AE669585D","019cf81c-115b-741d-b0cb-0fdc704b757b","019cf80d-4266-7117-8a51-54e13c84aca4","","null","
                <div class=""stimulus-container"">
                    <img src=""images/semantic_sequence/redecorating_a_house_semantic/redecorating_a_house_semantic_1.png"" class=""exp-image"">
                    <div class=""question-area""></div> 
                </div>","null","","","","","","","","",""
"","","","","","html-button-response","144","457498","0.0-144.0","4B1C31AE98E84D668428209AE669585D","019cf81c-115b-741d-b0cb-0fdc704b757b","019cf80d-4266-7117-8a51-54e13c84aca4","","2817","
                <div class=""stimulus-container"">
                    <img src=""images/semantic_sequence/redecorating_a_house_semantic/redecorating_a_house_semantic_1.png"" class=""exp-image"">
                    <div class=""question-area"">
                        <p style=""font-size: 20px; font-weight: bold; margin: 0;"">Is there a person in this image?</p>
                    </div>
                </div>","0","main_experiment_trial","1","redecorating_a_house_semantic","semantic_sequence","","","","",""
"","","","","","html-keyboard-response","145","462509","0.0-145.0","4B1C31AE98E84D668428209AE669585D","019cf81c-115b-741d-b0cb-0fdc704b757b","019cf80d-4266-7117-8a51-54e13c84aca4","","null","
                <div class=""stimulus-container"">
                    <img src=""images/semantic_sequence/redecorating_a_house_semantic/redecorating_a_house_semantic_2.png"" class=""exp-image"">
                    <div class=""question-area""></div> 
                </div>","null","","","","","","","","",""
"","","","","","html-button-response","146","463218","0.0-146.0","4B1C31AE98E84D668428209AE669585D","019cf81c-115b-741d-b0cb-0fdc704b757b","019cf80d-4266-7117-8a51-54e13c84aca4","","707","
                <div class=""stimulus-container"">
                    <img src=""images/semantic_sequence/redecorating_a_house_semantic/redecorating_a_house_semantic_2.png"" class=""exp-image"">
                    <div class=""question-area"">
                        <p style=""font-size: 20px; font-weight: bold; margin: 0;"">Is there a person in this image?</p>
                    </div>
                </div>","0","main_experiment_trial","2","redecorating_a_house_semantic","semantic_sequence","","","","",""
"","","","","","html-keyboard-response","147","468226","0.0-147.0","4B1C31AE98E84D668428209AE669585D","019cf81c-115b-741d-b0cb-0fdc704b757b","019cf80d-4266-7117-8a51-54e13c84aca4","","null","
                <div class=""stimulus-container"">
                    <img src=""images/semantic_sequence/redecorating_a_house_semantic/redecorating_a_house_semantic_3.png"" class=""exp-image"">
                    <div class=""question-area""></div> 
                </div>","null","","","","","","","","",""
"","","","","","html-button-response","148","469026","0.0-148.0","4B1C31AE98E84D668428209AE669585D","019cf81c-115b-741d-b0cb-0fdc704b757b","019cf80d-4266-7117-8a51-54e13c84aca4","","799","
                <div class=""stimulus-container"">
                    <img src=""images/semantic_sequence/redecorating_a_house_semantic/redecorating_a_house_semantic_3.png"" class=""exp-image"">
                    <div class=""question-area"">
                        <p style=""font-size: 20px; font-weight: bold; margin: 0;"">Is there a person in this image?</p>
                    </div>
                </div>","0","main_experiment_trial","3","redecorating_a_house_semantic","semantic_sequence","","","","",""
"","","","","","html-keyboard-response","149","474029","0.0-149.0","4B1C31AE98E84D668428209AE669585D","019cf81c-115b-741d-b0cb-0fdc704b757b","019cf80d-4266-7117-8a51-54e13c84aca4","","null","
                <div class=""stimulus-container"">
                    <img src=""images/semantic_sequence/redecorating_a_house_semantic/redecorating_a_house_semantic_4.png"" class=""exp-image"">
                    <div class=""question-area""></div> 
                </div>","null","","","","","","","","",""
"","","","","","html-button-response","150","474738","0.0-150.0","4B1C31AE98E84D668428209AE669585D","019cf81c-115b-741d-b0cb-0fdc704b757b","019cf80d-4266-7117-8a51-54e13c84aca4","","708","
                <div class=""stimulus-container"">
                    <img src=""images/semantic_sequence/redecorating_a_house_semantic/redecorating_a_house_semantic_4.png"" class=""exp-image"">
                    <div class=""question-area"">
                        <p style=""font-size: 20px; font-weight: bold; margin: 0;"">Is there a person in this image?</p>
                    </div>
                </div>","0","main_experiment_trial","4","redecorating_a_house_semantic","semantic_sequence","","","","",""
"","","","","","html-keyboard-response","151","479752","0.0-151.0","4B1C31AE98E84D668428209AE669585D","019cf81c-115b-741d-b0cb-0fdc704b757b","019cf80d-4266-7117-8a51-54e13c84aca4","","null","
                <div class=""stimulus-container"">
                    <img src=""images/semantic_sequence/redecorating_a_house_semantic/redecorating_a_house_semantic_5.png"" class=""exp-image"">
                    <div class=""question-area""></div> 
                </div>","null","","","","","","","","",""
"","","","","","html-button-response","152","480322","0.0-152.0","4B1C31AE98E84D668428209AE669585D","019cf81c-115b-741d-b0cb-0fdc704b757b","019cf80d-4266-7117-8a51-54e13c84aca4","","568","
                <div class=""stimulus-container"">
                    <img src=""images/semantic_sequence/redecorating_a_house_semantic/redecorating_a_house_semantic_5.png"" class=""exp-image"">
                    <div class=""question-area"">
                        <p style=""font-size: 20px; font-weight: bold; margin: 0;"">Is there a person in this image?</p>
                    </div>
                </div>","0","main_experiment_trial","5","redecorating_a_house_semantic","semantic_sequence","","","","",""
"","","","","","html-keyboard-response","153","485324","0.0-153.0","4B1C31AE98E84D668428209AE669585D","019cf81c-115b-741d-b0cb-0fdc704b757b","019cf80d-4266-7117-8a51-54e13c84aca4","","null","
                <div class=""stimulus-container"">
                    <img src=""images/semantic_sequence/redecorating_a_house_semantic/redecorating_a_house_semantic_6.png"" class=""exp-image"">
                    <div class=""question-area""></div> 
                </div>","null","","","","","","","","",""
"","","","","","html-button-response","154","486266","0.0-154.0","4B1C31AE98E84D668428209AE669585D","019cf81c-115b-741d-b0cb-0fdc704b757b","019cf80d-4266-7117-8a51-54e13c84aca4","","940","
                <div class=""stimulus-container"">
                    <img src=""images/semantic_sequence/redecorating_a_house_semantic/redecorating_a_house_semantic_6.png"" class=""exp-image"">
                    <div class=""question-area"">
                        <p style=""font-size: 20px; font-weight: bold; margin: 0;"">Is there a person in this image?</p>
                    </div>
                </div>","0","main_experiment_trial","6","redecorating_a_house_semantic","semantic_sequence","","","","",""
"","","","","","html-keyboard-response","155","491271","0.0-155.0","4B1C31AE98E84D668428209AE669585D","019cf81c-115b-741d-b0cb-0fdc704b757b","019cf80d-4266-7117-8a51-54e13c84aca4","","null","
                <div class=""stimulus-container"">
                    <img src=""images/semantic_sequence/redecorating_a_house_semantic/redecorating_a_house_semantic_7.png"" class=""exp-image"">
                    <div class=""question-area""></div> 
                </div>","null","","","","","","","","",""
"","","","","","html-button-response","156","492082","0.0-156.0","4B1C31AE98E84D668428209AE669585D","019cf81c-115b-741d-b0cb-0fdc704b757b","019cf80d-4266-7117-8a51-54e13c84aca4","","810","
                <div class=""stimulus-container"">
                    <img src=""images/semantic_sequence/redecorating_a_house_semantic/redecorating_a_house_semantic_7.png"" class=""exp-image"">
                    <div class=""question-area"">
                        <p style=""font-size: 20px; font-weight: bold; margin: 0;"">Is there a person in this image?</p>
                    </div>
                </div>","0","main_experiment_trial","7","redecorating_a_house_semantic","semantic_sequence","","","","",""
"","","","","","html-keyboard-response","157","497099","0.0-157.0","4B1C31AE98E84D668428209AE669585D","019cf81c-115b-741d-b0cb-0fdc704b757b","019cf80d-4266-7117-8a51-54e13c84aca4","","null","
                <div class=""stimulus-container"">
                    <img src=""images/semantic_sequence/redecorating_a_house_semantic/redecorating_a_house_semantic_8.png"" class=""exp-image"">
                    <div class=""question-area""></div> 
                </div>","null","","","","","","","","",""
"","","","","","html-button-response","158","497826","0.0-158.0","4B1C31AE98E84D668428209AE669585D","019cf81c-115b-741d-b0cb-0fdc704b757b","019cf80d-4266-7117-8a51-54e13c84aca4","","725","
                <div class=""stimulus-container"">
                    <img src=""images/semantic_sequence/redecorating_a_house_semantic/redecorating_a_house_semantic_8.png"" class=""exp-image"">
                    <div class=""question-area"">
                        <p style=""font-size: 20px; font-weight: bold; margin: 0;"">Is there a person in this image?</p>
                    </div>
                </div>","0","main_experiment_trial","8","redecorating_a_house_semantic","semantic_sequence","","","","",""
"","","","","","html-keyboard-response","159","502831","0.0-159.0","4B1C31AE98E84D668428209AE669585D","019cf81c-115b-741d-b0cb-0fdc704b757b","019cf80d-4266-7117-8a51-54e13c84aca4","","null","
                <div class=""stimulus-container"">
                    <img src=""images/semantic_sequence/redecorating_a_house_semantic/redecorating_a_house_semantic_9.png"" class=""exp-image"">
                    <div class=""question-area""></div> 
                </div>","null","","","","","","","","",""
"","","","","","html-button-response","160","503754","0.0-160.0","4B1C31AE98E84D668428209AE669585D","019cf81c-115b-741d-b0cb-0fdc704b757b","019cf80d-4266-7117-8a51-54e13c84aca4","","922","
                <div class=""stimulus-container"">
                    <img src=""images/semantic_sequence/redecorating_a_house_semantic/redecorating_a_house_semantic_9.png"" class=""exp-image"">
                    <div class=""question-area"">
                        <p style=""font-size: 20px; font-weight: bold; margin: 0;"">Is there a person in this image?</p>
                    </div>
                </div>","0","main_experiment_trial","9","redecorating_a_house_semantic","semantic_sequence","","","","",""
"","","","","","html-keyboard-response","161","508759","0.0-161.0","4B1C31AE98E84D668428209AE669585D","019cf81c-115b-741d-b0cb-0fdc704b757b","019cf80d-4266-7117-8a51-54e13c84aca4","","null","
                <div class=""stimulus-container"">
                    <img src=""images/semantic_sequence/redecorating_a_house_semantic/redecorating_a_house_semantic_ten.png"" class=""exp-image"">
                    <div class=""question-area""></div> 
                </div>","null","","","","","","","","",""
"","","","","","html-button-response","162","509410","0.0-162.0","4B1C31AE98E84D668428209AE669585D","019cf81c-115b-741d-b0cb-0fdc704b757b","019cf80d-4266-7117-8a51-54e13c84aca4","","649","
                <div class=""stimulus-container"">
                    <img src=""images/semantic_sequence/redecorating_a_house_semantic/redecorating_a_house_semantic_ten.png"" class=""exp-image"">
                    <div class=""question-area"">
                        <p style=""font-size: 20px; font-weight: bold; margin: 0;"">Is there a person in this image?</p>
                    </div>
                </div>","0","main_experiment_trial","ten","redecorating_a_house_semantic","semantic_sequence","","","","",""
"","","","","","html-keyboard-response","163","510413","0.0-163.0","4B1C31AE98E84D668428209AE669585D","019cf81c-115b-741d-b0cb-0fdc704b757b","019cf80d-4266-7117-8a51-54e13c84aca4","","null","<div style=""background-color: white; width: 100vw; height: 100vh;""></div>","null","","","","","","","","",""
"","","","","","html-keyboard-response","164","515425","0.0-164.0","4B1C31AE98E84D668428209AE669585D","019cf81c-115b-741d-b0cb-0fdc704b757b","019cf80d-4266-7117-8a51-54e13c84aca4","","null","
                <div class=""stimulus-container"">
                    <img src=""images/semantic_sequence/kitchen_operations_semantic/kitchen_operations_semantic_1.png"" class=""exp-image"">
                    <div class=""question-area""></div> 
                </div>","null","","","","","","","","",""
"","","","","","html-button-response","165","516026","0.0-165.0","4B1C31AE98E84D668428209AE669585D","019cf81c-115b-741d-b0cb-0fdc704b757b","019cf80d-4266-7117-8a51-54e13c84aca4","","600","
                <div class=""stimulus-container"">
                    <img src=""images/semantic_sequence/kitchen_operations_semantic/kitchen_operations_semantic_1.png"" class=""exp-image"">
                    <div class=""question-area"">
                        <p style=""font-size: 20px; font-weight: bold; margin: 0;"">Is there a person in this image?</p>
                    </div>
                </div>","0","main_experiment_trial","1","kitchen_operations_semantic","semantic_sequence","","","","",""
"","","","","","html-keyboard-response","166","521042","0.0-166.0","4B1C31AE98E84D668428209AE669585D","019cf81c-115b-741d-b0cb-0fdc704b757b","019cf80d-4266-7117-8a51-54e13c84aca4","","null","
                <div class=""stimulus-container"">
                    <img src=""images/semantic_sequence/kitchen_operations_semantic/kitchen_operations_semantic_2.png"" class=""exp-image"">
                    <div class=""question-area""></div> 
                </div>","null","","","","","","","","",""
"","","","","","html-button-response","167","521562","0.0-167.0","4B1C31AE98E84D668428209AE669585D","019cf81c-115b-741d-b0cb-0fdc704b757b","019cf80d-4266-7117-8a51-54e13c84aca4","","518","
                <div class=""stimulus-container"">
                    <img src=""images/semantic_sequence/kitchen_operations_semantic/kitchen_operations_semantic_2.png"" class=""exp-image"">
                    <div class=""question-area"">
                        <p style=""font-size: 20px; font-weight: bold; margin: 0;"">Is there a person in this image?</p>
                    </div>
                </div>","0","main_experiment_trial","2","kitchen_operations_semantic","semantic_sequence","","","","",""
"","","","","","html-keyboard-response","168","526574","0.0-168.0","4B1C31AE98E84D668428209AE669585D","019cf81c-115b-741d-b0cb-0fdc704b757b","019cf80d-4266-7117-8a51-54e13c84aca4","","null","
                <div class=""stimulus-container"">
                    <img src=""images/semantic_sequence/kitchen_operations_semantic/kitchen_operations_semantic_3.png"" class=""exp-image"">
                    <div class=""question-area""></div> 
                </div>","null","","","","","","","","",""
"","","","","","html-button-response","169","527114","0.0-169.0","4B1C31AE98E84D668428209AE669585D","019cf81c-115b-741d-b0cb-0fdc704b757b","019cf80d-4266-7117-8a51-54e13c84aca4","","539","
                <div class=""stimulus-container"">
                    <img src=""images/semantic_sequence/kitchen_operations_semantic/kitchen_operations_semantic_3.png"" class=""exp-image"">
                    <div class=""question-area"">
                        <p style=""font-size: 20px; font-weight: bold; margin: 0;"">Is there a person in this image?</p>
                    </div>
                </div>","0","main_experiment_trial","3","kitchen_operations_semantic","semantic_sequence","","","","",""
"","","","","","html-keyboard-response","170","532124","0.0-170.0","4B1C31AE98E84D668428209AE669585D","019cf81c-115b-741d-b0cb-0fdc704b757b","019cf80d-4266-7117-8a51-54e13c84aca4","","null","
                <div class=""stimulus-container"">
                    <img src=""images/semantic_sequence/kitchen_operations_semantic/kitchen_operations_semantic_4.png"" class=""exp-image"">
                    <div class=""question-area""></div> 
                </div>","null","","","","","","","","",""
"","","","","","html-button-response","171","532818","0.0-171.0","4B1C31AE98E84D668428209AE669585D","019cf81c-115b-741d-b0cb-0fdc704b757b","019cf80d-4266-7117-8a51-54e13c84aca4","","692","
                <div class=""stimulus-container"">
                    <img src=""images/semantic_sequence/kitchen_operations_semantic/kitchen_operations_semantic_4.png"" class=""exp-image"">
                    <div class=""question-area"">
                        <p style=""font-size: 20px; font-weight: bold; margin: 0;"">Is there a person in this image?</p>
                    </div>
                </div>","0","main_experiment_trial","4","kitchen_operations_semantic","semantic_sequence","","","","",""
"","","","","","html-keyboard-response","172","537829","0.0-172.0","4B1C31AE98E84D668428209AE669585D","019cf81c-115b-741d-b0cb-0fdc704b757b","019cf80d-4266-7117-8a51-54e13c84aca4","","null","
                <div class=""stimulus-container"">
                    <img src=""images/semantic_sequence/kitchen_operations_semantic/kitchen_operations_semantic_5.png"" class=""exp-image"">
                    <div class=""question-area""></div> 
                </div>","null","","","","","","","","",""
"","","","","","html-button-response","173","538538","0.0-173.0","4B1C31AE98E84D668428209AE669585D","019cf81c-115b-741d-b0cb-0fdc704b757b","019cf80d-4266-7117-8a51-54e13c84aca4","","707","
                <div class=""stimulus-container"">
                    <img src=""images/semantic_sequence/kitchen_operations_semantic/kitchen_operations_semantic_5.png"" class=""exp-image"">
                    <div class=""question-area"">
                        <p style=""font-size: 20px; font-weight: bold; margin: 0;"">Is there a person in this image?</p>
                    </div>
                </div>","0","main_experiment_trial","5","kitchen_operations_semantic","semantic_sequence","","","","",""
"","","","","","html-keyboard-response","174","543542","0.0-174.0","4B1C31AE98E84D668428209AE669585D","019cf81c-115b-741d-b0cb-0fdc704b757b","019cf80d-4266-7117-8a51-54e13c84aca4","","null","
                <div class=""stimulus-container"">
                    <img src=""images/semantic_sequence/kitchen_operations_semantic/kitchen_operations_semantic_6.png"" class=""exp-image"">
                    <div class=""question-area""></div> 
                </div>","null","","","","","","","","",""
"","","","","","html-button-response","175","544393","0.0-175.0","4B1C31AE98E84D668428209AE669585D","019cf81c-115b-741d-b0cb-0fdc704b757b","019cf80d-4266-7117-8a51-54e13c84aca4","","849","
                <div class=""stimulus-container"">
                    <img src=""images/semantic_sequence/kitchen_operations_semantic/kitchen_operations_semantic_6.png"" class=""exp-image"">
                    <div class=""question-area"">
                        <p style=""font-size: 20px; font-weight: bold; margin: 0;"">Is there a person in this image?</p>
                    </div>
                </div>","0","main_experiment_trial","6","kitchen_operations_semantic","semantic_sequence","","","","",""
"","","","","","html-keyboard-response","176","549402","0.0-176.0","4B1C31AE98E84D668428209AE669585D","019cf81c-115b-741d-b0cb-0fdc704b757b","019cf80d-4266-7117-8a51-54e13c84aca4","","null","
                <div class=""stimulus-container"">
                    <img src=""images/semantic_sequence/kitchen_operations_semantic/kitchen_operations_semantic_7.png"" class=""exp-image"">
                    <div class=""question-area""></div> 
                </div>","null","","","","","","","","",""
"","","","","","html-button-response","177","550402","0.0-177.0","4B1C31AE98E84D668428209AE669585D","019cf81c-115b-741d-b0cb-0fdc704b757b","019cf80d-4266-7117-8a51-54e13c84aca4","","998","
                <div class=""stimulus-container"">
                    <img src=""images/semantic_sequence/kitchen_operations_semantic/kitchen_operations_semantic_7.png"" class=""exp-image"">
                    <div class=""question-area"">
                        <p style=""font-size: 20px; font-weight: bold; margin: 0;"">Is there a person in this image?</p>
                    </div>
                </div>","0","main_experiment_trial","7","kitchen_operations_semantic","semantic_sequence","","","","",""
"","","","","","html-keyboard-response","178","555404","0.0-178.0","4B1C31AE98E84D668428209AE669585D","019cf81c-115b-741d-b0cb-0fdc704b757b","019cf80d-4266-7117-8a51-54e13c84aca4","","null","
                <div class=""stimulus-container"">
                    <img src=""images/semantic_sequence/kitchen_operations_semantic/kitchen_operations_semantic_8.png"" class=""exp-image"">
                    <div class=""question-area""></div> 
                </div>","null","","","","","","","","",""
"","","","","","html-button-response","179","555969","0.0-179.0","4B1C31AE98E84D668428209AE669585D","019cf81c-115b-741d-b0cb-0fdc704b757b","019cf80d-4266-7117-8a51-54e13c84aca4","","564","
                <div class=""stimulus-container"">
