"success","timeout","failed_images","failed_audio","failed_video","trial_type","trial_index","time_elapsed","internal_node_id","view_history","rt","stimulus","response","task","folder","sequence_type","img_idx","value","version","comparison_type","block_story","block_info","left_path","right_path"
"true","false","[]","[]","[]","preload","0","178","0.0-0.0","","","","","","","","","","","","","","",""
"","","","","","instructions","1","2554","0.0-1.0","[{""page_index"":0,""viewing_time"":2375}]","2375","","","","","","","","","","","","",""
"","","","","","instructions","2","18882","0.0-2.0","[{""page_index"":0,""viewing_time"":16328}]","16328","","","","","","","","","","","","",""
"true","","","","","fullscreen","3","21844","0.0-3.0","","1961","","","","","","","","","","","","",""
"","","","","","instructions","4","23842","0.0-4.0","[{""page_index"":0,""viewing_time"":1997}]","1998","","","","","","","","","","","","",""
"","","","","","html-keyboard-response","5","25852","0.0-5.0","","null","<div class=""transition-square""></div>","null","","","","","","","","","","",""
"","","","","","html-keyboard-response","6","30869","0.0-6.0","","null","<div class=""stimulus-container""><img src=""images_story_vs_info/info_3_1.png"" class=""exp-image""><div class=""question-area""></div></div>","null","","","","","","","","","","",""
"","","","","","html-button-response","7","33873","0.0-7.0","","null","<div class=""stimulus-container""><img src=""images_story_vs_info/info_3_1.png"" class=""exp-image""><div class=""question-area""><p style=""font-size: 20px; font-weight: bold; margin: 0;"">Is there a person in the description or image?</p></div></div>","null","observation","info_3","info","1","","","","","","",""
"","","","","","html-keyboard-response","8","38887","0.0-8.0","","null","<div class=""stimulus-container""><img src=""images_story_vs_info/info_3_2.png"" class=""exp-image""><div class=""question-area""></div></div>","null","","","","","","","","","","",""
"","","","","","html-button-response","9","41299","0.0-9.0","","2412","<div class=""stimulus-container""><img src=""images_story_vs_info/info_3_2.png"" class=""exp-image""><div class=""question-area""><p style=""font-size: 20px; font-weight: bold; margin: 0;"">Is there a person in the description or image?</p></div></div>","0","observation","info_3","info","2","","","","","","",""
"","","","","","html-keyboard-response","10","46310","0.0-10.0","","null","<div class=""stimulus-container""><img src=""images_story_vs_info/info_3_3.png"" class=""exp-image""><div class=""question-area""></div></div>","null","","","","","","","","","","",""
"","","","","","html-button-response","11","47230","0.0-11.0","","919","<div class=""stimulus-container""><img src=""images_story_vs_info/info_3_3.png"" class=""exp-image""><div class=""question-area""><p style=""font-size: 20px; font-weight: bold; margin: 0;"">Is there a person in the description or image?</p></div></div>","0","observation","info_3","info","3","","","","","","",""
"","","","","","html-keyboard-response","12","52235","0.0-12.0","","null","<div class=""stimulus-container""><img src=""images_story_vs_info/info_3_4.png"" class=""exp-image""><div class=""question-area""></div></div>","null","","","","","","","","","","",""
"","","","","","html-button-response","13","53020","0.0-13.0","","785","<div class=""stimulus-container""><img src=""images_story_vs_info/info_3_4.png"" class=""exp-image""><div class=""question-area""><p style=""font-size: 20px; font-weight: bold; margin: 0;"">Is there a person in the description or image?</p></div></div>","0","observation","info_3","info","4","","","","","","",""
"","","","","","html-keyboard-response","14","58037","0.0-14.0","","null","<div class=""stimulus-container""><img src=""images_story_vs_info/info_3_5.png"" class=""exp-image""><div class=""question-area""></div></div>","null","","","","","","","","","","",""
"","","","","","html-button-response","15","59203","0.0-15.0","","1165","<div class=""stimulus-container""><img src=""images_story_vs_info/info_3_5.png"" class=""exp-image""><div class=""question-area""><p style=""font-size: 20px; font-weight: bold; margin: 0;"">Is there a person in the description or image?</p></div></div>","1","observation","info_3","info","5","","","","","","",""
"","","","","","html-keyboard-response","16","61212","0.0-16.0","","null","<div class=""transition-square""></div>","null","","","","","","","","","","",""
"","","","","","html-keyboard-response","17","66213","0.0-17.0","","null","<div class=""stimulus-container""><img src=""images_story_vs_info/story_4_1.png"" class=""exp-image""><div class=""question-area""></div></div>","null","","","","","","","","","","",""
"","","","","","html-button-response","18","67067","0.0-18.0","","853","<div class=""stimulus-container""><img src=""images_story_vs_info/story_4_1.png"" class=""exp-image""><div class=""question-area""><p style=""font-size: 20px; font-weight: bold; margin: 0;"">Is there a person in the description or image?</p></div></div>","0","observation","story_4","story","1","","","","","","",""
"","","","","","html-keyboard-response","19","72075","0.0-19.0","","null","<div class=""stimulus-container""><img src=""images_story_vs_info/story_4_2.png"" class=""exp-image""><div class=""question-area""></div></div>","null","","","","","","","","","","",""
"","","","","","html-button-response","20","72861","0.0-20.0","","786","<div class=""stimulus-container""><img src=""images_story_vs_info/story_4_2.png"" class=""exp-image""><div class=""question-area""><p style=""font-size: 20px; font-weight: bold; margin: 0;"">Is there a person in the description or image?</p></div></div>","0","observation","story_4","story","2","","","","","","",""
"","","","","","html-keyboard-response","21","77875","0.0-21.0","","null","<div class=""stimulus-container""><img src=""images_story_vs_info/story_4_3.png"" class=""exp-image""><div class=""question-area""></div></div>","null","","","","","","","","","","",""
"","","","","","html-button-response","22","78611","0.0-22.0","","736","<div class=""stimulus-container""><img src=""images_story_vs_info/story_4_3.png"" class=""exp-image""><div class=""question-area""><p style=""font-size: 20px; font-weight: bold; margin: 0;"">Is there a person in the description or image?</p></div></div>","0","observation","story_4","story","3","","","","","","",""
"","","","","","html-keyboard-response","23","83614","0.0-23.0","","null","<div class=""stimulus-container""><img src=""images_story_vs_info/story_4_4.png"" class=""exp-image""><div class=""question-area""></div></div>","null","","","","","","","","","","",""
"","","","","","html-button-response","24","84325","0.0-24.0","","710","<div class=""stimulus-container""><img src=""images_story_vs_info/story_4_4.png"" class=""exp-image""><div class=""question-area""><p style=""font-size: 20px; font-weight: bold; margin: 0;"">Is there a person in the description or image?</p></div></div>","0","observation","story_4","story","4","","","","","","",""
"","","","","","html-keyboard-response","25","89340","0.0-25.0","","null","<div class=""stimulus-container""><img src=""images_story_vs_info/story_4_5.png"" class=""exp-image""><div class=""question-area""></div></div>","null","","","","","","","","","","",""
"","","","","","html-button-response","26","89917","0.0-26.0","","575","<div class=""stimulus-container""><img src=""images_story_vs_info/story_4_5.png"" class=""exp-image""><div class=""question-area""><p style=""font-size: 20px; font-weight: bold; margin: 0;"">Is there a person in the description or image?</p></div></div>","0","observation","story_4","story","5","","","","","","",""
"","","","","","html-keyboard-response","27","91921","0.0-27.0","","null","<div class=""transition-square""></div>","null","","","","","","","","","","",""
"","","","","","html-keyboard-response","28","96922","0.0-28.0","","null","<div class=""stimulus-container""><img src=""images_story_vs_info/info_1_1.png"" class=""exp-image""><div class=""question-area""></div></div>","null","","","","","","","","","","",""
"","","","","","html-button-response","29","97716","0.0-29.0","","794","<div class=""stimulus-container""><img src=""images_story_vs_info/info_1_1.png"" class=""exp-image""><div class=""question-area""><p style=""font-size: 20px; font-weight: bold; margin: 0;"">Is there a person in the description or image?</p></div></div>","0","observation","info_1","info","1","","","","","","",""
"","","","","","html-keyboard-response","30","102722","0.0-30.0","","null","<div class=""stimulus-container""><img src=""images_story_vs_info/info_1_2.png"" class=""exp-image""><div class=""question-area""></div></div>","null","","","","","","","","","","",""
"","","","","","html-button-response","31","103844","0.0-31.0","","1122","<div class=""stimulus-container""><img src=""images_story_vs_info/info_1_2.png"" class=""exp-image""><div class=""question-area""><p style=""font-size: 20px; font-weight: bold; margin: 0;"">Is there a person in the description or image?</p></div></div>","1","observation","info_1","info","2","","","","","","",""
"","","","","","html-keyboard-response","32","108860","0.0-32.0","","null","<div class=""stimulus-container""><img src=""images_story_vs_info/info_1_3.png"" class=""exp-image""><div class=""question-area""></div></div>","null","","","","","","","","","","",""
"","","","","","html-button-response","33","109740","0.0-33.0","","879","<div class=""stimulus-container""><img src=""images_story_vs_info/info_1_3.png"" class=""exp-image""><div class=""question-area""><p style=""font-size: 20px; font-weight: bold; margin: 0;"">Is there a person in the description or image?</p></div></div>","0","observation","info_1","info","3","","","","","","",""
"","","","","","html-keyboard-response","34","114742","0.0-34.0","","null","<div class=""stimulus-container""><img src=""images_story_vs_info/info_1_4.png"" class=""exp-image""><div class=""question-area""></div></div>","null","","","","","","","","","","",""
"","","","","","html-button-response","35","115524","0.0-35.0","","781","<div class=""stimulus-container""><img src=""images_story_vs_info/info_1_4.png"" class=""exp-image""><div class=""question-area""><p style=""font-size: 20px; font-weight: bold; margin: 0;"">Is there a person in the description or image?</p></div></div>","0","observation","info_1","info","4","","","","","","",""
"","","","","","html-keyboard-response","36","120526","0.0-36.0","","null","<div class=""stimulus-container""><img src=""images_story_vs_info/info_1_5.png"" class=""exp-image""><div class=""question-area""></div></div>","null","","","","","","","","","","",""
"","","","","","html-button-response","37","121475","0.0-37.0","","949","<div class=""stimulus-container""><img src=""images_story_vs_info/info_1_5.png"" class=""exp-image""><div class=""question-area""><p style=""font-size: 20px; font-weight: bold; margin: 0;"">Is there a person in the description or image?</p></div></div>","0","observation","info_1","info","5","","","","","","",""
"","","","","","html-keyboard-response","38","123478","0.0-38.0","","null","<div class=""transition-square""></div>","null","","","","","","","","","","",""
"","","","","","html-keyboard-response","39","128494","0.0-39.0","","null","<div class=""stimulus-container""><img src=""images_story_vs_info/story_2_1.png"" class=""exp-image""><div class=""question-area""></div></div>","null","","","","","","","","","","",""
"","","","","","html-button-response","40","129244","0.0-40.0","","749","<div class=""stimulus-container""><img src=""images_story_vs_info/story_2_1.png"" class=""exp-image""><div class=""question-area""><p style=""font-size: 20px; font-weight: bold; margin: 0;"">Is there a person in the description or image?</p></div></div>","0","observation","story_2","story","1","","","","","","",""
"","","","","","html-keyboard-response","41","134257","0.0-41.0","","null","<div class=""stimulus-container""><img src=""images_story_vs_info/story_2_2.png"" class=""exp-image""><div class=""question-area""></div></div>","null","","","","","","","","","","",""
"","","","","","html-button-response","42","135061","0.0-42.0","","803","<div class=""stimulus-container""><img src=""images_story_vs_info/story_2_2.png"" class=""exp-image""><div class=""question-area""><p style=""font-size: 20px; font-weight: bold; margin: 0;"">Is there a person in the description or image?</p></div></div>","0","observation","story_2","story","2","","","","","","",""
"","","","","","html-keyboard-response","43","140072","0.0-43.0","","null","<div class=""stimulus-container""><img src=""images_story_vs_info/story_2_3.png"" class=""exp-image""><div class=""question-area""></div></div>","null","","","","","","","","","","",""
"","","","","","html-button-response","44","140916","0.0-44.0","","843","<div class=""stimulus-container""><img src=""images_story_vs_info/story_2_3.png"" class=""exp-image""><div class=""question-area""><p style=""font-size: 20px; font-weight: bold; margin: 0;"">Is there a person in the description or image?</p></div></div>","0","observation","story_2","story","3","","","","","","",""
"","","","","","html-keyboard-response","45","145926","0.0-45.0","","null","<div class=""stimulus-container""><img src=""images_story_vs_info/story_2_4.png"" class=""exp-image""><div class=""question-area""></div></div>","null","","","","","","","","","","",""
"","","","","","html-button-response","46","146620","0.0-46.0","","694","<div class=""stimulus-container""><img src=""images_story_vs_info/story_2_4.png"" class=""exp-image""><div class=""question-area""><p style=""font-size: 20px; font-weight: bold; margin: 0;"">Is there a person in the description or image?</p></div></div>","0","observation","story_2","story","4","","","","","","",""
"","","","","","html-keyboard-response","47","151625","0.0-47.0","","null","<div class=""stimulus-container""><img src=""images_story_vs_info/story_2_5.png"" class=""exp-image""><div class=""question-area""></div></div>","null","","","","","","","","","","",""
"","","","","","html-button-response","48","152325","0.0-48.0","","699","<div class=""stimulus-container""><img src=""images_story_vs_info/story_2_5.png"" class=""exp-image""><div class=""question-area""><p style=""font-size: 20px; font-weight: bold; margin: 0;"">Is there a person in the description or image?</p></div></div>","0","observation","story_2","story","5","","","","","","",""
"","","","","","instructions","49","157405","0.0-49.0","[{""page_index"":0,""viewing_time"":5079}]","5079","","","","","","","","","","","","",""
"","","","","","html-button-response","50","259759","0.0-50.0","","102354","<div class=""stimulus-container""><p style=""font-family:Arial; font-size:20px;"">The event is reaching its end...</p><img src=""images_story_vs_info/info_3_5.png"" class=""exp-image""></div>","0","","","","","","","","","","",""
"","","","","","html-button-response","51","266809","0.0-51.0","","7050","<div class=""stimulus-container""><p style=""font-family:Arial; font-size:20px;"">The outcome:</p><img src=""images_story_vs_info/info_3_6_a.png"" class=""exp-image""><div class=""value-tag val-high"">This outcome is worth: $100</div></div>","0","learning","info_3","","","$100","a","","","","",""
"","","","","","html-button-response","52","268446","0.0-52.0","","1636","<div class=""stimulus-container""><p style=""font-family:Arial; font-size:20px;"">The event is reaching its end...</p><img src=""images_story_vs_info/story_2_5.png"" class=""exp-image""></div>","0","","","","","","","","","","",""
"","","","","","html-button-response","53","275206","0.0-53.0","","6759","<div class=""stimulus-container""><p style=""font-family:Arial; font-size:20px;"">The outcome:</p><img src=""images_story_vs_info/story_2_6_a.png"" class=""exp-image""><div class=""value-tag val-high"">This outcome is worth: $100</div></div>","0","learning","story_2","","","$100","a","","","","",""
"","","","","","html-button-response","54","276727","0.0-54.0","","1520","<div class=""stimulus-container""><p style=""font-family:Arial; font-size:20px;"">The event is reaching its end...</p><img src=""images_story_vs_info/story_4_5.png"" class=""exp-image""></div>","0","","","","","","","","","","",""
"","","","","","html-button-response","55","377937","0.0-55.0","","101210","<div class=""stimulus-container""><p style=""font-family:Arial; font-size:20px;"">The outcome:</p><img src=""images_story_vs_info/story_4_6_b.png"" class=""exp-image""><div class=""value-tag val-low"">This outcome is worth: $0</div></div>","0","learning","story_4","","","$0","b","","","","",""
"","","","","","html-button-response","56","379105","0.0-56.0","","1168","<div class=""stimulus-container""><p style=""font-family:Arial; font-size:20px;"">The event is reaching its end...</p><img src=""images_story_vs_info/info_1_5.png"" class=""exp-image""></div>","0","","","","","","","","","","",""
"","","","","","html-button-response","57","385857","0.0-57.0","","6751","<div class=""stimulus-container""><p style=""font-family:Arial; font-size:20px;"">The outcome:</p><img src=""images_story_vs_info/info_1_6_b.png"" class=""exp-image""><div class=""value-tag val-low"">This outcome is worth: $0</div></div>","0","learning","info_1","","","$0","b","","","","",""
"","","","","","instructions","58","388528","0.0-58.0","[{""page_index"":0,""viewing_time"":2671}]","2671","","","","","","","","","","","","",""
"","","","","","html-button-response","59","393585","0.0-59.0","","5055","
                <div style=""font-family: Arial; margin-bottom: 20px;""><h3>Which image is worth <b>more money</b>?</h3></div>
                <div class=""stimulus-container"" style=""display: flex; flex-direction: row; width: 800px; justify-content: center; gap: 30px;"">
                    <img src=""images_story_vs_info/story_2_6_b.png"" class=""small-image"">
                    <img src=""images_story_vs_info/info_3_6_b.png"" class=""small-image"">
                </div>","0","choice_comparison","","","6","","","Valuable_Story_vs_Info","story_2","info_3","images_story_vs_info/story_2_6_b.png","images_story_vs_info/info_3_6_b.png"
"","","","","","html-button-response","60","396993","0.0-60.0","","3407","
                <div style=""font-family: Arial; margin-bottom: 20px;""><h3>Which image is worth <b>more money</b>?</h3></div>
                <div class=""stimulus-container"" style=""display: flex; flex-direction: row; width: 800px; justify-content: center; gap: 30px;"">
                    <img src=""images_story_vs_info/story_4_6_b.png"" class=""small-image"">
                    <img src=""images_story_vs_info/info_1_6_b.png"" class=""small-image"">
                </div>","0","choice_comparison","","","6","","","Neutral_Story_vs_Info","story_4","info_1","images_story_vs_info/story_4_6_b.png","images_story_vs_info/info_1_6_b.png"
"","","","","","html-button-response","61","398945","0.0-61.0","","1952","
                <div style=""font-family: Arial; margin-bottom: 20px;""><h3>Which image is worth <b>more money</b>?</h3></div>
                <div class=""stimulus-container"" style=""display: flex; flex-direction: row; width: 800px; justify-content: center; gap: 30px;"">
                    <img src=""images_story_vs_info/story_2_5.png"" class=""small-image"">
                    <img src=""images_story_vs_info/info_3_5.png"" class=""small-image"">
                </div>","0","choice_comparison","","","5","","","Valuable_Story_vs_Info","story_2","info_3","images_story_vs_info/story_2_5.png","images_story_vs_info/info_3_5.png"
"","","","","","html-button-response","62","400649","0.0-62.0","","1703","
                <div style=""font-family: Arial; margin-bottom: 20px;""><h3>Which image is worth <b>more money</b>?</h3></div>
                <div class=""stimulus-container"" style=""display: flex; flex-direction: row; width: 800px; justify-content: center; gap: 30px;"">
                    <img src=""images_story_vs_info/story_4_2.png"" class=""small-image"">
                    <img src=""images_story_vs_info/info_1_2.png"" class=""small-image"">
                </div>","0","choice_comparison","","","2","","","Neutral_Story_vs_Info","story_4","info_1","images_story_vs_info/story_4_2.png","images_story_vs_info/info_1_2.png"
"","","","","","html-button-response","63","407129","0.0-63.0","","6479","
                <div style=""font-family: Arial; margin-bottom: 20px;""><h3>Which image is worth <b>more money</b>?</h3></div>
                <div class=""stimulus-container"" style=""display: flex; flex-direction: row; width: 800px; justify-content: center; gap: 30px;"">
                    <img src=""images_story_vs_info/story_4_3.png"" class=""small-image"">
                    <img src=""images_story_vs_info/info_1_3.png"" class=""small-image"">
                </div>","1","choice_comparison","","","3","","","Neutral_Story_vs_Info","story_4","info_1","images_story_vs_info/story_4_3.png","images_story_vs_info/info_1_3.png"
"","","","","","html-button-response","64","408875","0.0-64.0","","1746","
                <div style=""font-family: Arial; margin-bottom: 20px;""><h3>Which image is worth <b>more money</b>?</h3></div>
                <div class=""stimulus-container"" style=""display: flex; flex-direction: row; width: 800px; justify-content: center; gap: 30px;"">
                    <img src=""images_story_vs_info/info_3_4.png"" class=""small-image"">
                    <img src=""images_story_vs_info/story_2_4.png"" class=""small-image"">
                </div>","1","choice_comparison","","","4","","","Valuable_Story_vs_Info","story_2","info_3","images_story_vs_info/info_3_4.png","images_story_vs_info/story_2_4.png"
"","","","","","html-button-response","65","413689","0.0-65.0","","4813","
                <div style=""font-family: Arial; margin-bottom: 20px;""><h3>Which image is worth <b>more money</b>?</h3></div>
                <div class=""stimulus-container"" style=""display: flex; flex-direction: row; width: 800px; justify-content: center; gap: 30px;"">
                    <img src=""images_story_vs_info/info_3_1.png"" class=""small-image"">
                    <img src=""images_story_vs_info/story_2_1.png"" class=""small-image"">
                </div>","0","choice_comparison","","","1","","","Valuable_Story_vs_Info","story_2","info_3","images_story_vs_info/info_3_1.png","images_story_vs_info/story_2_1.png"
"","","","","","html-button-response","66","416297","0.0-66.0","","2607","
                <div style=""font-family: Arial; margin-bottom: 20px;""><h3>Which image is worth <b>more money</b>?</h3></div>
                <div class=""stimulus-container"" style=""display: flex; flex-direction: row; width: 800px; justify-content: center; gap: 30px;"">
                    <img src=""images_story_vs_info/info_1_1.png"" class=""small-image"">
                    <img src=""images_story_vs_info/story_4_1.png"" class=""small-image"">
                </div>","0","choice_comparison","","","1","","","Neutral_Story_vs_Info","story_4","info_1","images_story_vs_info/info_1_1.png","images_story_vs_info/story_4_1.png"
"","","","","","html-button-response","67","418129","0.0-67.0","","1831","
                <div style=""font-family: Arial; margin-bottom: 20px;""><h3>Which image is worth <b>more money</b>?</h3></div>
                <div class=""stimulus-container"" style=""display: flex; flex-direction: row; width: 800px; justify-content: center; gap: 30px;"">
                    <img src=""images_story_vs_info/story_4_4.png"" class=""small-image"">
                    <img src=""images_story_vs_info/info_1_4.png"" class=""small-image"">
                </div>","0","choice_comparison","","","4","","","Neutral_Story_vs_Info","story_4","info_1","images_story_vs_info/story_4_4.png","images_story_vs_info/info_1_4.png"
"","","","","","html-button-response","68","420138","0.0-68.0","","2007","
                <div style=""font-family: Arial; margin-bottom: 20px;""><h3>Which image is worth <b>more money</b>?</h3></div>
                <div class=""stimulus-container"" style=""display: flex; flex-direction: row; width: 800px; justify-content: center; gap: 30px;"">
                    <img src=""images_story_vs_info/story_2_3.png"" class=""small-image"">
                    <img src=""images_story_vs_info/info_3_3.png"" class=""small-image"">
                </div>","1","choice_comparison","","","3","","","Valuable_Story_vs_Info","story_2","info_3","images_story_vs_info/story_2_3.png","images_story_vs_info/info_3_3.png"
"","","","","","html-button-response","69","421642","0.0-69.0","","1503","
                <div style=""font-family: Arial; margin-bottom: 20px;""><h3>Which image is worth <b>more money</b>?</h3></div>
                <div class=""stimulus-container"" style=""display: flex; flex-direction: row; width: 800px; justify-content: center; gap: 30px;"">
                    <img src=""images_story_vs_info/info_3_2.png"" class=""small-image"">
                    <img src=""images_story_vs_info/story_2_2.png"" class=""small-image"">
                </div>","0","choice_comparison","","","2","","","Valuable_Story_vs_Info","story_2","info_3","images_story_vs_info/info_3_2.png","images_story_vs_info/story_2_2.png"
"","","","","","html-button-response","70","423033","0.0-70.0","","1391","
                <div style=""font-family: Arial; margin-bottom: 20px;""><h3>Which image is worth <b>more money</b>?</h3></div>
                <div class=""stimulus-container"" style=""display: flex; flex-direction: row; width: 800px; justify-content: center; gap: 30px;"">
                    <img src=""images_story_vs_info/story_4_5.png"" class=""small-image"">
                    <img src=""images_story_vs_info/info_1_5.png"" class=""small-image"">
                </div>","1","choice_comparison","","","5","","","Neutral_Story_vs_Info","story_4","info_1","images_story_vs_info/story_4_5.png","images_story_vs_info/info_1_5.png"
"","","","","","survey-text","71","439715","0.0-71.0","","16674","","{""choice_strategy"":""The rainy season feels special because everything looks clean and green."",""gender"":""MALE"",""age"":""36""}","","","","","","","","","","",""
"","","","","","instructions","72","445347","0.0-72.0","[{""page_index"":0,""viewing_time"":5631}]","5631","","","","","","","","","","","","",""
