"success","timeout","failed_images","failed_audio","failed_video","trial_type","trial_index","time_elapsed","internal_node_id","subject_id","study_id","session_id","view_history","rt","stimulus","response","task","image_index","folder","sequence_type","presentation_order","valuable_image_index","reward_type","correct_choice","distance_from_x","target_X","chosen_image_index","is_x_plus_dist"
"true","false","[]","[]","[]","preload","0","8387","0.0-0.0","B528D0E2B5124EAB9D3106273937B135","019cfc2c-35d5-7ea4-bedb-49b4a3366750","019cfc28-2143-7934-89cc-ce6402563331","","","","","","","","","","","","","","","",""
"","","","","","instructions","1","13524","0.0-1.0","B528D0E2B5124EAB9D3106273937B135","019cfc2c-35d5-7ea4-bedb-49b4a3366750","019cfc28-2143-7934-89cc-ce6402563331","[{""page_index"":0,""viewing_time"":5136}]","5136","","","","","","","","","","","","","",""
"","","","","","instructions","2","16652","0.0-2.0","B528D0E2B5124EAB9D3106273937B135","019cfc2c-35d5-7ea4-bedb-49b4a3366750","019cfc28-2143-7934-89cc-ce6402563331","[{""page_index"":0,""viewing_time"":3128}]","3128","","","","","","","","","","","","","",""
"true","","","","","fullscreen","3","19690","0.0-3.0","B528D0E2B5124EAB9D3106273937B135","019cfc2c-35d5-7ea4-bedb-49b4a3366750","019cfc28-2143-7934-89cc-ce6402563331","","2023","","","","","","","","","","","","","",""
"","","","","","instructions","4","28164","0.0-4.0","B528D0E2B5124EAB9D3106273937B135","019cfc2c-35d5-7ea4-bedb-49b4a3366750","019cfc28-2143-7934-89cc-ce6402563331","[{""page_index"":0,""viewing_time"":8474}]","8474","","","","","","","","","","","","","",""
"","","","","","instructions","5","32052","0.0-5.0","B528D0E2B5124EAB9D3106273937B135","019cfc2c-35d5-7ea4-bedb-49b4a3366750","019cfc28-2143-7934-89cc-ce6402563331","[{""page_index"":0,""viewing_time"":3888}]","3888","","","","","","","","","","","","","",""
"","","","","","html-keyboard-response","6","36062","0.0-6.0","B528D0E2B5124EAB9D3106273937B135","019cfc2c-35d5-7ea4-bedb-49b4a3366750","019cfc28-2143-7934-89cc-ce6402563331","","null","
                <div class=""stimulus-container"">
                    <img src=""images/instructions/movie_1.png"" class=""exp-image"">
                    <div class=""question-area""></div> 
                </div>","null","","","","","","","","","","","",""
"","","","","","html-button-response","7","38518","0.0-7.0","B528D0E2B5124EAB9D3106273937B135","019cfc2c-35d5-7ea4-bedb-49b4a3366750","019cfc28-2143-7934-89cc-ce6402563331","","2454","
                <div class=""stimulus-container"">
                    <img src=""images/instructions/movie_1.png"" class=""exp-image"">
                    <div class=""question-area"">
                        <p style=""font-size: 20px; font-weight: bold; margin: 0;"">Was there a person in this image?</p>
                    </div>
                </div>","0","example_question","1","","","","","","","","","",""
"","","","","","html-keyboard-response","8","42525","0.0-8.0","B528D0E2B5124EAB9D3106273937B135","019cfc2c-35d5-7ea4-bedb-49b4a3366750","019cfc28-2143-7934-89cc-ce6402563331","","null","
                <div class=""stimulus-container"">
                    <img src=""images/instructions/movie_2.png"" class=""exp-image"">
                    <div class=""question-area""></div> 
                </div>","null","","","","","","","","","","","",""
"","","","","","html-button-response","9","43477","0.0-9.0","B528D0E2B5124EAB9D3106273937B135","019cfc2c-35d5-7ea4-bedb-49b4a3366750","019cfc28-2143-7934-89cc-ce6402563331","","951","
                <div class=""stimulus-container"">
                    <img src=""images/instructions/movie_2.png"" class=""exp-image"">
                    <div class=""question-area"">
                        <p style=""font-size: 20px; font-weight: bold; margin: 0;"">Was there a person in this image?</p>
                    </div>
                </div>","0","example_question","2","","","","","","","","","",""
"","","","","","html-keyboard-response","10","47483","0.0-10.0","B528D0E2B5124EAB9D3106273937B135","019cfc2c-35d5-7ea4-bedb-49b4a3366750","019cfc28-2143-7934-89cc-ce6402563331","","null","
                <div class=""stimulus-container"">
                    <img src=""images/instructions/movie_3.png"" class=""exp-image"">
                    <div class=""question-area""></div> 
                </div>","null","","","","","","","","","","","",""
"","","","","","html-button-response","11","48221","0.0-11.0","B528D0E2B5124EAB9D3106273937B135","019cfc2c-35d5-7ea4-bedb-49b4a3366750","019cfc28-2143-7934-89cc-ce6402563331","","737","
                <div class=""stimulus-container"">
                    <img src=""images/instructions/movie_3.png"" class=""exp-image"">
                    <div class=""question-area"">
                        <p style=""font-size: 20px; font-weight: bold; margin: 0;"">Was there a person in this image?</p>
                    </div>
                </div>","0","example_question","3","","","","","","","","","",""
"","","","","","html-keyboard-response","12","52222","0.0-12.0","B528D0E2B5124EAB9D3106273937B135","019cfc2c-35d5-7ea4-bedb-49b4a3366750","019cfc28-2143-7934-89cc-ce6402563331","","null","
                <div class=""stimulus-container"">
                    <img src=""images/instructions/movie_4.png"" class=""exp-image"">
                    <div class=""question-area""></div> 
                </div>","null","","","","","","","","","","","",""
"","","","","","html-button-response","13","52637","0.0-13.0","B528D0E2B5124EAB9D3106273937B135","019cfc2c-35d5-7ea4-bedb-49b4a3366750","019cfc28-2143-7934-89cc-ce6402563331","","415","
                <div class=""stimulus-container"">
                    <img src=""images/instructions/movie_4.png"" class=""exp-image"">
                    <div class=""question-area"">
                        <p style=""font-size: 20px; font-weight: bold; margin: 0;"">Was there a person in this image?</p>
                    </div>
                </div>","0","example_question","4","","","","","","","","","",""
"","","","","","instructions","14","54573","0.0-14.0","B528D0E2B5124EAB9D3106273937B135","019cfc2c-35d5-7ea4-bedb-49b4a3366750","019cfc28-2143-7934-89cc-ce6402563331","[{""page_index"":0,""viewing_time"":1936}]","1936","","","","","","","","","","","","","",""
"","","","","","instructions","15","56598","0.0-15.0","B528D0E2B5124EAB9D3106273937B135","019cfc2c-35d5-7ea4-bedb-49b4a3366750","019cfc28-2143-7934-89cc-ce6402563331","[{""page_index"":0,""viewing_time"":2024}]","2024","","","","","","","","","","","","","",""
"","","","","","html-keyboard-response","16","61604","0.0-16.0","B528D0E2B5124EAB9D3106273937B135","019cfc2c-35d5-7ea4-bedb-49b4a3366750","019cfc28-2143-7934-89cc-ce6402563331","","null","<div style=""background-color: white; width: 100vw; height: 100vh;""></div>","null","","","","","","","","","","","",""
"","","","","","html-keyboard-response","17","66611","0.0-17.0","B528D0E2B5124EAB9D3106273937B135","019cfc2c-35d5-7ea4-bedb-49b4a3366750","019cfc28-2143-7934-89cc-ce6402563331","","null","
                <div class=""stimulus-container"">
                    <img src=""images/schematic_sequence/interview_scheme/interview_scheme_1.png"" class=""exp-image"">
                    <div class=""question-area""></div> 
                </div>","null","","","","","","","","","","","",""
"","","","","","html-button-response","18","68863","0.0-18.0","B528D0E2B5124EAB9D3106273937B135","019cfc2c-35d5-7ea4-bedb-49b4a3366750","019cfc28-2143-7934-89cc-ce6402563331","","2252","
                <div class=""stimulus-container"">
                    <img src=""images/schematic_sequence/interview_scheme/interview_scheme_1.png"" class=""exp-image"">
                    <div class=""question-area"">
                        <p style=""font-size: 20px; font-weight: bold; margin: 0;"">Is there a person in this image?</p>
                    </div>
                </div>","1","main_experiment_trial","1","interview_scheme","schematic_sequence","chronological","","","","","","",""
"","","","","","html-keyboard-response","19","73871","0.0-19.0","B528D0E2B5124EAB9D3106273937B135","019cfc2c-35d5-7ea4-bedb-49b4a3366750","019cfc28-2143-7934-89cc-ce6402563331","","null","
                <div class=""stimulus-container"">
                    <img src=""images/schematic_sequence/interview_scheme/interview_scheme_2.png"" class=""exp-image"">
                    <div class=""question-area""></div> 
                </div>","null","","","","","","","","","","","",""
"","","","","","html-button-response","20","76886","0.0-20.0","B528D0E2B5124EAB9D3106273937B135","019cfc2c-35d5-7ea4-bedb-49b4a3366750","019cfc28-2143-7934-89cc-ce6402563331","","null","
                <div class=""stimulus-container"">
                    <img src=""images/schematic_sequence/interview_scheme/interview_scheme_2.png"" class=""exp-image"">
                    <div class=""question-area"">
                        <p style=""font-size: 20px; font-weight: bold; margin: 0;"">Is there a person in this image?</p>
                    </div>
                </div>","null","main_experiment_trial","2","interview_scheme","schematic_sequence","chronological","","","","","","",""
"","","","","","html-keyboard-response","21","81897","0.0-21.0","B528D0E2B5124EAB9D3106273937B135","019cfc2c-35d5-7ea4-bedb-49b4a3366750","019cfc28-2143-7934-89cc-ce6402563331","","null","
                <div class=""stimulus-container"">
                    <img src=""images/schematic_sequence/interview_scheme/interview_scheme_3.png"" class=""exp-image"">
                    <div class=""question-area""></div> 
                </div>","null","","","","","","","","","","","",""
"","","","","","html-button-response","22","82783","0.0-22.0","B528D0E2B5124EAB9D3106273937B135","019cfc2c-35d5-7ea4-bedb-49b4a3366750","019cfc28-2143-7934-89cc-ce6402563331","","885","
                <div class=""stimulus-container"">
                    <img src=""images/schematic_sequence/interview_scheme/interview_scheme_3.png"" class=""exp-image"">
                    <div class=""question-area"">
                        <p style=""font-size: 20px; font-weight: bold; margin: 0;"">Is there a person in this image?</p>
                    </div>
                </div>","1","main_experiment_trial","3","interview_scheme","schematic_sequence","chronological","","","","","","",""
"","","","","","html-keyboard-response","23","87784","0.0-23.0","B528D0E2B5124EAB9D3106273937B135","019cfc2c-35d5-7ea4-bedb-49b4a3366750","019cfc28-2143-7934-89cc-ce6402563331","","null","
                <div class=""stimulus-container"">
                    <img src=""images/schematic_sequence/interview_scheme/interview_scheme_4.png"" class=""exp-image"">
                    <div class=""question-area""></div> 
                </div>","null","","","","","","","","","","","",""
"","","","","","html-button-response","24","89023","0.0-24.0","B528D0E2B5124EAB9D3106273937B135","019cfc2c-35d5-7ea4-bedb-49b4a3366750","019cfc28-2143-7934-89cc-ce6402563331","","1238","
                <div class=""stimulus-container"">
                    <img src=""images/schematic_sequence/interview_scheme/interview_scheme_4.png"" class=""exp-image"">
                    <div class=""question-area"">
                        <p style=""font-size: 20px; font-weight: bold; margin: 0;"">Is there a person in this image?</p>
                    </div>
                </div>","1","main_experiment_trial","4","interview_scheme","schematic_sequence","chronological","","","","","","",""
"","","","","","html-keyboard-response","25","94033","0.0-25.0","B528D0E2B5124EAB9D3106273937B135","019cfc2c-35d5-7ea4-bedb-49b4a3366750","019cfc28-2143-7934-89cc-ce6402563331","","null","
                <div class=""stimulus-container"">
                    <img src=""images/schematic_sequence/interview_scheme/interview_scheme_5.png"" class=""exp-image"">
                    <div class=""question-area""></div> 
                </div>","null","","","","","","","","","","","",""
"","","","","","html-button-response","26","94847","0.0-26.0","B528D0E2B5124EAB9D3106273937B135","019cfc2c-35d5-7ea4-bedb-49b4a3366750","019cfc28-2143-7934-89cc-ce6402563331","","814","
                <div class=""stimulus-container"">
                    <img src=""images/schematic_sequence/interview_scheme/interview_scheme_5.png"" class=""exp-image"">
                    <div class=""question-area"">
                        <p style=""font-size: 20px; font-weight: bold; margin: 0;"">Is there a person in this image?</p>
                    </div>
                </div>","0","main_experiment_trial","5","interview_scheme","schematic_sequence","chronological","","","","","","",""
"","","","","","html-keyboard-response","27","99849","0.0-27.0","B528D0E2B5124EAB9D3106273937B135","019cfc2c-35d5-7ea4-bedb-49b4a3366750","019cfc28-2143-7934-89cc-ce6402563331","","null","
                <div class=""stimulus-container"">
                    <img src=""images/schematic_sequence/interview_scheme/interview_scheme_6.png"" class=""exp-image"">
                    <div class=""question-area""></div> 
                </div>","null","","","","","","","","","","","",""
"","","","","","html-button-response","28","100295","0.0-28.0","B528D0E2B5124EAB9D3106273937B135","019cfc2c-35d5-7ea4-bedb-49b4a3366750","019cfc28-2143-7934-89cc-ce6402563331","","446","
                <div class=""stimulus-container"">
                    <img src=""images/schematic_sequence/interview_scheme/interview_scheme_6.png"" class=""exp-image"">
                    <div class=""question-area"">
                        <p style=""font-size: 20px; font-weight: bold; margin: 0;"">Is there a person in this image?</p>
                    </div>
                </div>","0","main_experiment_trial","6","interview_scheme","schematic_sequence","chronological","","","","","","",""
"","","","","","html-keyboard-response","29","105305","0.0-29.0","B528D0E2B5124EAB9D3106273937B135","019cfc2c-35d5-7ea4-bedb-49b4a3366750","019cfc28-2143-7934-89cc-ce6402563331","","null","
                <div class=""stimulus-container"">
                    <img src=""images/schematic_sequence/interview_scheme/interview_scheme_7.png"" class=""exp-image"">
                    <div class=""question-area""></div> 
                </div>","null","","","","","","","","","","","",""
"","","","","","html-button-response","30","105983","0.0-30.0","B528D0E2B5124EAB9D3106273937B135","019cfc2c-35d5-7ea4-bedb-49b4a3366750","019cfc28-2143-7934-89cc-ce6402563331","","678","
                <div class=""stimulus-container"">
                    <img src=""images/schematic_sequence/interview_scheme/interview_scheme_7.png"" class=""exp-image"">
                    <div class=""question-area"">
                        <p style=""font-size: 20px; font-weight: bold; margin: 0;"">Is there a person in this image?</p>
                    </div>
                </div>","0","main_experiment_trial","7","interview_scheme","schematic_sequence","chronological","","","","","","",""
"","","","","","html-keyboard-response","31","110996","0.0-31.0","B528D0E2B5124EAB9D3106273937B135","019cfc2c-35d5-7ea4-bedb-49b4a3366750","019cfc28-2143-7934-89cc-ce6402563331","","null","
                <div class=""stimulus-container"">
                    <img src=""images/schematic_sequence/interview_scheme/interview_scheme_8.png"" class=""exp-image"">
                    <div class=""question-area""></div> 
                </div>","null","","","","","","","","","","","",""
"","","","","","html-button-response","32","111448","0.0-32.0","B528D0E2B5124EAB9D3106273937B135","019cfc2c-35d5-7ea4-bedb-49b4a3366750","019cfc28-2143-7934-89cc-ce6402563331","","452","
                <div class=""stimulus-container"">
                    <img src=""images/schematic_sequence/interview_scheme/interview_scheme_8.png"" class=""exp-image"">
                    <div class=""question-area"">
                        <p style=""font-size: 20px; font-weight: bold; margin: 0;"">Is there a person in this image?</p>
                    </div>
                </div>","0","main_experiment_trial","8","interview_scheme","schematic_sequence","chronological","","","","","","",""
"","","","","","html-keyboard-response","33","116449","0.0-33.0","B528D0E2B5124EAB9D3106273937B135","019cfc2c-35d5-7ea4-bedb-49b4a3366750","019cfc28-2143-7934-89cc-ce6402563331","","null","
                <div class=""stimulus-container"">
                    <img src=""images/schematic_sequence/interview_scheme/interview_scheme_9.png"" class=""exp-image"">
                    <div class=""question-area""></div> 
                </div>","null","","","","","","","","","","","",""
"","","","","","html-button-response","34","118376","0.0-34.0","B528D0E2B5124EAB9D3106273937B135","019cfc2c-35d5-7ea4-bedb-49b4a3366750","019cfc28-2143-7934-89cc-ce6402563331","","1927","
                <div class=""stimulus-container"">
                    <img src=""images/schematic_sequence/interview_scheme/interview_scheme_9.png"" class=""exp-image"">
                    <div class=""question-area"">
                        <p style=""font-size: 20px; font-weight: bold; margin: 0;"">Is there a person in this image?</p>
                    </div>
                </div>","0","main_experiment_trial","9","interview_scheme","schematic_sequence","chronological","","","","","","",""
"","","","","","html-keyboard-response","35","123386","0.0-35.0","B528D0E2B5124EAB9D3106273937B135","019cfc2c-35d5-7ea4-bedb-49b4a3366750","019cfc28-2143-7934-89cc-ce6402563331","","null","
                <div class=""stimulus-container"">
                    <img src=""images/schematic_sequence/interview_scheme/interview_scheme_ten.png"" class=""exp-image"">
                    <div class=""question-area""></div> 
                </div>","null","","","","","","","","","","","",""
"","","","","","html-button-response","36","123944","0.0-36.0","B528D0E2B5124EAB9D3106273937B135","019cfc2c-35d5-7ea4-bedb-49b4a3366750","019cfc28-2143-7934-89cc-ce6402563331","","558","
                <div class=""stimulus-container"">
                    <img src=""images/schematic_sequence/interview_scheme/interview_scheme_ten.png"" class=""exp-image"">
                    <div class=""question-area"">
                        <p style=""font-size: 20px; font-weight: bold; margin: 0;"">Is there a person in this image?</p>
                    </div>
                </div>","0","main_experiment_trial","ten","interview_scheme","schematic_sequence","chronological","","","","","","",""
"","","","","","html-keyboard-response","37","128958","0.0-37.0","B528D0E2B5124EAB9D3106273937B135","019cfc2c-35d5-7ea4-bedb-49b4a3366750","019cfc28-2143-7934-89cc-ce6402563331","","null","<div style=""background-color: white; width: 100vw; height: 100vh;""></div>","null","","","","","","","","","","","",""
"","","","","","html-keyboard-response","38","133972","0.0-38.0","B528D0E2B5124EAB9D3106273937B135","019cfc2c-35d5-7ea4-bedb-49b4a3366750","019cfc28-2143-7934-89cc-ce6402563331","","null","
                <div class=""stimulus-container"">
                    <img src=""images/semantic_sequence/creative_activities_semantic/creative_activities_semantic_1.png"" class=""exp-image"">
                    <div class=""question-area""></div> 
                </div>","null","","","","","","","","","","","",""
"","","","","","html-button-response","39","134952","0.0-39.0","B528D0E2B5124EAB9D3106273937B135","019cfc2c-35d5-7ea4-bedb-49b4a3366750","019cfc28-2143-7934-89cc-ce6402563331","","980","
                <div class=""stimulus-container"">
                    <img src=""images/semantic_sequence/creative_activities_semantic/creative_activities_semantic_1.png"" class=""exp-image"">
                    <div class=""question-area"">
                        <p style=""font-size: 20px; font-weight: bold; margin: 0;"">Is there a person in this image?</p>
                    </div>
                </div>","0","main_experiment_trial","1","creative_activities_semantic","semantic_sequence","chronological","","","","","","",""
"","","","","","html-keyboard-response","40","139964","0.0-40.0","B528D0E2B5124EAB9D3106273937B135","019cfc2c-35d5-7ea4-bedb-49b4a3366750","019cfc28-2143-7934-89cc-ce6402563331","","null","
                <div class=""stimulus-container"">
                    <img src=""images/semantic_sequence/creative_activities_semantic/creative_activities_semantic_2.png"" class=""exp-image"">
                    <div class=""question-area""></div> 
                </div>","null","","","","","","","","","","","",""
"","","","","","html-button-response","41","140857","0.0-41.0","B528D0E2B5124EAB9D3106273937B135","019cfc2c-35d5-7ea4-bedb-49b4a3366750","019cfc28-2143-7934-89cc-ce6402563331","","892","
                <div class=""stimulus-container"">
                    <img src=""images/semantic_sequence/creative_activities_semantic/creative_activities_semantic_2.png"" class=""exp-image"">
                    <div class=""question-area"">
                        <p style=""font-size: 20px; font-weight: bold; margin: 0;"">Is there a person in this image?</p>
                    </div>
                </div>","0","main_experiment_trial","2","creative_activities_semantic","semantic_sequence","chronological","","","","","","",""
"","","","","","html-keyboard-response","42","145871","0.0-42.0","B528D0E2B5124EAB9D3106273937B135","019cfc2c-35d5-7ea4-bedb-49b4a3366750","019cfc28-2143-7934-89cc-ce6402563331","","null","
                <div class=""stimulus-container"">
                    <img src=""images/semantic_sequence/creative_activities_semantic/creative_activities_semantic_3.png"" class=""exp-image"">
                    <div class=""question-area""></div> 
                </div>","null","","","","","","","","","","","",""
"","","","","","html-button-response","43","146409","0.0-43.0","B528D0E2B5124EAB9D3106273937B135","019cfc2c-35d5-7ea4-bedb-49b4a3366750","019cfc28-2143-7934-89cc-ce6402563331","","537","
                <div class=""stimulus-container"">
                    <img src=""images/semantic_sequence/creative_activities_semantic/creative_activities_semantic_3.png"" class=""exp-image"">
                    <div class=""question-area"">
                        <p style=""font-size: 20px; font-weight: bold; margin: 0;"">Is there a person in this image?</p>
                    </div>
                </div>","0","main_experiment_trial","3","creative_activities_semantic","semantic_sequence","chronological","","","","","","",""
"","","","","","html-keyboard-response","44","151425","0.0-44.0","B528D0E2B5124EAB9D3106273937B135","019cfc2c-35d5-7ea4-bedb-49b4a3366750","019cfc28-2143-7934-89cc-ce6402563331","","null","
                <div class=""stimulus-container"">
                    <img src=""images/semantic_sequence/creative_activities_semantic/creative_activities_semantic_4.png"" class=""exp-image"">
                    <div class=""question-area""></div> 
                </div>","null","","","","","","","","","","","",""
"","","","","","html-button-response","45","152281","0.0-45.0","B528D0E2B5124EAB9D3106273937B135","019cfc2c-35d5-7ea4-bedb-49b4a3366750","019cfc28-2143-7934-89cc-ce6402563331","","856","
                <div class=""stimulus-container"">
                    <img src=""images/semantic_sequence/creative_activities_semantic/creative_activities_semantic_4.png"" class=""exp-image"">
                    <div class=""question-area"">
                        <p style=""font-size: 20px; font-weight: bold; margin: 0;"">Is there a person in this image?</p>
                    </div>
                </div>","0","main_experiment_trial","4","creative_activities_semantic","semantic_sequence","chronological","","","","","","",""
"","","","","","html-keyboard-response","46","157282","0.0-46.0","B528D0E2B5124EAB9D3106273937B135","019cfc2c-35d5-7ea4-bedb-49b4a3366750","019cfc28-2143-7934-89cc-ce6402563331","","null","
                <div class=""stimulus-container"">
                    <img src=""images/semantic_sequence/creative_activities_semantic/creative_activities_semantic_5.png"" class=""exp-image"">
                    <div class=""question-area""></div> 
                </div>","null","","","","","","","","","","","",""
"","","","","","html-button-response","47","158825","0.0-47.0","B528D0E2B5124EAB9D3106273937B135","019cfc2c-35d5-7ea4-bedb-49b4a3366750","019cfc28-2143-7934-89cc-ce6402563331","","1542","
                <div class=""stimulus-container"">
                    <img src=""images/semantic_sequence/creative_activities_semantic/creative_activities_semantic_5.png"" class=""exp-image"">
                    <div class=""question-area"">
                        <p style=""font-size: 20px; font-weight: bold; margin: 0;"">Is there a person in this image?</p>
                    </div>
                </div>","0","main_experiment_trial","5","creative_activities_semantic","semantic_sequence","chronological","","","","","","",""
"","","","","","html-keyboard-response","48","163828","0.0-48.0","B528D0E2B5124EAB9D3106273937B135","019cfc2c-35d5-7ea4-bedb-49b4a3366750","019cfc28-2143-7934-89cc-ce6402563331","","null","
                <div class=""stimulus-container"">
                    <img src=""images/semantic_sequence/creative_activities_semantic/creative_activities_semantic_6.png"" class=""exp-image"">
                    <div class=""question-area""></div> 
                </div>","null","","","","","","","","","","","",""
"","","","","","html-button-response","49","164698","0.0-49.0","B528D0E2B5124EAB9D3106273937B135","019cfc2c-35d5-7ea4-bedb-49b4a3366750","019cfc28-2143-7934-89cc-ce6402563331","","869","
                <div class=""stimulus-container"">
                    <img src=""images/semantic_sequence/creative_activities_semantic/creative_activities_semantic_6.png"" class=""exp-image"">
                    <div class=""question-area"">
                        <p style=""font-size: 20px; font-weight: bold; margin: 0;"">Is there a person in this image?</p>
                    </div>
                </div>","0","main_experiment_trial","6","creative_activities_semantic","semantic_sequence","chronological","","","","","","",""
"","","","","","html-keyboard-response","50","169702","0.0-50.0","B528D0E2B5124EAB9D3106273937B135","019cfc2c-35d5-7ea4-bedb-49b4a3366750","019cfc28-2143-7934-89cc-ce6402563331","","null","
                <div class=""stimulus-container"">
                    <img src=""images/semantic_sequence/creative_activities_semantic/creative_activities_semantic_7.png"" class=""exp-image"">
                    <div class=""question-area""></div> 
                </div>","null","","","","","","","","","","","",""
"","","","","","html-button-response","51","170386","0.0-51.0","B528D0E2B5124EAB9D3106273937B135","019cfc2c-35d5-7ea4-bedb-49b4a3366750","019cfc28-2143-7934-89cc-ce6402563331","","683","
                <div class=""stimulus-container"">
                    <img src=""images/semantic_sequence/creative_activities_semantic/creative_activities_semantic_7.png"" class=""exp-image"">
                    <div class=""question-area"">
                        <p style=""font-size: 20px; font-weight: bold; margin: 0;"">Is there a person in this image?</p>
                    </div>
                </div>","0","main_experiment_trial","7","creative_activities_semantic","semantic_sequence","chronological","","","","","","",""
"","","","","","html-keyboard-response","52","175399","0.0-52.0","B528D0E2B5124EAB9D3106273937B135","019cfc2c-35d5-7ea4-bedb-49b4a3366750","019cfc28-2143-7934-89cc-ce6402563331","","null","
                <div class=""stimulus-container"">
                    <img src=""images/semantic_sequence/creative_activities_semantic/creative_activities_semantic_8.png"" class=""exp-image"">
                    <div class=""question-area""></div> 
                </div>","null","","","","","","","","","","","",""
"","","","","","html-button-response","53","176490","0.0-53.0","B528D0E2B5124EAB9D3106273937B135","019cfc2c-35d5-7ea4-bedb-49b4a3366750","019cfc28-2143-7934-89cc-ce6402563331","","1090","
                <div class=""stimulus-container"">
                    <img src=""images/semantic_sequence/creative_activities_semantic/creative_activities_semantic_8.png"" class=""exp-image"">
                    <div class=""question-area"">
                        <p style=""font-size: 20px; font-weight: bold; margin: 0;"">Is there a person in this image?</p>
                    </div>
                </div>","0","main_experiment_trial","8","creative_activities_semantic","semantic_sequence","chronological","","","","","","",""
"","","","","","html-keyboard-response","54","181494","0.0-54.0","B528D0E2B5124EAB9D3106273937B135","019cfc2c-35d5-7ea4-bedb-49b4a3366750","019cfc28-2143-7934-89cc-ce6402563331","","null","
                <div class=""stimulus-container"">
                    <img src=""images/semantic_sequence/creative_activities_semantic/creative_activities_semantic_9.png"" class=""exp-image"">
                    <div class=""question-area""></div> 
                </div>","null","","","","","","","","","","","",""
"","","","","","html-button-response","55","183083","0.0-55.0","B528D0E2B5124EAB9D3106273937B135","019cfc2c-35d5-7ea4-bedb-49b4a3366750","019cfc28-2143-7934-89cc-ce6402563331","","1588","
                <div class=""stimulus-container"">
                    <img src=""images/semantic_sequence/creative_activities_semantic/creative_activities_semantic_9.png"" class=""exp-image"">
                    <div class=""question-area"">
                        <p style=""font-size: 20px; font-weight: bold; margin: 0;"">Is there a person in this image?</p>
                    </div>
                </div>","0","main_experiment_trial","9","creative_activities_semantic","semantic_sequence","chronological","","","","","","",""
"","","","","","html-keyboard-response","56","188084","0.0-56.0","B528D0E2B5124EAB9D3106273937B135","019cfc2c-35d5-7ea4-bedb-49b4a3366750","019cfc28-2143-7934-89cc-ce6402563331","","null","
                <div class=""stimulus-container"">
                    <img src=""images/semantic_sequence/creative_activities_semantic/creative_activities_semantic_ten.png"" class=""exp-image"">
                    <div class=""question-area""></div> 
                </div>","null","","","","","","","","","","","",""
"","","","","","html-button-response","57","189059","0.0-57.0","B528D0E2B5124EAB9D3106273937B135","019cfc2c-35d5-7ea4-bedb-49b4a3366750","019cfc28-2143-7934-89cc-ce6402563331","","974","
                <div class=""stimulus-container"">
                    <img src=""images/semantic_sequence/creative_activities_semantic/creative_activities_semantic_ten.png"" class=""exp-image"">
                    <div class=""question-area"">
                        <p style=""font-size: 20px; font-weight: bold; margin: 0;"">Is there a person in this image?</p>
                    </div>
                </div>","0","main_experiment_trial","ten","creative_activities_semantic","semantic_sequence","chronological","","","","","","",""
"","","","","","html-keyboard-response","58","194067","0.0-58.0","B528D0E2B5124EAB9D3106273937B135","019cfc2c-35d5-7ea4-bedb-49b4a3366750","019cfc28-2143-7934-89cc-ce6402563331","","null","<div style=""background-color: white; width: 100vw; height: 100vh;""></div>","null","","","","","","","","","","","",""
"","","","","","html-keyboard-response","59","199079","0.0-59.0","B528D0E2B5124EAB9D3106273937B135","019cfc2c-35d5-7ea4-bedb-49b4a3366750","019cfc28-2143-7934-89cc-ce6402563331","","null","
                <div class=""stimulus-container"">
                    <img src=""images/schematic_sequence/restaurant_scheme/restaurant_scheme_1.png"" class=""exp-image"">
                    <div class=""question-area""></div> 
                </div>","null","","","","","","","","","","","",""
"","","","","","html-button-response","60","199979","0.0-60.0","B528D0E2B5124EAB9D3106273937B135","019cfc2c-35d5-7ea4-bedb-49b4a3366750","019cfc28-2143-7934-89cc-ce6402563331","","899","
                <div class=""stimulus-container"">
                    <img src=""images/schematic_sequence/restaurant_scheme/restaurant_scheme_1.png"" class=""exp-image"">
                    <div class=""question-area"">
                        <p style=""font-size: 20px; font-weight: bold; margin: 0;"">Is there a person in this image?</p>
                    </div>
                </div>","0","main_experiment_trial","1","restaurant_scheme","schematic_sequence","chronological","","","","","","",""
"","","","","","html-keyboard-response","61","204991","0.0-61.0","B528D0E2B5124EAB9D3106273937B135","019cfc2c-35d5-7ea4-bedb-49b4a3366750","019cfc28-2143-7934-89cc-ce6402563331","","null","
                <div class=""stimulus-container"">
                    <img src=""images/schematic_sequence/restaurant_scheme/restaurant_scheme_2.png"" class=""exp-image"">
                    <div class=""question-area""></div> 
                </div>","null","","","","","","","","","","","",""
"","","","","","html-button-response","62","206308","0.0-62.0","B528D0E2B5124EAB9D3106273937B135","019cfc2c-35d5-7ea4-bedb-49b4a3366750","019cfc28-2143-7934-89cc-ce6402563331","","1316","
                <div class=""stimulus-container"">
                    <img src=""images/schematic_sequence/restaurant_scheme/restaurant_scheme_2.png"" class=""exp-image"">
                    <div class=""question-area"">
                        <p style=""font-size: 20px; font-weight: bold; margin: 0;"">Is there a person in this image?</p>
                    </div>
                </div>","1","main_experiment_trial","2","restaurant_scheme","schematic_sequence","chronological","","","","","","",""
"","","","","","html-keyboard-response","63","211319","0.0-63.0","B528D0E2B5124EAB9D3106273937B135","019cfc2c-35d5-7ea4-bedb-49b4a3366750","019cfc28-2143-7934-89cc-ce6402563331","","null","
                <div class=""stimulus-container"">
                    <img src=""images/schematic_sequence/restaurant_scheme/restaurant_scheme_3.png"" class=""exp-image"">
                    <div class=""question-area""></div> 
                </div>","null","","","","","","","","","","","",""
"","","","","","html-button-response","64","212283","0.0-64.0","B528D0E2B5124EAB9D3106273937B135","019cfc2c-35d5-7ea4-bedb-49b4a3366750","019cfc28-2143-7934-89cc-ce6402563331","","964","
                <div class=""stimulus-container"">
                    <img src=""images/schematic_sequence/restaurant_scheme/restaurant_scheme_3.png"" class=""exp-image"">
                    <div class=""question-area"">
                        <p style=""font-size: 20px; font-weight: bold; margin: 0;"">Is there a person in this image?</p>
                    </div>
                </div>","1","main_experiment_trial","3","restaurant_scheme","schematic_sequence","chronological","","","","","","",""
"","","","","","html-keyboard-response","65","217285","0.0-65.0","B528D0E2B5124EAB9D3106273937B135","019cfc2c-35d5-7ea4-bedb-49b4a3366750","019cfc28-2143-7934-89cc-ce6402563331","","null","
                <div class=""stimulus-container"">
                    <img src=""images/schematic_sequence/restaurant_scheme/restaurant_scheme_4.png"" class=""exp-image"">
                    <div class=""question-area""></div> 
                </div>","null","","","","","","","","","","","",""
"","","","","","html-button-response","66","218284","0.0-66.0","B528D0E2B5124EAB9D3106273937B135","019cfc2c-35d5-7ea4-bedb-49b4a3366750","019cfc28-2143-7934-89cc-ce6402563331","","999","
                <div class=""stimulus-container"">
                    <img src=""images/schematic_sequence/restaurant_scheme/restaurant_scheme_4.png"" class=""exp-image"">
                    <div class=""question-area"">
                        <p style=""font-size: 20px; font-weight: bold; margin: 0;"">Is there a person in this image?</p>
                    </div>
                </div>","0","main_experiment_trial","4","restaurant_scheme","schematic_sequence","chronological","","","","","","",""
"","","","","","html-keyboard-response","67","223286","0.0-67.0","B528D0E2B5124EAB9D3106273937B135","019cfc2c-35d5-7ea4-bedb-49b4a3366750","019cfc28-2143-7934-89cc-ce6402563331","","null","
                <div class=""stimulus-container"">
                    <img src=""images/schematic_sequence/restaurant_scheme/restaurant_scheme_5.png"" class=""exp-image"">
                    <div class=""question-area""></div> 
                </div>","null","","","","","","","","","","","",""
"","","","","","html-button-response","68","223828","0.0-68.0","B528D0E2B5124EAB9D3106273937B135","019cfc2c-35d5-7ea4-bedb-49b4a3366750","019cfc28-2143-7934-89cc-ce6402563331","","542","
                <div class=""stimulus-container"">
                    <img src=""images/schematic_sequence/restaurant_scheme/restaurant_scheme_5.png"" class=""exp-image"">
                    <div class=""question-area"">
                        <p style=""font-size: 20px; font-weight: bold; margin: 0;"">Is there a person in this image?</p>
                    </div>
                </div>","0","main_experiment_trial","5","restaurant_scheme","schematic_sequence","chronological","","","","","","",""
"","","","","","html-keyboard-response","69","228830","0.0-69.0","B528D0E2B5124EAB9D3106273937B135","019cfc2c-35d5-7ea4-bedb-49b4a3366750","019cfc28-2143-7934-89cc-ce6402563331","","null","
                <div class=""stimulus-container"">
                    <img src=""images/schematic_sequence/restaurant_scheme/restaurant_scheme_6.png"" class=""exp-image"">
                    <div class=""question-area""></div> 
                </div>","null","","","","","","","","","","","",""
"","","","","","html-button-response","70","229948","0.0-70.0","B528D0E2B5124EAB9D3106273937B135","019cfc2c-35d5-7ea4-bedb-49b4a3366750","019cfc28-2143-7934-89cc-ce6402563331","","1118","
                <div class=""stimulus-container"">
                    <img src=""images/schematic_sequence/restaurant_scheme/restaurant_scheme_6.png"" class=""exp-image"">
                    <div class=""question-area"">
                        <p style=""font-size: 20px; font-weight: bold; margin: 0;"">Is there a person in this image?</p>
                    </div>
                </div>","1","main_experiment_trial","6","restaurant_scheme","schematic_sequence","chronological","","","","","","",""
"","","","","","html-keyboard-response","71","234962","0.0-71.0","B528D0E2B5124EAB9D3106273937B135","019cfc2c-35d5-7ea4-bedb-49b4a3366750","019cfc28-2143-7934-89cc-ce6402563331","","null","
                <div class=""stimulus-container"">
                    <img src=""images/schematic_sequence/restaurant_scheme/restaurant_scheme_7.png"" class=""exp-image"">
                    <div class=""question-area""></div> 
                </div>","null","","","","","","","","","","","",""
"","","","","","html-button-response","72","235732","0.0-72.0","B528D0E2B5124EAB9D3106273937B135","019cfc2c-35d5-7ea4-bedb-49b4a3366750","019cfc28-2143-7934-89cc-ce6402563331","","770","
                <div class=""stimulus-container"">
                    <img src=""images/schematic_sequence/restaurant_scheme/restaurant_scheme_7.png"" class=""exp-image"">
                    <div class=""question-area"">
                        <p style=""font-size: 20px; font-weight: bold; margin: 0;"">Is there a person in this image?</p>
                    </div>
                </div>","1","main_experiment_trial","7","restaurant_scheme","schematic_sequence","chronological","","","","","","",""
"","","","","","html-keyboard-response","73","240748","0.0-73.0","B528D0E2B5124EAB9D3106273937B135","019cfc2c-35d5-7ea4-bedb-49b4a3366750","019cfc28-2143-7934-89cc-ce6402563331","","null","
                <div class=""stimulus-container"">
                    <img src=""images/schematic_sequence/restaurant_scheme/restaurant_scheme_8.png"" class=""exp-image"">
                    <div class=""question-area""></div> 
                </div>","null","","","","","","","","","","","",""
"","","","","","html-button-response","74","241405","0.0-74.0","B528D0E2B5124EAB9D3106273937B135","019cfc2c-35d5-7ea4-bedb-49b4a3366750","019cfc28-2143-7934-89cc-ce6402563331","","656","
                <div class=""stimulus-container"">
                    <img src=""images/schematic_sequence/restaurant_scheme/restaurant_scheme_8.png"" class=""exp-image"">
                    <div class=""question-area"">
                        <p style=""font-size: 20px; font-weight: bold; margin: 0;"">Is there a person in this image?</p>
                    </div>
                </div>","1","main_experiment_trial","8","restaurant_scheme","schematic_sequence","chronological","","","","","","",""
"","","","","","html-keyboard-response","75","246411","0.0-75.0","B528D0E2B5124EAB9D3106273937B135","019cfc2c-35d5-7ea4-bedb-49b4a3366750","019cfc28-2143-7934-89cc-ce6402563331","","null","
                <div class=""stimulus-container"">
                    <img src=""images/schematic_sequence/restaurant_scheme/restaurant_scheme_9.png"" class=""exp-image"">
                    <div class=""question-area""></div> 
                </div>","null","","","","","","","","","","","",""
"","","","","","html-button-response","76","247206","0.0-76.0","B528D0E2B5124EAB9D3106273937B135","019cfc2c-35d5-7ea4-bedb-49b4a3366750","019cfc28-2143-7934-89cc-ce6402563331","","794","
                <div class=""stimulus-container"">
                    <img src=""images/schematic_sequence/restaurant_scheme/restaurant_scheme_9.png"" class=""exp-image"">
                    <div class=""question-area"">
                        <p style=""font-size: 20px; font-weight: bold; margin: 0;"">Is there a person in this image?</p>
                    </div>
                </div>","0","main_experiment_trial","9","restaurant_scheme","schematic_sequence","chronological","","","","","","",""
"","","","","","html-keyboard-response","77","252210","0.0-77.0","B528D0E2B5124EAB9D3106273937B135","019cfc2c-35d5-7ea4-bedb-49b4a3366750","019cfc28-2143-7934-89cc-ce6402563331","","null","
                <div class=""stimulus-container"">
                    <img src=""images/schematic_sequence/restaurant_scheme/restaurant_scheme_ten.png"" class=""exp-image"">
                    <div class=""question-area""></div> 
                </div>","null","","","","","","","","","","","",""
"","","","","","html-button-response","78","253941","0.0-78.0","B528D0E2B5124EAB9D3106273937B135","019cfc2c-35d5-7ea4-bedb-49b4a3366750","019cfc28-2143-7934-89cc-ce6402563331","","1731","
                <div class=""stimulus-container"">
                    <img src=""images/schematic_sequence/restaurant_scheme/restaurant_scheme_ten.png"" class=""exp-image"">
                    <div class=""question-area"">
                        <p style=""font-size: 20px; font-weight: bold; margin: 0;"">Is there a person in this image?</p>
                    </div>
                </div>","0","main_experiment_trial","ten","restaurant_scheme","schematic_sequence","chronological","","","","","","",""
"","","","","","html-keyboard-response","79","258947","0.0-79.0","B528D0E2B5124EAB9D3106273937B135","019cfc2c-35d5-7ea4-bedb-49b4a3366750","019cfc28-2143-7934-89cc-ce6402563331","","null","<div style=""background-color: white; width: 100vw; height: 100vh;""></div>","null","","","","","","","","","","","",""
"","","","","","html-keyboard-response","80","263954","0.0-80.0","B528D0E2B5124EAB9D3106273937B135","019cfc2c-35d5-7ea4-bedb-49b4a3366750","019cfc28-2143-7934-89cc-ce6402563331","","null","
                <div class=""stimulus-container"">
                    <img src=""images/semantic_sequence/using_technology_semantic/using_technology_semantic_1.png"" class=""exp-image"">
                    <div class=""question-area""></div> 
                </div>","null","","","","","","","","","","","",""
"","","","","","html-button-response","81","264566","0.0-81.0","B528D0E2B5124EAB9D3106273937B135","019cfc2c-35d5-7ea4-bedb-49b4a3366750","019cfc28-2143-7934-89cc-ce6402563331","","612","
                <div class=""stimulus-container"">
                    <img src=""images/semantic_sequence/using_technology_semantic/using_technology_semantic_1.png"" class=""exp-image"">
                    <div class=""question-area"">
                        <p style=""font-size: 20px; font-weight: bold; margin: 0;"">Is there a person in this image?</p>
                    </div>
                </div>","0","main_experiment_trial","1","using_technology_semantic","semantic_sequence","chronological","","","","","","",""
"","","","","","html-keyboard-response","82","269580","0.0-82.0","B528D0E2B5124EAB9D3106273937B135","019cfc2c-35d5-7ea4-bedb-49b4a3366750","019cfc28-2143-7934-89cc-ce6402563331","","null","
                <div class=""stimulus-container"">
                    <img src=""images/semantic_sequence/using_technology_semantic/using_technology_semantic_2.png"" class=""exp-image"">
                    <div class=""question-area""></div> 
                </div>","null","","","","","","","","","","","",""
"","","","","","html-button-response","83","271678","0.0-83.0","B528D0E2B5124EAB9D3106273937B135","019cfc2c-35d5-7ea4-bedb-49b4a3366750","019cfc28-2143-7934-89cc-ce6402563331","","2098","
                <div class=""stimulus-container"">
                    <img src=""images/semantic_sequence/using_technology_semantic/using_technology_semantic_2.png"" class=""exp-image"">
                    <div class=""question-area"">
                        <p style=""font-size: 20px; font-weight: bold; margin: 0;"">Is there a person in this image?</p>
                    </div>
                </div>","0","main_experiment_trial","2","using_technology_semantic","semantic_sequence","chronological","","","","","","",""
"","","","","","html-keyboard-response","84","276686","0.0-84.0","B528D0E2B5124EAB9D3106273937B135","019cfc2c-35d5-7ea4-bedb-49b4a3366750","019cfc28-2143-7934-89cc-ce6402563331","","null","
                <div class=""stimulus-container"">
                    <img src=""images/semantic_sequence/using_technology_semantic/using_technology_semantic_3.png"" class=""exp-image"">
                    <div class=""question-area""></div> 
                </div>","null","","","","","","","","","","","",""
"","","","","","html-button-response","85","278078","0.0-85.0","B528D0E2B5124EAB9D3106273937B135","019cfc2c-35d5-7ea4-bedb-49b4a3366750","019cfc28-2143-7934-89cc-ce6402563331","","1392","
                <div class=""stimulus-container"">
                    <img src=""images/semantic_sequence/using_technology_semantic/using_technology_semantic_3.png"" class=""exp-image"">
                    <div class=""question-area"">
                        <p style=""font-size: 20px; font-weight: bold; margin: 0;"">Is there a person in this image?</p>
                    </div>
                </div>","0","main_experiment_trial","3","using_technology_semantic","semantic_sequence","chronological","","","","","","",""
"","","","","","html-keyboard-response","86","283093","0.0-86.0","B528D0E2B5124EAB9D3106273937B135","019cfc2c-35d5-7ea4-bedb-49b4a3366750","019cfc28-2143-7934-89cc-ce6402563331","","null","
                <div class=""stimulus-container"">
                    <img src=""images/semantic_sequence/using_technology_semantic/using_technology_semantic_4.png"" class=""exp-image"">
                    <div class=""question-area""></div> 
                </div>","null","","","","","","","","","","","",""
"","","","","","html-button-response","87","283918","0.0-87.0","B528D0E2B5124EAB9D3106273937B135","019cfc2c-35d5-7ea4-bedb-49b4a3366750","019cfc28-2143-7934-89cc-ce6402563331","","825","
                <div class=""stimulus-container"">
                    <img src=""images/semantic_sequence/using_technology_semantic/using_technology_semantic_4.png"" class=""exp-image"">
                    <div class=""question-area"">
                        <p style=""font-size: 20px; font-weight: bold; margin: 0;"">Is there a person in this image?</p>
                    </div>
                </div>","0","main_experiment_trial","4","using_technology_semantic","semantic_sequence","chronological","","","","","","",""
"","","","","","html-keyboard-response","88","288926","0.0-88.0","B528D0E2B5124EAB9D3106273937B135","019cfc2c-35d5-7ea4-bedb-49b4a3366750","019cfc28-2143-7934-89cc-ce6402563331","","null","
                <div class=""stimulus-container"">
                    <img src=""images/semantic_sequence/using_technology_semantic/using_technology_semantic_5.png"" class=""exp-image"">
                    <div class=""question-area""></div> 
                </div>","null","","","","","","","","","","","",""
"","","","","","html-button-response","89","289455","0.0-89.0","B528D0E2B5124EAB9D3106273937B135","019cfc2c-35d5-7ea4-bedb-49b4a3366750","019cfc28-2143-7934-89cc-ce6402563331","","528","
                <div class=""stimulus-container"">
                    <img src=""images/semantic_sequence/using_technology_semantic/using_technology_semantic_5.png"" class=""exp-image"">
                    <div class=""question-area"">
                        <p style=""font-size: 20px; font-weight: bold; margin: 0;"">Is there a person in this image?</p>
                    </div>
                </div>","0","main_experiment_trial","5","using_technology_semantic","semantic_sequence","chronological","","","","","","",""
"","","","","","html-keyboard-response","90","294460","0.0-90.0","B528D0E2B5124EAB9D3106273937B135","019cfc2c-35d5-7ea4-bedb-49b4a3366750","019cfc28-2143-7934-89cc-ce6402563331","","null","
                <div class=""stimulus-container"">
                    <img src=""images/semantic_sequence/using_technology_semantic/using_technology_semantic_6.png"" class=""exp-image"">
                    <div class=""question-area""></div> 
                </div>","null","","","","","","","","","","","",""
"","","","","","html-button-response","91","295583","0.0-91.0","B528D0E2B5124EAB9D3106273937B135","019cfc2c-35d5-7ea4-bedb-49b4a3366750","019cfc28-2143-7934-89cc-ce6402563331","","1122","
                <div class=""stimulus-container"">
                    <img src=""images/semantic_sequence/using_technology_semantic/using_technology_semantic_6.png"" class=""exp-image"">
                    <div class=""question-area"">
                        <p style=""font-size: 20px; font-weight: bold; margin: 0;"">Is there a person in this image?</p>
                    </div>
                </div>","0","main_experiment_trial","6","using_technology_semantic","semantic_sequence","chronological","","","","","","",""
"","","","","","html-keyboard-response","92","300591","0.0-92.0","B528D0E2B5124EAB9D3106273937B135","019cfc2c-35d5-7ea4-bedb-49b4a3366750","019cfc28-2143-7934-89cc-ce6402563331","","null","
                <div class=""stimulus-container"">
                    <img src=""images/semantic_sequence/using_technology_semantic/using_technology_semantic_7.png"" class=""exp-image"">
                    <div class=""question-area""></div> 
                </div>","null","","","","","","","","","","","",""
"","","","","","html-button-response","93","301599","0.0-93.0","B528D0E2B5124EAB9D3106273937B135","019cfc2c-35d5-7ea4-bedb-49b4a3366750","019cfc28-2143-7934-89cc-ce6402563331","","1008","
                <div class=""stimulus-container"">
                    <img src=""images/semantic_sequence/using_technology_semantic/using_technology_semantic_7.png"" class=""exp-image"">
                    <div class=""question-area"">
                        <p style=""font-size: 20px; font-weight: bold; margin: 0;"">Is there a person in this image?</p>
                    </div>
                </div>","0","main_experiment_trial","7","using_technology_semantic","semantic_sequence","chronological","","","","","","",""
"","","","","","html-keyboard-response","94","306610","0.0-94.0","B528D0E2B5124EAB9D3106273937B135","019cfc2c-35d5-7ea4-bedb-49b4a3366750","019cfc28-2143-7934-89cc-ce6402563331","","null","
                <div class=""stimulus-container"">
                    <img src=""images/semantic_sequence/using_technology_semantic/using_technology_semantic_8.png"" class=""exp-image"">
                    <div class=""question-area""></div> 
                </div>","null","","","","","","","","","","","",""
"","","","","","html-button-response","95","307200","0.0-95.0","B528D0E2B5124EAB9D3106273937B135","019cfc2c-35d5-7ea4-bedb-49b4a3366750","019cfc28-2143-7934-89cc-ce6402563331","","589","
                <div class=""stimulus-container"">
                    <img src=""images/semantic_sequence/using_technology_semantic/using_technology_semantic_8.png"" class=""exp-image"">
                    <div class=""question-area"">
                        <p style=""font-size: 20px; font-weight: bold; margin: 0;"">Is there a person in this image?</p>
                    </div>
                </div>","0","main_experiment_trial","8","using_technology_semantic","semantic_sequence","chronological","","","","","","",""
"","","","","","html-keyboard-response","96","312215","0.0-96.0","B528D0E2B5124EAB9D3106273937B135","019cfc2c-35d5-7ea4-bedb-49b4a3366750","019cfc28-2143-7934-89cc-ce6402563331","","null","
                <div class=""stimulus-container"">
                    <img src=""images/semantic_sequence/using_technology_semantic/using_technology_semantic_9.png"" class=""exp-image"">
                    <div class=""question-area""></div> 
                </div>","null","","","","","","","","","","","",""
"","","","","","html-button-response","97","313128","0.0-97.0","B528D0E2B5124EAB9D3106273937B135","019cfc2c-35d5-7ea4-bedb-49b4a3366750","019cfc28-2143-7934-89cc-ce6402563331","","912","
                <div class=""stimulus-container"">
                    <img src=""images/semantic_sequence/using_technology_semantic/using_technology_semantic_9.png"" class=""exp-image"">
                    <div class=""question-area"">
                        <p style=""font-size: 20px; font-weight: bold; margin: 0;"">Is there a person in this image?</p>
                    </div>
                </div>","0","main_experiment_trial","9","using_technology_semantic","semantic_sequence","chronological","","","","","","",""
"","","","","","html-keyboard-response","98","318130","0.0-98.0","B528D0E2B5124EAB9D3106273937B135","019cfc2c-35d5-7ea4-bedb-49b4a3366750","019cfc28-2143-7934-89cc-ce6402563331","","null","
                <div class=""stimulus-container"">
                    <img src=""images/semantic_sequence/using_technology_semantic/using_technology_semantic_ten.png"" class=""exp-image"">
                    <div class=""question-area""></div> 
                </div>","null","","","","","","","","","","","",""
"","","","","","html-button-response","99","318992","0.0-99.0","B528D0E2B5124EAB9D3106273937B135","019cfc2c-35d5-7ea4-bedb-49b4a3366750","019cfc28-2143-7934-89cc-ce6402563331","","862","
                <div class=""stimulus-container"">
                    <img src=""images/semantic_sequence/using_technology_semantic/using_technology_semantic_ten.png"" class=""exp-image"">
                    <div class=""question-area"">
                        <p style=""font-size: 20px; font-weight: bold; margin: 0;"">Is there a person in this image?</p>
                    </div>
                </div>","0","main_experiment_trial","ten","using_technology_semantic","semantic_sequence","chronological","","","","","","",""
"","","","","","html-keyboard-response","100","323999","0.0-100.0","B528D0E2B5124EAB9D3106273937B135","019cfc2c-35d5-7ea4-bedb-49b4a3366750","019cfc28-2143-7934-89cc-ce6402563331","","null","<div style=""background-color: white; width: 100vw; height: 100vh;""></div>","null","","","","","","","","","","","",""
"","","","","","html-keyboard-response","101","329012","0.0-101.0","B528D0E2B5124EAB9D3106273937B135","019cfc2c-35d5-7ea4-bedb-49b4a3366750","019cfc28-2143-7934-89cc-ce6402563331","","null","
                <div class=""stimulus-container"">
                    <img src=""images/schematic_sequence/supermarket_scheme/supermarket_scheme_1.png"" class=""exp-image"">
                    <div class=""question-area""></div> 
                </div>","null","","","","","","","","","","","",""
"","","","","","html-button-response","102","330912","0.0-102.0","B528D0E2B5124EAB9D3106273937B135","019cfc2c-35d5-7ea4-bedb-49b4a3366750","019cfc28-2143-7934-89cc-ce6402563331","","1900","
                <div class=""stimulus-container"">
                    <img src=""images/schematic_sequence/supermarket_scheme/supermarket_scheme_1.png"" class=""exp-image"">
                    <div class=""question-area"">
                        <p style=""font-size: 20px; font-weight: bold; margin: 0;"">Is there a person in this image?</p>
                    </div>
                </div>","1","main_experiment_trial","1","supermarket_scheme","schematic_sequence","chronological","","","","","","",""
"","","","","","html-keyboard-response","103","335923","0.0-103.0","B528D0E2B5124EAB9D3106273937B135","019cfc2c-35d5-7ea4-bedb-49b4a3366750","019cfc28-2143-7934-89cc-ce6402563331","","null","
                <div class=""stimulus-container"">
                    <img src=""images/schematic_sequence/supermarket_scheme/supermarket_scheme_2.png"" class=""exp-image"">
                    <div class=""question-area""></div> 
                </div>","null","","","","","","","","","","","",""
"","","","","","html-button-response","104","336705","0.0-104.0","B528D0E2B5124EAB9D3106273937B135","019cfc2c-35d5-7ea4-bedb-49b4a3366750","019cfc28-2143-7934-89cc-ce6402563331","","781","
                <div class=""stimulus-container"">
                    <img src=""images/schematic_sequence/supermarket_scheme/supermarket_scheme_2.png"" class=""exp-image"">
                    <div class=""question-area"">
                        <p style=""font-size: 20px; font-weight: bold; margin: 0;"">Is there a person in this image?</p>
                    </div>
                </div>","1","main_experiment_trial","2","supermarket_scheme","schematic_sequence","chronological","","","","","","",""
"","","","","","html-keyboard-response","105","341721","0.0-105.0","B528D0E2B5124EAB9D3106273937B135","019cfc2c-35d5-7ea4-bedb-49b4a3366750","019cfc28-2143-7934-89cc-ce6402563331","","null","
                <div class=""stimulus-container"">
                    <img src=""images/schematic_sequence/supermarket_scheme/supermarket_scheme_3.png"" class=""exp-image"">
                    <div class=""question-area""></div> 
                </div>","null","","","","","","","","","","","",""
"","","","","","html-button-response","106","342313","0.0-106.0","B528D0E2B5124EAB9D3106273937B135","019cfc2c-35d5-7ea4-bedb-49b4a3366750","019cfc28-2143-7934-89cc-ce6402563331","","592","
                <div class=""stimulus-container"">
                    <img src=""images/schematic_sequence/supermarket_scheme/supermarket_scheme_3.png"" class=""exp-image"">
                    <div class=""question-area"">
                        <p style=""font-size: 20px; font-weight: bold; margin: 0;"">Is there a person in this image?</p>
                    </div>
                </div>","1","main_experiment_trial","3","supermarket_scheme","schematic_sequence","chronological","","","","","","",""
"","","","","","html-keyboard-response","107","347323","0.0-107.0","B528D0E2B5124EAB9D3106273937B135","019cfc2c-35d5-7ea4-bedb-49b4a3366750","019cfc28-2143-7934-89cc-ce6402563331","","null","
                <div class=""stimulus-container"">
                    <img src=""images/schematic_sequence/supermarket_scheme/supermarket_scheme_4.png"" class=""exp-image"">
                    <div class=""question-area""></div> 
                </div>","null","","","","","","","","","","","",""
"","","","","","html-button-response","108","348625","0.0-108.0","B528D0E2B5124EAB9D3106273937B135","019cfc2c-35d5-7ea4-bedb-49b4a3366750","019cfc28-2143-7934-89cc-ce6402563331","","1302","
                <div class=""stimulus-container"">
                    <img src=""images/schematic_sequence/supermarket_scheme/supermarket_scheme_4.png"" class=""exp-image"">
                    <div class=""question-area"">
                        <p style=""font-size: 20px; font-weight: bold; margin: 0;"">Is there a person in this image?</p>
                    </div>
                </div>","0","main_experiment_trial","4","supermarket_scheme","schematic_sequence","chronological","","","","","","",""
"","","","","","html-keyboard-response","109","353634","0.0-109.0","B528D0E2B5124EAB9D3106273937B135","019cfc2c-35d5-7ea4-bedb-49b4a3366750","019cfc28-2143-7934-89cc-ce6402563331","","null","
                <div class=""stimulus-container"">
                    <img src=""images/schematic_sequence/supermarket_scheme/supermarket_scheme_5.png"" class=""exp-image"">
                    <div class=""question-area""></div> 
                </div>","null","","","","","","","","","","","",""
"","","","","","html-button-response","110","354481","0.0-110.0","B528D0E2B5124EAB9D3106273937B135","019cfc2c-35d5-7ea4-bedb-49b4a3366750","019cfc28-2143-7934-89cc-ce6402563331","","847","
                <div class=""stimulus-container"">
                    <img src=""images/schematic_sequence/supermarket_scheme/supermarket_scheme_5.png"" class=""exp-image"">
                    <div class=""question-area"">
                        <p style=""font-size: 20px; font-weight: bold; margin: 0;"">Is there a person in this image?</p>
                    </div>
                </div>","1","main_experiment_trial","5","supermarket_scheme","schematic_sequence","chronological","","","","","","",""
"","","","","","html-keyboard-response","111","359496","0.0-111.0","B528D0E2B5124EAB9D3106273937B135","019cfc2c-35d5-7ea4-bedb-49b4a3366750","019cfc28-2143-7934-89cc-ce6402563331","","null","
                <div class=""stimulus-container"">
                    <img src=""images/schematic_sequence/supermarket_scheme/supermarket_scheme_6.png"" class=""exp-image"">
                    <div class=""question-area""></div> 
                </div>","null","","","","","","","","","","","",""
"","","","","","html-button-response","112","360450","0.0-112.0","B528D0E2B5124EAB9D3106273937B135","019cfc2c-35d5-7ea4-bedb-49b4a3366750","019cfc28-2143-7934-89cc-ce6402563331","","953","
                <div class=""stimulus-container"">
                    <img src=""images/schematic_sequence/supermarket_scheme/supermarket_scheme_6.png"" class=""exp-image"">
                    <div class=""question-area"">
                        <p style=""font-size: 20px; font-weight: bold; margin: 0;"">Is there a person in this image?</p>
                    </div>
                </div>","0","main_experiment_trial","6","supermarket_scheme","schematic_sequence","chronological","","","","","","",""
"","","","","","html-keyboard-response","113","365452","0.0-113.0","B528D0E2B5124EAB9D3106273937B135","019cfc2c-35d5-7ea4-bedb-49b4a3366750","019cfc28-2143-7934-89cc-ce6402563331","","null","
                <div class=""stimulus-container"">
                    <img src=""images/schematic_sequence/supermarket_scheme/supermarket_scheme_7.png"" class=""exp-image"">
                    <div class=""question-area""></div> 
                </div>","null","","","","","","","","","","","",""
"","","","","","html-button-response","114","365898","0.0-114.0","B528D0E2B5124EAB9D3106273937B135","019cfc2c-35d5-7ea4-bedb-49b4a3366750","019cfc28-2143-7934-89cc-ce6402563331","","445","
                <div class=""stimulus-container"">
                    <img src=""images/schematic_sequence/supermarket_scheme/supermarket_scheme_7.png"" class=""exp-image"">
                    <div class=""question-area"">
                        <p style=""font-size: 20px; font-weight: bold; margin: 0;"">Is there a person in this image?</p>
                    </div>
                </div>","0","main_experiment_trial","7","supermarket_scheme","schematic_sequence","chronological","","","","","","",""
"","","","","","html-keyboard-response","115","370902","0.0-115.0","B528D0E2B5124EAB9D3106273937B135","019cfc2c-35d5-7ea4-bedb-49b4a3366750","019cfc28-2143-7934-89cc-ce6402563331","","null","
                <div class=""stimulus-container"">
                    <img src=""images/schematic_sequence/supermarket_scheme/supermarket_scheme_8.png"" class=""exp-image"">
                    <div class=""question-area""></div> 
                </div>","null","","","","","","","","","","","",""
"","","","","","html-button-response","116","371275","0.0-116.0","B528D0E2B5124EAB9D3106273937B135","019cfc2c-35d5-7ea4-bedb-49b4a3366750","019cfc28-2143-7934-89cc-ce6402563331","","372","
                <div class=""stimulus-container"">
                    <img src=""images/schematic_sequence/supermarket_scheme/supermarket_scheme_8.png"" class=""exp-image"">
                    <div class=""question-area"">
                        <p style=""font-size: 20px; font-weight: bold; margin: 0;"">Is there a person in this image?</p>
                    </div>
                </div>","0","main_experiment_trial","8","supermarket_scheme","schematic_sequence","chronological","","","","","","",""
"","","","","","html-keyboard-response","117","376276","0.0-117.0","B528D0E2B5124EAB9D3106273937B135","019cfc2c-35d5-7ea4-bedb-49b4a3366750","019cfc28-2143-7934-89cc-ce6402563331","","null","
                <div class=""stimulus-container"">
                    <img src=""images/schematic_sequence/supermarket_scheme/supermarket_scheme_9.png"" class=""exp-image"">
                    <div class=""question-area""></div> 
                </div>","null","","","","","","","","","","","",""
"","","","","","html-button-response","118","376754","0.0-118.0","B528D0E2B5124EAB9D3106273937B135","019cfc2c-35d5-7ea4-bedb-49b4a3366750","019cfc28-2143-7934-89cc-ce6402563331","","477","
                <div class=""stimulus-container"">
                    <img src=""images/schematic_sequence/supermarket_scheme/supermarket_scheme_9.png"" class=""exp-image"">
                    <div class=""question-area"">
                        <p style=""font-size: 20px; font-weight: bold; margin: 0;"">Is there a person in this image?</p>
                    </div>
                </div>","0","main_experiment_trial","9","supermarket_scheme","schematic_sequence","chronological","","","","","","",""
"","","","","","html-keyboard-response","119","381757","0.0-119.0","B528D0E2B5124EAB9D3106273937B135","019cfc2c-35d5-7ea4-bedb-49b4a3366750","019cfc28-2143-7934-89cc-ce6402563331","","null","
                <div class=""stimulus-container"">
                    <img src=""images/schematic_sequence/supermarket_scheme/supermarket_scheme_ten.png"" class=""exp-image"">
                    <div class=""question-area""></div> 
                </div>","null","","","","","","","","","","","",""
"","","","","","html-button-response","120","382187","0.0-120.0","B528D0E2B5124EAB9D3106273937B135","019cfc2c-35d5-7ea4-bedb-49b4a3366750","019cfc28-2143-7934-89cc-ce6402563331","","429","
                <div class=""stimulus-container"">
                    <img src=""images/schematic_sequence/supermarket_scheme/supermarket_scheme_ten.png"" class=""exp-image"">
                    <div class=""question-area"">
                        <p style=""font-size: 20px; font-weight: bold; margin: 0;"">Is there a person in this image?</p>
                    </div>
                </div>","1","main_experiment_trial","ten","supermarket_scheme","schematic_sequence","chronological","","","","","","",""
"","","","","","html-keyboard-response","121","387189","0.0-121.0","B528D0E2B5124EAB9D3106273937B135","019cfc2c-35d5-7ea4-bedb-49b4a3366750","019cfc28-2143-7934-89cc-ce6402563331","","null","<div style=""background-color: white; width: 100vw; height: 100vh;""></div>","null","","","","","","","","","","","",""
"","","","","","html-keyboard-response","122","392200","0.0-122.0","B528D0E2B5124EAB9D3106273937B135","019cfc2c-35d5-7ea4-bedb-49b4a3366750","019cfc28-2143-7934-89cc-ce6402563331","","null","
                <div class=""stimulus-container"">
                    <img src=""images/semantic_sequence/self_care_activities_semantic/self_care_activities_semantic_1.png"" class=""exp-image"">
                    <div class=""question-area""></div> 
                </div>","null","","","","","","","","","","","",""
"","","","","","html-button-response","123","393019","0.0-123.0","B528D0E2B5124EAB9D3106273937B135","019cfc2c-35d5-7ea4-bedb-49b4a3366750","019cfc28-2143-7934-89cc-ce6402563331","","819","
                <div class=""stimulus-container"">
                    <img src=""images/semantic_sequence/self_care_activities_semantic/self_care_activities_semantic_1.png"" class=""exp-image"">
                    <div class=""question-area"">
                        <p style=""font-size: 20px; font-weight: bold; margin: 0;"">Is there a person in this image?</p>
                    </div>
                </div>","0","main_experiment_trial","1","self_care_activities_semantic","semantic_sequence","chronological","","","","","","",""
"","","","","","html-keyboard-response","124","398034","0.0-124.0","B528D0E2B5124EAB9D3106273937B135","019cfc2c-35d5-7ea4-bedb-49b4a3366750","019cfc28-2143-7934-89cc-ce6402563331","","null","
                <div class=""stimulus-container"">
                    <img src=""images/semantic_sequence/self_care_activities_semantic/self_care_activities_semantic_2.png"" class=""exp-image"">
                    <div class=""question-area""></div> 
                </div>","null","","","","","","","","","","","",""
"","","","","","html-button-response","125","398675","0.0-125.0","B528D0E2B5124EAB9D3106273937B135","019cfc2c-35d5-7ea4-bedb-49b4a3366750","019cfc28-2143-7934-89cc-ce6402563331","","641","
                <div class=""stimulus-container"">
                    <img src=""images/semantic_sequence/self_care_activities_semantic/self_care_activities_semantic_2.png"" class=""exp-image"">
                    <div class=""question-area"">
                        <p style=""font-size: 20px; font-weight: bold; margin: 0;"">Is there a person in this image?</p>
                    </div>
                </div>","0","main_experiment_trial","2","self_care_activities_semantic","semantic_sequence","chronological","","","","","","",""
"","","","","","html-keyboard-response","126","404408","0.0-126.0","B528D0E2B5124EAB9D3106273937B135","019cfc2c-35d5-7ea4-bedb-49b4a3366750","019cfc28-2143-7934-89cc-ce6402563331","","null","
                <div class=""stimulus-container"">
                    <img src=""images/semantic_sequence/self_care_activities_semantic/self_care_activities_semantic_3.png"" class=""exp-image"">
                    <div class=""question-area""></div> 
                </div>","null","","","","","","","","","","","",""
"","","","","","html-button-response","127","408399","0.0-127.0","B528D0E2B5124EAB9D3106273937B135","019cfc2c-35d5-7ea4-bedb-49b4a3366750","019cfc28-2143-7934-89cc-ce6402563331","","null","
                <div class=""stimulus-container"">
                    <img src=""images/semantic_sequence/self_care_activities_semantic/self_care_activities_semantic_3.png"" class=""exp-image"">
                    <div class=""question-area"">
                        <p style=""font-size: 20px; font-weight: bold; margin: 0;"">Is there a person in this image?</p>
                    </div>
                </div>","null","main_experiment_trial","3","self_care_activities_semantic","semantic_sequence","chronological","","","","","","",""
"","","","","","html-keyboard-response","128","413404","0.0-128.0","B528D0E2B5124EAB9D3106273937B135","019cfc2c-35d5-7ea4-bedb-49b4a3366750","019cfc28-2143-7934-89cc-ce6402563331","","null","
                <div class=""stimulus-container"">
                    <img src=""images/semantic_sequence/self_care_activities_semantic/self_care_activities_semantic_4.png"" class=""exp-image"">
                    <div class=""question-area""></div> 
                </div>","null","","","","","","","","","","","",""
"","","","","","html-button-response","129","415420","0.0-129.0","B528D0E2B5124EAB9D3106273937B135","019cfc2c-35d5-7ea4-bedb-49b4a3366750","019cfc28-2143-7934-89cc-ce6402563331","","2015","
                <div class=""stimulus-container"">
                    <img src=""images/semantic_sequence/self_care_activities_semantic/self_care_activities_semantic_4.png"" class=""exp-image"">
                    <div class=""question-area"">
                        <p style=""font-size: 20px; font-weight: bold; margin: 0;"">Is there a person in this image?</p>
                    </div>
                </div>","0","main_experiment_trial","4","self_care_activities_semantic","semantic_sequence","chronological","","","","","","",""
"","","","","","html-keyboard-response","130","420421","0.0-130.0","B528D0E2B5124EAB9D3106273937B135","019cfc2c-35d5-7ea4-bedb-49b4a3366750","019cfc28-2143-7934-89cc-ce6402563331","","null","
                <div class=""stimulus-container"">
                    <img src=""images/semantic_sequence/self_care_activities_semantic/self_care_activities_semantic_5.png"" class=""exp-image"">
                    <div class=""question-area""></div> 
                </div>","null","","","","","","","","","","","",""
"","","","","","html-button-response","131","421348","0.0-131.0","B528D0E2B5124EAB9D3106273937B135","019cfc2c-35d5-7ea4-bedb-49b4a3366750","019cfc28-2143-7934-89cc-ce6402563331","","926","
                <div class=""stimulus-container"">
                    <img src=""images/semantic_sequence/self_care_activities_semantic/self_care_activities_semantic_5.png"" class=""exp-image"">
                    <div class=""question-area"">
                        <p style=""font-size: 20px; font-weight: bold; margin: 0;"">Is there a person in this image?</p>
                    </div>
                </div>","0","main_experiment_trial","5","self_care_activities_semantic","semantic_sequence","chronological","","","","","","",""
"","","","","","html-keyboard-response","132","426407","0.0-132.0","B528D0E2B5124EAB9D3106273937B135","019cfc2c-35d5-7ea4-bedb-49b4a3366750","019cfc28-2143-7934-89cc-ce6402563331","","null","
                <div class=""stimulus-container"">
                    <img src=""images/semantic_sequence/self_care_activities_semantic/self_care_activities_semantic_6.png"" class=""exp-image"">
                    <div class=""question-area""></div> 
                </div>","null","","","","","","","","","","","",""
"","","","","","html-button-response","133","430404","0.0-133.0","B528D0E2B5124EAB9D3106273937B135","019cfc2c-35d5-7ea4-bedb-49b4a3366750","019cfc28-2143-7934-89cc-ce6402563331","","null","
                <div class=""stimulus-container"">
                    <img src=""images/semantic_sequence/self_care_activities_semantic/self_care_activities_semantic_6.png"" class=""exp-image"">
                    <div class=""question-area"">
                        <p style=""font-size: 20px; font-weight: bold; margin: 0;"">Is there a person in this image?</p>
                    </div>
                </div>","null","main_experiment_trial","6","self_care_activities_semantic","semantic_sequence","chronological","","","","","","",""
"","","","","","html-keyboard-response","134","435418","0.0-134.0","B528D0E2B5124EAB9D3106273937B135","019cfc2c-35d5-7ea4-bedb-49b4a3366750","019cfc28-2143-7934-89cc-ce6402563331","","null","
                <div class=""stimulus-container"">
                    <img src=""images/semantic_sequence/self_care_activities_semantic/self_care_activities_semantic_7.png"" class=""exp-image"">
                    <div class=""question-area""></div> 
                </div>","null","","","","","","","","","","","",""
"","","","","","html-button-response","135","436389","0.0-135.0","B528D0E2B5124EAB9D3106273937B135","019cfc2c-35d5-7ea4-bedb-49b4a3366750","019cfc28-2143-7934-89cc-ce6402563331","","970","
                <div class=""stimulus-container"">
                    <img src=""images/semantic_sequence/self_care_activities_semantic/self_care_activities_semantic_7.png"" class=""exp-image"">
                    <div class=""question-area"">
                        <p style=""font-size: 20px; font-weight: bold; margin: 0;"">Is there a person in this image?</p>
                    </div>
                </div>","0","main_experiment_trial","7","self_care_activities_semantic","semantic_sequence","chronological","","","","","","",""
"","","","","","html-keyboard-response","136","441397","0.0-136.0","B528D0E2B5124EAB9D3106273937B135","019cfc2c-35d5-7ea4-bedb-49b4a3366750","019cfc28-2143-7934-89cc-ce6402563331","","null","
                <div class=""stimulus-container"">
                    <img src=""images/semantic_sequence/self_care_activities_semantic/self_care_activities_semantic_8.png"" class=""exp-image"">
                    <div class=""question-area""></div> 
                </div>","null","","","","","","","","","","","",""
"","","","","","html-button-response","137","442125","0.0-137.0","B528D0E2B5124EAB9D3106273937B135","019cfc2c-35d5-7ea4-bedb-49b4a3366750","019cfc28-2143-7934-89cc-ce6402563331","","728","
                <div class=""stimulus-container"">
                    <img src=""images/semantic_sequence/self_care_activities_semantic/self_care_activities_semantic_8.png"" class=""exp-image"">
                    <div class=""question-area"">
                        <p style=""font-size: 20px; font-weight: bold; margin: 0;"">Is there a person in this image?</p>
                    </div>
                </div>","0","main_experiment_trial","8","self_care_activities_semantic","semantic_sequence","chronological","","","","","","",""
"","","","","","html-keyboard-response","138","447125","0.0-138.0","B528D0E2B5124EAB9D3106273937B135","019cfc2c-35d5-7ea4-bedb-49b4a3366750","019cfc28-2143-7934-89cc-ce6402563331","","null","
                <div class=""stimulus-container"">
                    <img src=""images/semantic_sequence/self_care_activities_semantic/self_care_activities_semantic_9.png"" class=""exp-image"">
                    <div class=""question-area""></div> 
                </div>","null","","","","","","","","","","","",""
"","","","","","html-button-response","139","448485","0.0-139.0","B528D0E2B5124EAB9D3106273937B135","019cfc2c-35d5-7ea4-bedb-49b4a3366750","019cfc28-2143-7934-89cc-ce6402563331","","1359","
                <div class=""stimulus-container"">
                    <img src=""images/semantic_sequence/self_care_activities_semantic/self_care_activities_semantic_9.png"" class=""exp-image"">
                    <div class=""question-area"">
                        <p style=""font-size: 20px; font-weight: bold; margin: 0;"">Is there a person in this image?</p>
                    </div>
                </div>","0","main_experiment_trial","9","self_care_activities_semantic","semantic_sequence","chronological","","","","","","",""
"","","","","","html-keyboard-response","140","453487","0.0-140.0","B528D0E2B5124EAB9D3106273937B135","019cfc2c-35d5-7ea4-bedb-49b4a3366750","019cfc28-2143-7934-89cc-ce6402563331","","null","
                <div class=""stimulus-container"">
                    <img src=""images/semantic_sequence/self_care_activities_semantic/self_care_activities_semantic_ten.png"" class=""exp-image"">
                    <div class=""question-area""></div> 
                </div>","null","","","","","","","","","","","",""
"","","","","","html-button-response","141","455222","0.0-141.0","B528D0E2B5124EAB9D3106273937B135","019cfc2c-35d5-7ea4-bedb-49b4a3366750","019cfc28-2143-7934-89cc-ce6402563331","","1734","
                <div class=""stimulus-container"">
                    <img src=""images/semantic_sequence/self_care_activities_semantic/self_care_activities_semantic_ten.png"" class=""exp-image"">
                    <div class=""question-area"">
                        <p style=""font-size: 20px; font-weight: bold; margin: 0;"">Is there a person in this image?</p>
                    </div>
                </div>","0","main_experiment_trial","ten","self_care_activities_semantic","semantic_sequence","chronological","","","","","","",""
"","","","","","html-keyboard-response","142","460224","0.0-142.0","B528D0E2B5124EAB9D3106273937B135","019cfc2c-35d5-7ea4-bedb-49b4a3366750","019cfc28-2143-7934-89cc-ce6402563331","","null","<div style=""background-color: white; width: 100vw; height: 100vh;""></div>","null","","","","","","","","","","","",""
"","","","","","html-keyboard-response","143","465236","0.0-143.0","B528D0E2B5124EAB9D3106273937B135","019cfc2c-35d5-7ea4-bedb-49b4a3366750","019cfc28-2143-7934-89cc-ce6402563331","","null","
                <div class=""stimulus-container"">
                    <img src=""images/schematic_sequence/dinner_party_scheme/dinner_party_scheme_1.png"" class=""exp-image"">
                    <div class=""question-area""></div> 
                </div>","null","","","","","","","","","","","",""
"","","","","","html-button-response","144","466086","0.0-144.0","B528D0E2B5124EAB9D3106273937B135","019cfc2c-35d5-7ea4-bedb-49b4a3366750","019cfc28-2143-7934-89cc-ce6402563331","","849","
                <div class=""stimulus-container"">
                    <img src=""images/schematic_sequence/dinner_party_scheme/dinner_party_scheme_1.png"" class=""exp-image"">
                    <div class=""question-area"">
                        <p style=""font-size: 20px; font-weight: bold; margin: 0;"">Is there a person in this image?</p>
                    </div>
                </div>","0","main_experiment_trial","1","dinner_party_scheme","schematic_sequence","chronological","","","","","","",""
"","","","","","html-keyboard-response","145","471093","0.0-145.0","B528D0E2B5124EAB9D3106273937B135","019cfc2c-35d5-7ea4-bedb-49b4a3366750","019cfc28-2143-7934-89cc-ce6402563331","","null","
                <div class=""stimulus-container"">
                    <img src=""images/schematic_sequence/dinner_party_scheme/dinner_party_scheme_2.png"" class=""exp-image"">
                    <div class=""question-area""></div> 
                </div>","null","","","","","","","","","","","",""
"","","","","","html-button-response","146","471734","0.0-146.0","B528D0E2B5124EAB9D3106273937B135","019cfc2c-35d5-7ea4-bedb-49b4a3366750","019cfc28-2143-7934-89cc-ce6402563331","","640","
                <div class=""stimulus-container"">
                    <img src=""images/schematic_sequence/dinner_party_scheme/dinner_party_scheme_2.png"" class=""exp-image"">
                    <div class=""question-area"">
                        <p style=""font-size: 20px; font-weight: bold; margin: 0;"">Is there a person in this image?</p>
                    </div>
                </div>","0","main_experiment_trial","2","dinner_party_scheme","schematic_sequence","chronological","","","","","","",""
"","","","","","html-keyboard-response","147","476738","0.0-147.0","B528D0E2B5124EAB9D3106273937B135","019cfc2c-35d5-7ea4-bedb-49b4a3366750","019cfc28-2143-7934-89cc-ce6402563331","","null","
                <div class=""stimulus-container"">
                    <img src=""images/schematic_sequence/dinner_party_scheme/dinner_party_scheme_3.png"" class=""exp-image"">
                    <div class=""question-area""></div> 
                </div>","null","","","","","","","","","","","",""
"","","","","","html-button-response","148","477958","0.0-148.0","B528D0E2B5124EAB9D3106273937B135","019cfc2c-35d5-7ea4-bedb-49b4a3366750","019cfc28-2143-7934-89cc-ce6402563331","","1220","
                <div class=""stimulus-container"">
                    <img src=""images/schematic_sequence/dinner_party_scheme/dinner_party_scheme_3.png"" class=""exp-image"">
                    <div class=""question-area"">
                        <p style=""font-size: 20px; font-weight: bold; margin: 0;"">Is there a person in this image?</p>
                    </div>
                </div>","0","main_experiment_trial","3","dinner_party_scheme","schematic_sequence","chronological","","","","","","",""
"","","","","","html-keyboard-response","149","482961","0.0-149.0","B528D0E2B5124EAB9D3106273937B135","019cfc2c-35d5-7ea4-bedb-49b4a3366750","019cfc28-2143-7934-89cc-ce6402563331","","null","
                <div class=""stimulus-container"">
                    <img src=""images/schematic_sequence/dinner_party_scheme/dinner_party_scheme_4.png"" class=""exp-image"">
                    <div class=""question-area""></div> 
                </div>","null","","","","","","","","","","","",""
"","","","","","html-button-response","150","483375","0.0-150.0","B528D0E2B5124EAB9D3106273937B135","019cfc2c-35d5-7ea4-bedb-49b4a3366750","019cfc28-2143-7934-89cc-ce6402563331","","413","
                <div class=""stimulus-container"">
                    <img src=""images/schematic_sequence/dinner_party_scheme/dinner_party_scheme_4.png"" class=""exp-image"">
                    <div class=""question-area"">
                        <p style=""font-size: 20px; font-weight: bold; margin: 0;"">Is there a person in this image?</p>
                    </div>
                </div>","0","main_experiment_trial","4","dinner_party_scheme","schematic_sequence","chronological","","","","","","",""
"","","","","","html-keyboard-response","151","488402","0.0-151.0","B528D0E2B5124EAB9D3106273937B135","019cfc2c-35d5-7ea4-bedb-49b4a3366750","019cfc28-2143-7934-89cc-ce6402563331","","null","
                <div class=""stimulus-container"">
                    <img src=""images/schematic_sequence/dinner_party_scheme/dinner_party_scheme_5.png"" class=""exp-image"">
                    <div class=""question-area""></div> 
                </div>","null","","","","","","","","","","","",""
"","","","","","html-button-response","152","489823","0.0-152.0","B528D0E2B5124EAB9D3106273937B135","019cfc2c-35d5-7ea4-bedb-49b4a3366750","019cfc28-2143-7934-89cc-ce6402563331","","1420","
                <div class=""stimulus-container"">
                    <img src=""images/schematic_sequence/dinner_party_scheme/dinner_party_scheme_5.png"" class=""exp-image"">
                    <div class=""question-area"">
                        <p style=""font-size: 20px; font-weight: bold; margin: 0;"">Is there a person in this image?</p>
                    </div>
                </div>","0","main_experiment_trial","5","dinner_party_scheme","schematic_sequence","chronological","","","","","","",""
"","","","","","html-keyboard-response","153","494830","0.0-153.0","B528D0E2B5124EAB9D3106273937B135","019cfc2c-35d5-7ea4-bedb-49b4a3366750","019cfc28-2143-7934-89cc-ce6402563331","","null","
                <div class=""stimulus-container"">
                    <img src=""images/schematic_sequence/dinner_party_scheme/dinner_party_scheme_6.png"" class=""exp-image"">
                    <div class=""question-area""></div> 
                </div>","null","","","","","","","","","","","",""
"","","","","","html-button-response","154","495519","0.0-154.0","B528D0E2B5124EAB9D3106273937B135","019cfc2c-35d5-7ea4-bedb-49b4a3366750","019cfc28-2143-7934-89cc-ce6402563331","","689","
                <div class=""stimulus-container"">
                    <img src=""images/schematic_sequence/dinner_party_scheme/dinner_party_scheme_6.png"" class=""exp-image"">
                    <div class=""question-area"">
                        <p style=""font-size: 20px; font-weight: bold; margin: 0;"">Is there a person in this image?</p>
                    </div>
                </div>","0","main_experiment_trial","6","dinner_party_scheme","schematic_sequence","chronological","","","","","","",""
"","","","","","html-keyboard-response","155","500529","0.0-155.0","B528D0E2B5124EAB9D3106273937B135","019cfc2c-35d5-7ea4-bedb-49b4a3366750","019cfc28-2143-7934-89cc-ce6402563331","","null","
                <div class=""stimulus-container"">
                    <img src=""images/schematic_sequence/dinner_party_scheme/dinner_party_scheme_7.png"" class=""exp-image"">
                    <div class=""question-area""></div> 
                </div>","null","","","","","","","","","","","",""
"","","","","","html-button-response","156","500927","0.0-156.0","B528D0E2B5124EAB9D3106273937B135","019cfc2c-35d5-7ea4-bedb-49b4a3366750","019cfc28-2143-7934-89cc-ce6402563331","","398","
                <div class=""stimulus-container"">
                    <img src=""images/schematic_sequence/dinner_party_scheme/dinner_party_scheme_7.png"" class=""exp-image"">
                    <div class=""question-area"">
                        <p style=""font-size: 20px; font-weight: bold; margin: 0;"">Is there a person in this image?</p>
                    </div>
                </div>","0","main_experiment_trial","7","dinner_party_scheme","schematic_sequence","chronological","","","","","","",""
"","","","","","html-keyboard-response","157","505934","0.0-157.0","B528D0E2B5124EAB9D3106273937B135","019cfc2c-35d5-7ea4-bedb-49b4a3366750","019cfc28-2143-7934-89cc-ce6402563331","","null","
                <div class=""stimulus-container"">
                    <img src=""images/schematic_sequence/dinner_party_scheme/dinner_party_scheme_8.png"" class=""exp-image"">
                    <div class=""question-area""></div> 
                </div>","null","","","","","","","","","","","",""
"","","","","","html-button-response","158","506584","0.0-158.0","B528D0E2B5124EAB9D3106273937B135","019cfc2c-35d5-7ea4-bedb-49b4a3366750","019cfc28-2143-7934-89cc-ce6402563331","","650","
                <div class=""stimulus-container"">
                    <img src=""images/schematic_sequence/dinner_party_scheme/dinner_party_scheme_8.png"" class=""exp-image"">
                    <div class=""question-area"">
                        <p style=""font-size: 20px; font-weight: bold; margin: 0;"">Is there a person in this image?</p>
                    </div>
                </div>","0","main_experiment_trial","8","dinner_party_scheme","schematic_sequence","chronological","","","","","","",""
"","","","","","html-keyboard-response","159","511599","0.0-159.0","B528D0E2B5124EAB9D3106273937B135","019cfc2c-35d5-7ea4-bedb-49b4a3366750","019cfc28-2143-7934-89cc-ce6402563331","","null","
                <div class=""stimulus-container"">
                    <img src=""images/schematic_sequence/dinner_party_scheme/dinner_party_scheme_9.png"" class=""exp-image"">
                    <div class=""question-area""></div> 
                </div>","null","","","","","","","","","","","",""
"","","","","","html-button-response","160","513464","0.0-160.0","B528D0E2B5124EAB9D3106273937B135","019cfc2c-35d5-7ea4-bedb-49b4a3366750","019cfc28-2143-7934-89cc-ce6402563331","","1865","
                <div class=""stimulus-container"">
                    <img src=""images/schematic_sequence/dinner_party_scheme/dinner_party_scheme_9.png"" class=""exp-image"">
                    <div class=""question-area"">
                        <p style=""font-size: 20px; font-weight: bold; margin: 0;"">Is there a person in this image?</p>
                    </div>
                </div>","0","main_experiment_trial","9","dinner_party_scheme","schematic_sequence","chronological","","","","","","",""
"","","","","","html-keyboard-response","161","518471","0.0-161.0","B528D0E2B5124EAB9D3106273937B135","019cfc2c-35d5-7ea4-bedb-49b4a3366750","019cfc28-2143-7934-89cc-ce6402563331","","null","
                <div class=""stimulus-container"">
                    <img src=""images/schematic_sequence/dinner_party_scheme/dinner_party_scheme_ten.png"" class=""exp-image"">
                    <div class=""question-area""></div> 
                </div>","null","","","","","","","","","","","",""
"","","","","","html-button-response","162","520736","0.0-162.0","B528D0E2B5124EAB9D3106273937B135","019cfc2c-35d5-7ea4-bedb-49b4a3366750","019cfc28-2143-7934-89cc-ce6402563331","","2265","
                <div class=""stimulus-container"">
                    <img src=""images/schematic_sequence/dinner_party_scheme/dinner_party_scheme_ten.png"" class=""exp-image"">
                    <div class=""question-area"">
                        <p style=""font-size: 20px; font-weight: bold; margin: 0;"">Is there a person in this image?</p>
                    </div>
                </div>","0","main_experiment_trial","ten","dinner_party_scheme","schematic_sequence","chronological","","","","","","",""
"","","","","","html-keyboard-response","163","525752","0.0-163.0","B528D0E2B5124EAB9D3106273937B135","019cfc2c-35d5-7ea4-bedb-49b4a3366750","019cfc28-2143-7934-89cc-ce6402563331","","null","<div style=""background-color: white; width: 100vw; height: 100vh;""></div>","null","","","","","","","","","","","",""
"","","","","","html-keyboard-response","164","530757","0.0-164.0","B528D0E2B5124EAB9D3106273937B135","019cfc2c-35d5-7ea4-bedb-49b4a3366750","019cfc28-2143-7934-89cc-ce6402563331","","null","
                <div class=""stimulus-container"">
                    <img src=""images/semantic_sequence/physical_activity_semantic/physical_activity_semantic_1.png"" class=""exp-image"">
                    <div class=""question-area""></div> 
                </div>","null","","","","","","","","","","","",""
"","","","","","html-button-response","165","532329","0.0-165.0","B528D0E2B5124EAB9D3106273937B135","019cfc2c-35d5-7ea4-bedb-49b4a3366750","019cfc28-2143-7934-89cc-ce6402563331","","1571","
                <div class=""stimulus-container"">
                    <img src=""images/semantic_sequence/physical_activity_semantic/physical_activity_semantic_1.png"" class=""exp-image"">
                    <div class=""question-area"">
                        <p style=""font-size: 20px; font-weight: bold; margin: 0;"">Is there a person in this image?</p>
                    </div>
                </div>","0","main_experiment_trial","1","physical_activity_semantic","semantic_sequence","chronological","","","","","","",""
"","","","","","html-keyboard-response","166","537332","0.0-166.0","B528D0E2B5124EAB9D3106273937B135","019cfc2c-35d5-7ea4-bedb-49b4a3366750","019cfc28-2143-7934-89cc-ce6402563331","","null","
                <div class=""stimulus-container"">
                    <img src=""images/semantic_sequence/physical_activity_semantic/physical_activity_semantic_2.png"" class=""exp-image"">
                    <div class=""question-area""></div> 
                </div>","null","","","","","","","","","","","",""
"","","","","","html-button-response","167","537746","0.0-167.0","B528D0E2B5124EAB9D3106273937B135","019cfc2c-35d5-7ea4-bedb-49b4a3366750","019cfc28-2143-7934-89cc-ce6402563331","","413","
                <div class=""stimulus-container"">
                    <img src=""images/semantic_sequence/physical_activity_semantic/physical_activity_semantic_2.png"" class=""exp-image"">
                    <div class=""question-area"">
                        <p style=""font-size: 20px; font-weight: bold; margin: 0;"">Is there a person in this image?</p>
                    </div>
                </div>","0","main_experiment_trial","2","physical_activity_semantic","semantic_sequence","chronological","","","","","","",""
"","","","","","html-keyboard-response","168","542759","0.0-168.0","B528D0E2B5124EAB9D3106273937B135","019cfc2c-35d5-7ea4-bedb-49b4a3366750","019cfc28-2143-7934-89cc-ce6402563331","","null","
                <div class=""stimulus-container"">
                    <img src=""images/semantic_sequence/physical_activity_semantic/physical_activity_semantic_3.png"" class=""exp-image"">
                    <div class=""question-area""></div> 
                </div>","null","","","","","","","","","","","",""
"","","","","","html-button-response","169","543153","0.0-169.0","B528D0E2B5124EAB9D3106273937B135","019cfc2c-35d5-7ea4-bedb-49b4a3366750","019cfc28-2143-7934-89cc-ce6402563331","","393","
                <div class=""stimulus-container"">
                    <img src=""images/semantic_sequence/physical_activity_semantic/physical_activity_semantic_3.png"" class=""exp-image"">
                    <div class=""question-area"">
                        <p style=""font-size: 20px; font-weight: bold; margin: 0;"">Is there a person in this image?</p>
                    </div>
                </div>","0","main_experiment_trial","3","physical_activity_semantic","semantic_sequence","chronological","","","","","","",""
"","","","","","html-keyboard-response","170","548162","0.0-170.0","B528D0E2B5124EAB9D3106273937B135","019cfc2c-35d5-7ea4-bedb-49b4a3366750","019cfc28-2143-7934-89cc-ce6402563331","","null","
                <div class=""stimulus-container"">
                    <img src=""images/semantic_sequence/physical_activity_semantic/physical_activity_semantic_4.png"" class=""exp-image"">
                    <div class=""question-area""></div> 
                </div>","null","","","","","","","","","","","",""
"","","","","","html-button-response","171","548561","0.0-171.0","B528D0E2B5124EAB9D3106273937B135","019cfc2c-35d5-7ea4-bedb-49b4a3366750","019cfc28-2143-7934-89cc-ce6402563331","","399","
                <div class=""stimulus-container"">
                    <img src=""images/semantic_sequence/physical_activity_semantic/physical_activity_semantic_4.png"" class=""exp-image"">
                    <div class=""question-area"">
                        <p style=""font-size: 20px; font-weight: bold; margin: 0;"">Is there a person in this image?</p>
                    </div>
                </div>","0","main_experiment_trial","4","physical_activity_semantic","semantic_sequence","chronological","","","","","","",""
"","","","","","html-keyboard-response","172","553566","0.0-172.0","B528D0E2B5124EAB9D3106273937B135","019cfc2c-35d5-7ea4-bedb-49b4a3366750","019cfc28-2143-7934-89cc-ce6402563331","","null","
                <div class=""stimulus-container"">
                    <img src=""images/semantic_sequence/physical_activity_semantic/physical_activity_semantic_5.png"" class=""exp-image"">
                    <div class=""question-area""></div> 
                </div>","null","","","","","","","","","","","",""
"","","","","","html-button-response","173","553962","0.0-173.0","B528D0E2B5124EAB9D3106273937B135","019cfc2c-35d5-7ea4-bedb-49b4a3366750","019cfc28-2143-7934-89cc-ce6402563331","","395","
                <div class=""stimulus-container"">
                    <img src=""images/semantic_sequence/physical_activity_semantic/physical_activity_semantic_5.png"" class=""exp-image"">
                    <div class=""question-area"">
                        <p style=""font-size: 20px; font-weight: bold; margin: 0;"">Is there a person in this image?</p>
                    </div>
                </div>","0","main_experiment_trial","5","physical_activity_semantic","semantic_sequence","chronological","","","","","","",""
"","","","","","html-keyboard-response","174","558967","0.0-174.0","B528D0E2B5124EAB9D3106273937B135","019cfc2c-35d5-7ea4-bedb-49b4a3366750","019cfc28-2143-7934-89cc-ce6402563331","","null","
                <div class=""stimulus-container"">
