"success","timeout","failed_images","failed_audio","failed_video","trial_type","trial_index","time_elapsed","internal_node_id","subject_id","study_id","session_id","view_history","rt","stimulus","response","task","image_index","folder","sequence_type","presentation_order","valuable_image_index","reward_type","target_X","l_dist","r_dist","chosen_image_index","selected_after_X","correct_choice"
"true","false","[]","[]","[]","preload","0","6891","0.0-0.0","3D4E5E7833FD49A7950FD30327F560C5","019d6637-a829-7ac1-aeee-9cbeff5e597f","019d6630-2071-75cb-8026-6699844a2719","","","","","","","","","","","","","","","","",""
"","","","","","instructions","1","9718","0.0-1.0","3D4E5E7833FD49A7950FD30327F560C5","019d6637-a829-7ac1-aeee-9cbeff5e597f","019d6630-2071-75cb-8026-6699844a2719","[{""page_index"":0,""viewing_time"":2825}]","2826","","","","","","","","","","","","","","",""
"","","","","","instructions","2","12135","0.0-2.0","3D4E5E7833FD49A7950FD30327F560C5","019d6637-a829-7ac1-aeee-9cbeff5e597f","019d6630-2071-75cb-8026-6699844a2719","[{""page_index"":0,""viewing_time"":2416}]","2416","","","","","","","","","","","","","","",""
"true","","","","","fullscreen","3","14355","0.0-3.0","3D4E5E7833FD49A7950FD30327F560C5","019d6637-a829-7ac1-aeee-9cbeff5e597f","019d6630-2071-75cb-8026-6699844a2719","","1196","","","","","","","","","","","","","","",""
"","","","","","instructions","4","30085","0.0-4.0","3D4E5E7833FD49A7950FD30327F560C5","019d6637-a829-7ac1-aeee-9cbeff5e597f","019d6630-2071-75cb-8026-6699844a2719","[{""page_index"":0,""viewing_time"":15728}]","15729","","","","","","","","","","","","","","",""
"","","","","","instructions","5","35094","0.0-5.0","3D4E5E7833FD49A7950FD30327F560C5","019d6637-a829-7ac1-aeee-9cbeff5e597f","019d6630-2071-75cb-8026-6699844a2719","[{""page_index"":0,""viewing_time"":5007}]","5008","","","","","","","","","","","","","","",""
"","","","","","html-keyboard-response","6","39108","0.0-6.0","3D4E5E7833FD49A7950FD30327F560C5","019d6637-a829-7ac1-aeee-9cbeff5e597f","019d6630-2071-75cb-8026-6699844a2719","","null","
                <div class=""stimulus-container"">
                    <img src=""images/instructions/movie_1.png"" class=""exp-image"">
                    <div class=""question-area""></div> 
                </div>","null","","","","","","","","","","","","",""
"","","","","","html-button-response","7","41498","0.0-7.0","3D4E5E7833FD49A7950FD30327F560C5","019d6637-a829-7ac1-aeee-9cbeff5e597f","019d6630-2071-75cb-8026-6699844a2719","","2387","
                <div class=""stimulus-container"">
                    <img src=""images/instructions/movie_1.png"" class=""exp-image"">
                    <div class=""question-area"">
                        <p style=""font-size: 20px; font-weight: bold; margin: 0;"">Was there a person in this image?</p>
                    </div>
                </div>","0","example_question","1","","","","","","","","","","",""
"","","","","","html-keyboard-response","8","45509","0.0-8.0","3D4E5E7833FD49A7950FD30327F560C5","019d6637-a829-7ac1-aeee-9cbeff5e597f","019d6630-2071-75cb-8026-6699844a2719","","null","
                <div class=""stimulus-container"">
                    <img src=""images/instructions/movie_2.png"" class=""exp-image"">
                    <div class=""question-area""></div> 
                </div>","null","","","","","","","","","","","","",""
"","","","","","html-button-response","9","46651","0.0-9.0","3D4E5E7833FD49A7950FD30327F560C5","019d6637-a829-7ac1-aeee-9cbeff5e597f","019d6630-2071-75cb-8026-6699844a2719","","1140","
                <div class=""stimulus-container"">
                    <img src=""images/instructions/movie_2.png"" class=""exp-image"">
                    <div class=""question-area"">
                        <p style=""font-size: 20px; font-weight: bold; margin: 0;"">Was there a person in this image?</p>
                    </div>
                </div>","0","example_question","2","","","","","","","","","","",""
"","","","","","html-keyboard-response","10","50665","0.0-10.0","3D4E5E7833FD49A7950FD30327F560C5","019d6637-a829-7ac1-aeee-9cbeff5e597f","019d6630-2071-75cb-8026-6699844a2719","","null","
                <div class=""stimulus-container"">
                    <img src=""images/instructions/movie_3.png"" class=""exp-image"">
                    <div class=""question-area""></div> 
                </div>","null","","","","","","","","","","","","",""
"","","","","","html-button-response","11","51922","0.0-11.0","3D4E5E7833FD49A7950FD30327F560C5","019d6637-a829-7ac1-aeee-9cbeff5e597f","019d6630-2071-75cb-8026-6699844a2719","","1255","
                <div class=""stimulus-container"">
                    <img src=""images/instructions/movie_3.png"" class=""exp-image"">
                    <div class=""question-area"">
                        <p style=""font-size: 20px; font-weight: bold; margin: 0;"">Was there a person in this image?</p>
                    </div>
                </div>","0","example_question","3","","","","","","","","","","",""
"","","","","","html-keyboard-response","12","55939","0.0-12.0","3D4E5E7833FD49A7950FD30327F560C5","019d6637-a829-7ac1-aeee-9cbeff5e597f","019d6630-2071-75cb-8026-6699844a2719","","null","
                <div class=""stimulus-container"">
                    <img src=""images/instructions/movie_4.png"" class=""exp-image"">
                    <div class=""question-area""></div> 
                </div>","null","","","","","","","","","","","","",""
"","","","","","html-button-response","13","57642","0.0-13.0","3D4E5E7833FD49A7950FD30327F560C5","019d6637-a829-7ac1-aeee-9cbeff5e597f","019d6630-2071-75cb-8026-6699844a2719","","1701","
                <div class=""stimulus-container"">
                    <img src=""images/instructions/movie_4.png"" class=""exp-image"">
                    <div class=""question-area"">
                        <p style=""font-size: 20px; font-weight: bold; margin: 0;"">Was there a person in this image?</p>
                    </div>
                </div>","0","example_question","4","","","","","","","","","","",""
"","","","","","instructions","14","60061","0.0-14.0","3D4E5E7833FD49A7950FD30327F560C5","019d6637-a829-7ac1-aeee-9cbeff5e597f","019d6630-2071-75cb-8026-6699844a2719","[{""page_index"":0,""viewing_time"":2419}]","2419","","","","","","","","","","","","","","",""
"","","","","","instructions","15","211455","0.0-15.0","3D4E5E7833FD49A7950FD30327F560C5","019d6637-a829-7ac1-aeee-9cbeff5e597f","019d6630-2071-75cb-8026-6699844a2719","[{""page_index"":0,""viewing_time"":151393}]","151393","","","","","","","","","","","","","","",""
"","","","","","html-keyboard-response","16","216461","0.0-16.0","3D4E5E7833FD49A7950FD30327F560C5","019d6637-a829-7ac1-aeee-9cbeff5e597f","019d6630-2071-75cb-8026-6699844a2719","","null","<div style=""background-color: white; width: 100vw; height: 100vh;""></div>","null","","","","","","","","","","","","",""
"","","","","","html-keyboard-response","17","221477","0.0-17.0","3D4E5E7833FD49A7950FD30327F560C5","019d6637-a829-7ac1-aeee-9cbeff5e597f","019d6630-2071-75cb-8026-6699844a2719","","null","
                <div class=""stimulus-container"">
                    <img src=""images/causal_sequence/saving_a_cat_causal/saving_a_cat_causal_1.png"" class=""exp-image"">
                    <div class=""question-area""></div> 
                </div>","null","","","","","","","","","","","","",""
"","","","","","html-button-response","18","222661","0.0-18.0","3D4E5E7833FD49A7950FD30327F560C5","019d6637-a829-7ac1-aeee-9cbeff5e597f","019d6630-2071-75cb-8026-6699844a2719","","1182","
                <div class=""stimulus-container"">
                    <img src=""images/causal_sequence/saving_a_cat_causal/saving_a_cat_causal_1.png"" class=""exp-image"">
                    <div class=""question-area"">
                        <p style=""font-size: 20px; font-weight: bold; margin: 0;"">Is there a person in this image?</p>
                    </div>
                </div>","0","main_experiment_trial","1","saving_a_cat_causal","causal_sequence","chronological","","","","","","","",""
"","","","","","html-keyboard-response","19","227677","0.0-19.0","3D4E5E7833FD49A7950FD30327F560C5","019d6637-a829-7ac1-aeee-9cbeff5e597f","019d6630-2071-75cb-8026-6699844a2719","","null","
                <div class=""stimulus-container"">
                    <img src=""images/causal_sequence/saving_a_cat_causal/saving_a_cat_causal_2.png"" class=""exp-image"">
                    <div class=""question-area""></div> 
                </div>","null","","","","","","","","","","","","",""
"","","","","","html-button-response","20","228551","0.0-20.0","3D4E5E7833FD49A7950FD30327F560C5","019d6637-a829-7ac1-aeee-9cbeff5e597f","019d6630-2071-75cb-8026-6699844a2719","","873","
                <div class=""stimulus-container"">
                    <img src=""images/causal_sequence/saving_a_cat_causal/saving_a_cat_causal_2.png"" class=""exp-image"">
                    <div class=""question-area"">
                        <p style=""font-size: 20px; font-weight: bold; margin: 0;"">Is there a person in this image?</p>
                    </div>
                </div>","1","main_experiment_trial","2","saving_a_cat_causal","causal_sequence","chronological","","","","","","","",""
"","","","","","html-keyboard-response","21","233557","0.0-21.0","3D4E5E7833FD49A7950FD30327F560C5","019d6637-a829-7ac1-aeee-9cbeff5e597f","019d6630-2071-75cb-8026-6699844a2719","","null","
                <div class=""stimulus-container"">
                    <img src=""images/causal_sequence/saving_a_cat_causal/saving_a_cat_causal_3.png"" class=""exp-image"">
                    <div class=""question-area""></div> 
                </div>","null","","","","","","","","","","","","",""
"","","","","","html-button-response","22","234929","0.0-22.0","3D4E5E7833FD49A7950FD30327F560C5","019d6637-a829-7ac1-aeee-9cbeff5e597f","019d6630-2071-75cb-8026-6699844a2719","","1370","
                <div class=""stimulus-container"">
                    <img src=""images/causal_sequence/saving_a_cat_causal/saving_a_cat_causal_3.png"" class=""exp-image"">
                    <div class=""question-area"">
                        <p style=""font-size: 20px; font-weight: bold; margin: 0;"">Is there a person in this image?</p>
                    </div>
                </div>","1","main_experiment_trial","3","saving_a_cat_causal","causal_sequence","chronological","","","","","","","",""
"","","","","","html-keyboard-response","23","239935","0.0-23.0","3D4E5E7833FD49A7950FD30327F560C5","019d6637-a829-7ac1-aeee-9cbeff5e597f","019d6630-2071-75cb-8026-6699844a2719","","null","
                <div class=""stimulus-container"">
                    <img src=""images/causal_sequence/saving_a_cat_causal/saving_a_cat_causal_4.png"" class=""exp-image"">
                    <div class=""question-area""></div> 
                </div>","null","","","","","","","","","","","","",""
"","","","","","html-button-response","24","240828","0.0-24.0","3D4E5E7833FD49A7950FD30327F560C5","019d6637-a829-7ac1-aeee-9cbeff5e597f","019d6630-2071-75cb-8026-6699844a2719","","892","
                <div class=""stimulus-container"">
                    <img src=""images/causal_sequence/saving_a_cat_causal/saving_a_cat_causal_4.png"" class=""exp-image"">
                    <div class=""question-area"">
                        <p style=""font-size: 20px; font-weight: bold; margin: 0;"">Is there a person in this image?</p>
                    </div>
                </div>","0","main_experiment_trial","4","saving_a_cat_causal","causal_sequence","chronological","","","","","","","",""
"","","","","","html-keyboard-response","25","245832","0.0-25.0","3D4E5E7833FD49A7950FD30327F560C5","019d6637-a829-7ac1-aeee-9cbeff5e597f","019d6630-2071-75cb-8026-6699844a2719","","null","
                <div class=""stimulus-container"">
                    <img src=""images/causal_sequence/saving_a_cat_causal/saving_a_cat_causal_5.png"" class=""exp-image"">
                    <div class=""question-area""></div> 
                </div>","null","","","","","","","","","","","","",""
"","","","","","html-button-response","26","246549","0.0-26.0","3D4E5E7833FD49A7950FD30327F560C5","019d6637-a829-7ac1-aeee-9cbeff5e597f","019d6630-2071-75cb-8026-6699844a2719","","716","
                <div class=""stimulus-container"">
                    <img src=""images/causal_sequence/saving_a_cat_causal/saving_a_cat_causal_5.png"" class=""exp-image"">
                    <div class=""question-area"">
                        <p style=""font-size: 20px; font-weight: bold; margin: 0;"">Is there a person in this image?</p>
                    </div>
                </div>","0","main_experiment_trial","5","saving_a_cat_causal","causal_sequence","chronological","","","","","","","",""
"","","","","","html-keyboard-response","27","251551","0.0-27.0","3D4E5E7833FD49A7950FD30327F560C5","019d6637-a829-7ac1-aeee-9cbeff5e597f","019d6630-2071-75cb-8026-6699844a2719","","null","
                <div class=""stimulus-container"">
                    <img src=""images/causal_sequence/saving_a_cat_causal/saving_a_cat_causal_6.png"" class=""exp-image"">
                    <div class=""question-area""></div> 
                </div>","null","","","","","","","","","","","","",""
"","","","","","html-button-response","28","252482","0.0-28.0","3D4E5E7833FD49A7950FD30327F560C5","019d6637-a829-7ac1-aeee-9cbeff5e597f","019d6630-2071-75cb-8026-6699844a2719","","930","
                <div class=""stimulus-container"">
                    <img src=""images/causal_sequence/saving_a_cat_causal/saving_a_cat_causal_6.png"" class=""exp-image"">
                    <div class=""question-area"">
                        <p style=""font-size: 20px; font-weight: bold; margin: 0;"">Is there a person in this image?</p>
                    </div>
                </div>","0","main_experiment_trial","6","saving_a_cat_causal","causal_sequence","chronological","","","","","","","",""
"","","","","","html-keyboard-response","29","257484","0.0-29.0","3D4E5E7833FD49A7950FD30327F560C5","019d6637-a829-7ac1-aeee-9cbeff5e597f","019d6630-2071-75cb-8026-6699844a2719","","null","
                <div class=""stimulus-container"">
                    <img src=""images/causal_sequence/saving_a_cat_causal/saving_a_cat_causal_7.png"" class=""exp-image"">
                    <div class=""question-area""></div> 
                </div>","null","","","","","","","","","","","","",""
"","","","","","html-button-response","30","258366","0.0-30.0","3D4E5E7833FD49A7950FD30327F560C5","019d6637-a829-7ac1-aeee-9cbeff5e597f","019d6630-2071-75cb-8026-6699844a2719","","881","
                <div class=""stimulus-container"">
                    <img src=""images/causal_sequence/saving_a_cat_causal/saving_a_cat_causal_7.png"" class=""exp-image"">
                    <div class=""question-area"">
                        <p style=""font-size: 20px; font-weight: bold; margin: 0;"">Is there a person in this image?</p>
                    </div>
                </div>","0","main_experiment_trial","7","saving_a_cat_causal","causal_sequence","chronological","","","","","","","",""
"","","","","","html-keyboard-response","31","263371","0.0-31.0","3D4E5E7833FD49A7950FD30327F560C5","019d6637-a829-7ac1-aeee-9cbeff5e597f","019d6630-2071-75cb-8026-6699844a2719","","null","
                <div class=""stimulus-container"">
                    <img src=""images/causal_sequence/saving_a_cat_causal/saving_a_cat_causal_8.png"" class=""exp-image"">
                    <div class=""question-area""></div> 
                </div>","null","","","","","","","","","","","","",""
"","","","","","html-button-response","32","264258","0.0-32.0","3D4E5E7833FD49A7950FD30327F560C5","019d6637-a829-7ac1-aeee-9cbeff5e597f","019d6630-2071-75cb-8026-6699844a2719","","885","
                <div class=""stimulus-container"">
                    <img src=""images/causal_sequence/saving_a_cat_causal/saving_a_cat_causal_8.png"" class=""exp-image"">
                    <div class=""question-area"">
                        <p style=""font-size: 20px; font-weight: bold; margin: 0;"">Is there a person in this image?</p>
                    </div>
                </div>","0","main_experiment_trial","8","saving_a_cat_causal","causal_sequence","chronological","","","","","","","",""
"","","","","","html-keyboard-response","33","269260","0.0-33.0","3D4E5E7833FD49A7950FD30327F560C5","019d6637-a829-7ac1-aeee-9cbeff5e597f","019d6630-2071-75cb-8026-6699844a2719","","null","
                <div class=""stimulus-container"">
                    <img src=""images/causal_sequence/saving_a_cat_causal/saving_a_cat_causal_9.png"" class=""exp-image"">
                    <div class=""question-area""></div> 
                </div>","null","","","","","","","","","","","","",""
"","","","","","html-button-response","34","269811","0.0-34.0","3D4E5E7833FD49A7950FD30327F560C5","019d6637-a829-7ac1-aeee-9cbeff5e597f","019d6630-2071-75cb-8026-6699844a2719","","549","
                <div class=""stimulus-container"">
                    <img src=""images/causal_sequence/saving_a_cat_causal/saving_a_cat_causal_9.png"" class=""exp-image"">
                    <div class=""question-area"">
                        <p style=""font-size: 20px; font-weight: bold; margin: 0;"">Is there a person in this image?</p>
                    </div>
                </div>","0","main_experiment_trial","9","saving_a_cat_causal","causal_sequence","chronological","","","","","","","",""
"","","","","","html-keyboard-response","35","274813","0.0-35.0","3D4E5E7833FD49A7950FD30327F560C5","019d6637-a829-7ac1-aeee-9cbeff5e597f","019d6630-2071-75cb-8026-6699844a2719","","null","
                <div class=""stimulus-container"">
                    <img src=""images/causal_sequence/saving_a_cat_causal/saving_a_cat_causal_ten.png"" class=""exp-image"">
                    <div class=""question-area""></div> 
                </div>","null","","","","","","","","","","","","",""
"","","","","","html-button-response","36","275363","0.0-36.0","3D4E5E7833FD49A7950FD30327F560C5","019d6637-a829-7ac1-aeee-9cbeff5e597f","019d6630-2071-75cb-8026-6699844a2719","","548","
                <div class=""stimulus-container"">
                    <img src=""images/causal_sequence/saving_a_cat_causal/saving_a_cat_causal_ten.png"" class=""exp-image"">
                    <div class=""question-area"">
                        <p style=""font-size: 20px; font-weight: bold; margin: 0;"">Is there a person in this image?</p>
                    </div>
                </div>","0","main_experiment_trial","ten","saving_a_cat_causal","causal_sequence","chronological","","","","","","","",""
"","","","","","html-keyboard-response","37","280376","0.0-37.0","3D4E5E7833FD49A7950FD30327F560C5","019d6637-a829-7ac1-aeee-9cbeff5e597f","019d6630-2071-75cb-8026-6699844a2719","","null","<div style=""background-color: white; width: 100vw; height: 100vh;""></div>","null","","","","","","","","","","","","",""
"","","","","","html-keyboard-response","38","285379","0.0-38.0","3D4E5E7833FD49A7950FD30327F560C5","019d6637-a829-7ac1-aeee-9cbeff5e597f","019d6630-2071-75cb-8026-6699844a2719","","null","
                <div class=""stimulus-container"">
                    <img src=""images/schematic_sequence/restaurant_scheme/restaurant_scheme_1.png"" class=""exp-image"">
                    <div class=""question-area""></div> 
                </div>","null","","","","","","","","","","","","",""
"","","","","","html-button-response","39","285842","0.0-39.0","3D4E5E7833FD49A7950FD30327F560C5","019d6637-a829-7ac1-aeee-9cbeff5e597f","019d6630-2071-75cb-8026-6699844a2719","","461","
                <div class=""stimulus-container"">
                    <img src=""images/schematic_sequence/restaurant_scheme/restaurant_scheme_1.png"" class=""exp-image"">
                    <div class=""question-area"">
                        <p style=""font-size: 20px; font-weight: bold; margin: 0;"">Is there a person in this image?</p>
                    </div>
                </div>","0","main_experiment_trial","1","restaurant_scheme","schematic_sequence","chronological","","","","","","","",""
"","","","","","html-keyboard-response","40","290844","0.0-40.0","3D4E5E7833FD49A7950FD30327F560C5","019d6637-a829-7ac1-aeee-9cbeff5e597f","019d6630-2071-75cb-8026-6699844a2719","","null","
                <div class=""stimulus-container"">
                    <img src=""images/schematic_sequence/restaurant_scheme/restaurant_scheme_2.png"" class=""exp-image"">
                    <div class=""question-area""></div> 
                </div>","null","","","","","","","","","","","","",""
"","","","","","html-button-response","41","292083","0.0-41.0","3D4E5E7833FD49A7950FD30327F560C5","019d6637-a829-7ac1-aeee-9cbeff5e597f","019d6630-2071-75cb-8026-6699844a2719","","1237","
                <div class=""stimulus-container"">
                    <img src=""images/schematic_sequence/restaurant_scheme/restaurant_scheme_2.png"" class=""exp-image"">
                    <div class=""question-area"">
                        <p style=""font-size: 20px; font-weight: bold; margin: 0;"">Is there a person in this image?</p>
                    </div>
                </div>","1","main_experiment_trial","2","restaurant_scheme","schematic_sequence","chronological","","","","","","","",""
"","","","","","html-keyboard-response","42","297096","0.0-42.0","3D4E5E7833FD49A7950FD30327F560C5","019d6637-a829-7ac1-aeee-9cbeff5e597f","019d6630-2071-75cb-8026-6699844a2719","","null","
                <div class=""stimulus-container"">
                    <img src=""images/schematic_sequence/restaurant_scheme/restaurant_scheme_3.png"" class=""exp-image"">
                    <div class=""question-area""></div> 
                </div>","null","","","","","","","","","","","","",""
"","","","","","html-button-response","43","298007","0.0-43.0","3D4E5E7833FD49A7950FD30327F560C5","019d6637-a829-7ac1-aeee-9cbeff5e597f","019d6630-2071-75cb-8026-6699844a2719","","910","
                <div class=""stimulus-container"">
                    <img src=""images/schematic_sequence/restaurant_scheme/restaurant_scheme_3.png"" class=""exp-image"">
                    <div class=""question-area"">
                        <p style=""font-size: 20px; font-weight: bold; margin: 0;"">Is there a person in this image?</p>
                    </div>
                </div>","1","main_experiment_trial","3","restaurant_scheme","schematic_sequence","chronological","","","","","","","",""
"","","","","","html-keyboard-response","44","303010","0.0-44.0","3D4E5E7833FD49A7950FD30327F560C5","019d6637-a829-7ac1-aeee-9cbeff5e597f","019d6630-2071-75cb-8026-6699844a2719","","null","
                <div class=""stimulus-container"">
                    <img src=""images/schematic_sequence/restaurant_scheme/restaurant_scheme_4.png"" class=""exp-image"">
                    <div class=""question-area""></div> 
                </div>","null","","","","","","","","","","","","",""
"","","","","","html-button-response","45","303867","0.0-45.0","3D4E5E7833FD49A7950FD30327F560C5","019d6637-a829-7ac1-aeee-9cbeff5e597f","019d6630-2071-75cb-8026-6699844a2719","","855","
                <div class=""stimulus-container"">
                    <img src=""images/schematic_sequence/restaurant_scheme/restaurant_scheme_4.png"" class=""exp-image"">
                    <div class=""question-area"">
                        <p style=""font-size: 20px; font-weight: bold; margin: 0;"">Is there a person in this image?</p>
                    </div>
                </div>","0","main_experiment_trial","4","restaurant_scheme","schematic_sequence","chronological","","","","","","","",""
"","","","","","html-keyboard-response","46","308872","0.0-46.0","3D4E5E7833FD49A7950FD30327F560C5","019d6637-a829-7ac1-aeee-9cbeff5e597f","019d6630-2071-75cb-8026-6699844a2719","","null","
                <div class=""stimulus-container"">
                    <img src=""images/schematic_sequence/restaurant_scheme/restaurant_scheme_5.png"" class=""exp-image"">
                    <div class=""question-area""></div> 
                </div>","null","","","","","","","","","","","","",""
"","","","","","html-button-response","47","309991","0.0-47.0","3D4E5E7833FD49A7950FD30327F560C5","019d6637-a829-7ac1-aeee-9cbeff5e597f","019d6630-2071-75cb-8026-6699844a2719","","1117","
                <div class=""stimulus-container"">
                    <img src=""images/schematic_sequence/restaurant_scheme/restaurant_scheme_5.png"" class=""exp-image"">
                    <div class=""question-area"">
                        <p style=""font-size: 20px; font-weight: bold; margin: 0;"">Is there a person in this image?</p>
                    </div>
                </div>","0","main_experiment_trial","5","restaurant_scheme","schematic_sequence","chronological","","","","","","","",""
"","","","","","html-keyboard-response","48","315001","0.0-48.0","3D4E5E7833FD49A7950FD30327F560C5","019d6637-a829-7ac1-aeee-9cbeff5e597f","019d6630-2071-75cb-8026-6699844a2719","","null","
                <div class=""stimulus-container"">
                    <img src=""images/schematic_sequence/restaurant_scheme/restaurant_scheme_6.png"" class=""exp-image"">
                    <div class=""question-area""></div> 
                </div>","null","","","","","","","","","","","","",""
"","","","","","html-button-response","49","315956","0.0-49.0","3D4E5E7833FD49A7950FD30327F560C5","019d6637-a829-7ac1-aeee-9cbeff5e597f","019d6630-2071-75cb-8026-6699844a2719","","953","
                <div class=""stimulus-container"">
                    <img src=""images/schematic_sequence/restaurant_scheme/restaurant_scheme_6.png"" class=""exp-image"">
                    <div class=""question-area"">
                        <p style=""font-size: 20px; font-weight: bold; margin: 0;"">Is there a person in this image?</p>
                    </div>
                </div>","1","main_experiment_trial","6","restaurant_scheme","schematic_sequence","chronological","","","","","","","",""
"","","","","","html-keyboard-response","50","320958","0.0-50.0","3D4E5E7833FD49A7950FD30327F560C5","019d6637-a829-7ac1-aeee-9cbeff5e597f","019d6630-2071-75cb-8026-6699844a2719","","null","
                <div class=""stimulus-container"">
                    <img src=""images/schematic_sequence/restaurant_scheme/restaurant_scheme_7.png"" class=""exp-image"">
                    <div class=""question-area""></div> 
                </div>","null","","","","","","","","","","","","",""
"","","","","","html-button-response","51","322070","0.0-51.0","3D4E5E7833FD49A7950FD30327F560C5","019d6637-a829-7ac1-aeee-9cbeff5e597f","019d6630-2071-75cb-8026-6699844a2719","","1110","
                <div class=""stimulus-container"">
                    <img src=""images/schematic_sequence/restaurant_scheme/restaurant_scheme_7.png"" class=""exp-image"">
                    <div class=""question-area"">
                        <p style=""font-size: 20px; font-weight: bold; margin: 0;"">Is there a person in this image?</p>
                    </div>
                </div>","1","main_experiment_trial","7","restaurant_scheme","schematic_sequence","chronological","","","","","","","",""
"","","","","","html-keyboard-response","52","327071","0.0-52.0","3D4E5E7833FD49A7950FD30327F560C5","019d6637-a829-7ac1-aeee-9cbeff5e597f","019d6630-2071-75cb-8026-6699844a2719","","null","
                <div class=""stimulus-container"">
                    <img src=""images/schematic_sequence/restaurant_scheme/restaurant_scheme_8.png"" class=""exp-image"">
                    <div class=""question-area""></div> 
                </div>","null","","","","","","","","","","","","",""
"","","","","","html-button-response","53","327683","0.0-53.0","3D4E5E7833FD49A7950FD30327F560C5","019d6637-a829-7ac1-aeee-9cbeff5e597f","019d6630-2071-75cb-8026-6699844a2719","","610","
                <div class=""stimulus-container"">
                    <img src=""images/schematic_sequence/restaurant_scheme/restaurant_scheme_8.png"" class=""exp-image"">
                    <div class=""question-area"">
                        <p style=""font-size: 20px; font-weight: bold; margin: 0;"">Is there a person in this image?</p>
                    </div>
                </div>","0","main_experiment_trial","8","restaurant_scheme","schematic_sequence","chronological","","","","","","","",""
"","","","","","html-keyboard-response","54","332685","0.0-54.0","3D4E5E7833FD49A7950FD30327F560C5","019d6637-a829-7ac1-aeee-9cbeff5e597f","019d6630-2071-75cb-8026-6699844a2719","","null","
                <div class=""stimulus-container"">
                    <img src=""images/schematic_sequence/restaurant_scheme/restaurant_scheme_9.png"" class=""exp-image"">
                    <div class=""question-area""></div> 
                </div>","null","","","","","","","","","","","","",""
"","","","","","html-button-response","55","333506","0.0-55.0","3D4E5E7833FD49A7950FD30327F560C5","019d6637-a829-7ac1-aeee-9cbeff5e597f","019d6630-2071-75cb-8026-6699844a2719","","820","
                <div class=""stimulus-container"">
                    <img src=""images/schematic_sequence/restaurant_scheme/restaurant_scheme_9.png"" class=""exp-image"">
                    <div class=""question-area"">
                        <p style=""font-size: 20px; font-weight: bold; margin: 0;"">Is there a person in this image?</p>
                    </div>
                </div>","0","main_experiment_trial","9","restaurant_scheme","schematic_sequence","chronological","","","","","","","",""
"","","","","","html-keyboard-response","56","338511","0.0-56.0","3D4E5E7833FD49A7950FD30327F560C5","019d6637-a829-7ac1-aeee-9cbeff5e597f","019d6630-2071-75cb-8026-6699844a2719","","null","
                <div class=""stimulus-container"">
                    <img src=""images/schematic_sequence/restaurant_scheme/restaurant_scheme_ten.png"" class=""exp-image"">
                    <div class=""question-area""></div> 
                </div>","null","","","","","","","","","","","","",""
"","","","","","html-button-response","57","339199","0.0-57.0","3D4E5E7833FD49A7950FD30327F560C5","019d6637-a829-7ac1-aeee-9cbeff5e597f","019d6630-2071-75cb-8026-6699844a2719","","686","
                <div class=""stimulus-container"">
                    <img src=""images/schematic_sequence/restaurant_scheme/restaurant_scheme_ten.png"" class=""exp-image"">
                    <div class=""question-area"">
                        <p style=""font-size: 20px; font-weight: bold; margin: 0;"">Is there a person in this image?</p>
                    </div>
                </div>","0","main_experiment_trial","ten","restaurant_scheme","schematic_sequence","chronological","","","","","","","",""
"","","","","","html-keyboard-response","58","344200","0.0-58.0","3D4E5E7833FD49A7950FD30327F560C5","019d6637-a829-7ac1-aeee-9cbeff5e597f","019d6630-2071-75cb-8026-6699844a2719","","null","<div style=""background-color: white; width: 100vw; height: 100vh;""></div>","null","","","","","","","","","","","","",""
"","","","","","html-keyboard-response","59","349203","0.0-59.0","3D4E5E7833FD49A7950FD30327F560C5","019d6637-a829-7ac1-aeee-9cbeff5e597f","019d6630-2071-75cb-8026-6699844a2719","","null","
                <div class=""stimulus-container"">
                    <img src=""images/schematic_sequence/dinner_party_scheme/dinner_party_scheme_1.png"" class=""exp-image"">
                    <div class=""question-area""></div> 
                </div>","null","","","","","","","","","","","","",""
"","","","","","html-button-response","60","349880","0.0-60.0","3D4E5E7833FD49A7950FD30327F560C5","019d6637-a829-7ac1-aeee-9cbeff5e597f","019d6630-2071-75cb-8026-6699844a2719","","676","
                <div class=""stimulus-container"">
                    <img src=""images/schematic_sequence/dinner_party_scheme/dinner_party_scheme_1.png"" class=""exp-image"">
                    <div class=""question-area"">
                        <p style=""font-size: 20px; font-weight: bold; margin: 0;"">Is there a person in this image?</p>
                    </div>
                </div>","0","main_experiment_trial","1","dinner_party_scheme","schematic_sequence","chronological","","","","","","","",""
"","","","","","html-keyboard-response","61","354882","0.0-61.0","3D4E5E7833FD49A7950FD30327F560C5","019d6637-a829-7ac1-aeee-9cbeff5e597f","019d6630-2071-75cb-8026-6699844a2719","","null","
                <div class=""stimulus-container"">
                    <img src=""images/schematic_sequence/dinner_party_scheme/dinner_party_scheme_2.png"" class=""exp-image"">
                    <div class=""question-area""></div> 
                </div>","null","","","","","","","","","","","","",""
"","","","","","html-button-response","62","355870","0.0-62.0","3D4E5E7833FD49A7950FD30327F560C5","019d6637-a829-7ac1-aeee-9cbeff5e597f","019d6630-2071-75cb-8026-6699844a2719","","986","
                <div class=""stimulus-container"">
                    <img src=""images/schematic_sequence/dinner_party_scheme/dinner_party_scheme_2.png"" class=""exp-image"">
                    <div class=""question-area"">
                        <p style=""font-size: 20px; font-weight: bold; margin: 0;"">Is there a person in this image?</p>
                    </div>
                </div>","0","main_experiment_trial","2","dinner_party_scheme","schematic_sequence","chronological","","","","","","","",""
"","","","","","html-keyboard-response","63","360872","0.0-63.0","3D4E5E7833FD49A7950FD30327F560C5","019d6637-a829-7ac1-aeee-9cbeff5e597f","019d6630-2071-75cb-8026-6699844a2719","","null","
                <div class=""stimulus-container"">
                    <img src=""images/schematic_sequence/dinner_party_scheme/dinner_party_scheme_3.png"" class=""exp-image"">
                    <div class=""question-area""></div> 
                </div>","null","","","","","","","","","","","","",""
"","","","","","html-button-response","64","361397","0.0-64.0","3D4E5E7833FD49A7950FD30327F560C5","019d6637-a829-7ac1-aeee-9cbeff5e597f","019d6630-2071-75cb-8026-6699844a2719","","524","
                <div class=""stimulus-container"">
                    <img src=""images/schematic_sequence/dinner_party_scheme/dinner_party_scheme_3.png"" class=""exp-image"">
                    <div class=""question-area"">
                        <p style=""font-size: 20px; font-weight: bold; margin: 0;"">Is there a person in this image?</p>
                    </div>
                </div>","0","main_experiment_trial","3","dinner_party_scheme","schematic_sequence","chronological","","","","","","","",""
"","","","","","html-keyboard-response","65","366410","0.0-65.0","3D4E5E7833FD49A7950FD30327F560C5","019d6637-a829-7ac1-aeee-9cbeff5e597f","019d6630-2071-75cb-8026-6699844a2719","","null","
                <div class=""stimulus-container"">
                    <img src=""images/schematic_sequence/dinner_party_scheme/dinner_party_scheme_4.png"" class=""exp-image"">
                    <div class=""question-area""></div> 
                </div>","null","","","","","","","","","","","","",""
"","","","","","html-button-response","66","367576","0.0-66.0","3D4E5E7833FD49A7950FD30327F560C5","019d6637-a829-7ac1-aeee-9cbeff5e597f","019d6630-2071-75cb-8026-6699844a2719","","1165","
                <div class=""stimulus-container"">
                    <img src=""images/schematic_sequence/dinner_party_scheme/dinner_party_scheme_4.png"" class=""exp-image"">
                    <div class=""question-area"">
                        <p style=""font-size: 20px; font-weight: bold; margin: 0;"">Is there a person in this image?</p>
                    </div>
                </div>","0","main_experiment_trial","4","dinner_party_scheme","schematic_sequence","chronological","","","","","","","",""
"","","","","","html-keyboard-response","67","372584","0.0-67.0","3D4E5E7833FD49A7950FD30327F560C5","019d6637-a829-7ac1-aeee-9cbeff5e597f","019d6630-2071-75cb-8026-6699844a2719","","null","
                <div class=""stimulus-container"">
                    <img src=""images/schematic_sequence/dinner_party_scheme/dinner_party_scheme_5.png"" class=""exp-image"">
                    <div class=""question-area""></div> 
                </div>","null","","","","","","","","","","","","",""
"","","","","","html-button-response","68","373659","0.0-68.0","3D4E5E7833FD49A7950FD30327F560C5","019d6637-a829-7ac1-aeee-9cbeff5e597f","019d6630-2071-75cb-8026-6699844a2719","","1073","
                <div class=""stimulus-container"">
                    <img src=""images/schematic_sequence/dinner_party_scheme/dinner_party_scheme_5.png"" class=""exp-image"">
                    <div class=""question-area"">
                        <p style=""font-size: 20px; font-weight: bold; margin: 0;"">Is there a person in this image?</p>
                    </div>
                </div>","0","main_experiment_trial","5","dinner_party_scheme","schematic_sequence","chronological","","","","","","","",""
"","","","","","html-keyboard-response","69","378674","0.0-69.0","3D4E5E7833FD49A7950FD30327F560C5","019d6637-a829-7ac1-aeee-9cbeff5e597f","019d6630-2071-75cb-8026-6699844a2719","","null","
                <div class=""stimulus-container"">
                    <img src=""images/schematic_sequence/dinner_party_scheme/dinner_party_scheme_6.png"" class=""exp-image"">
                    <div class=""question-area""></div> 
                </div>","null","","","","","","","","","","","","",""
"","","","","","html-button-response","70","379744","0.0-70.0","3D4E5E7833FD49A7950FD30327F560C5","019d6637-a829-7ac1-aeee-9cbeff5e597f","019d6630-2071-75cb-8026-6699844a2719","","1069","
                <div class=""stimulus-container"">
                    <img src=""images/schematic_sequence/dinner_party_scheme/dinner_party_scheme_6.png"" class=""exp-image"">
                    <div class=""question-area"">
                        <p style=""font-size: 20px; font-weight: bold; margin: 0;"">Is there a person in this image?</p>
                    </div>
                </div>","0","main_experiment_trial","6","dinner_party_scheme","schematic_sequence","chronological","","","","","","","",""
"","","","","","html-keyboard-response","71","384745","0.0-71.0","3D4E5E7833FD49A7950FD30327F560C5","019d6637-a829-7ac1-aeee-9cbeff5e597f","019d6630-2071-75cb-8026-6699844a2719","","null","
                <div class=""stimulus-container"">
                    <img src=""images/schematic_sequence/dinner_party_scheme/dinner_party_scheme_7.png"" class=""exp-image"">
                    <div class=""question-area""></div> 
                </div>","null","","","","","","","","","","","","",""
"","","","","","html-button-response","72","385786","0.0-72.0","3D4E5E7833FD49A7950FD30327F560C5","019d6637-a829-7ac1-aeee-9cbeff5e597f","019d6630-2071-75cb-8026-6699844a2719","","1039","
                <div class=""stimulus-container"">
                    <img src=""images/schematic_sequence/dinner_party_scheme/dinner_party_scheme_7.png"" class=""exp-image"">
                    <div class=""question-area"">
                        <p style=""font-size: 20px; font-weight: bold; margin: 0;"">Is there a person in this image?</p>
                    </div>
                </div>","0","main_experiment_trial","7","dinner_party_scheme","schematic_sequence","chronological","","","","","","","",""
"","","","","","html-keyboard-response","73","390787","0.0-73.0","3D4E5E7833FD49A7950FD30327F560C5","019d6637-a829-7ac1-aeee-9cbeff5e597f","019d6630-2071-75cb-8026-6699844a2719","","null","
                <div class=""stimulus-container"">
                    <img src=""images/schematic_sequence/dinner_party_scheme/dinner_party_scheme_8.png"" class=""exp-image"">
                    <div class=""question-area""></div> 
                </div>","null","","","","","","","","","","","","",""
"","","","","","html-button-response","74","391407","0.0-74.0","3D4E5E7833FD49A7950FD30327F560C5","019d6637-a829-7ac1-aeee-9cbeff5e597f","019d6630-2071-75cb-8026-6699844a2719","","619","
                <div class=""stimulus-container"">
                    <img src=""images/schematic_sequence/dinner_party_scheme/dinner_party_scheme_8.png"" class=""exp-image"">
                    <div class=""question-area"">
                        <p style=""font-size: 20px; font-weight: bold; margin: 0;"">Is there a person in this image?</p>
                    </div>
                </div>","0","main_experiment_trial","8","dinner_party_scheme","schematic_sequence","chronological","","","","","","","",""
"","","","","","html-keyboard-response","75","396408","0.0-75.0","3D4E5E7833FD49A7950FD30327F560C5","019d6637-a829-7ac1-aeee-9cbeff5e597f","019d6630-2071-75cb-8026-6699844a2719","","null","
                <div class=""stimulus-container"">
                    <img src=""images/schematic_sequence/dinner_party_scheme/dinner_party_scheme_9.png"" class=""exp-image"">
                    <div class=""question-area""></div> 
                </div>","null","","","","","","","","","","","","",""
"","","","","","html-button-response","76","397807","0.0-76.0","3D4E5E7833FD49A7950FD30327F560C5","019d6637-a829-7ac1-aeee-9cbeff5e597f","019d6630-2071-75cb-8026-6699844a2719","","1398","
                <div class=""stimulus-container"">
                    <img src=""images/schematic_sequence/dinner_party_scheme/dinner_party_scheme_9.png"" class=""exp-image"">
                    <div class=""question-area"">
                        <p style=""font-size: 20px; font-weight: bold; margin: 0;"">Is there a person in this image?</p>
                    </div>
                </div>","0","main_experiment_trial","9","dinner_party_scheme","schematic_sequence","chronological","","","","","","","",""
"","","","","","html-keyboard-response","77","402816","0.0-77.0","3D4E5E7833FD49A7950FD30327F560C5","019d6637-a829-7ac1-aeee-9cbeff5e597f","019d6630-2071-75cb-8026-6699844a2719","","null","
                <div class=""stimulus-container"">
                    <img src=""images/schematic_sequence/dinner_party_scheme/dinner_party_scheme_ten.png"" class=""exp-image"">
                    <div class=""question-area""></div> 
                </div>","null","","","","","","","","","","","","",""
"","","","","","html-button-response","78","404876","0.0-78.0","3D4E5E7833FD49A7950FD30327F560C5","019d6637-a829-7ac1-aeee-9cbeff5e597f","019d6630-2071-75cb-8026-6699844a2719","","2058","
                <div class=""stimulus-container"">
                    <img src=""images/schematic_sequence/dinner_party_scheme/dinner_party_scheme_ten.png"" class=""exp-image"">
                    <div class=""question-area"">
                        <p style=""font-size: 20px; font-weight: bold; margin: 0;"">Is there a person in this image?</p>
                    </div>
                </div>","0","main_experiment_trial","ten","dinner_party_scheme","schematic_sequence","chronological","","","","","","","",""
"","","","","","html-keyboard-response","79","409888","0.0-79.0","3D4E5E7833FD49A7950FD30327F560C5","019d6637-a829-7ac1-aeee-9cbeff5e597f","019d6630-2071-75cb-8026-6699844a2719","","null","<div style=""background-color: white; width: 100vw; height: 100vh;""></div>","null","","","","","","","","","","","","",""
"","","","","","html-keyboard-response","80","414892","0.0-80.0","3D4E5E7833FD49A7950FD30327F560C5","019d6637-a829-7ac1-aeee-9cbeff5e597f","019d6630-2071-75cb-8026-6699844a2719","","null","
                <div class=""stimulus-container"">
                    <img src=""images/semantic_sequence/housework_semantic/housework_semantic_1.png"" class=""exp-image"">
                    <div class=""question-area""></div> 
                </div>","null","","","","","","","","","","","","",""
"","","","","","html-button-response","81","415522","0.0-81.0","3D4E5E7833FD49A7950FD30327F560C5","019d6637-a829-7ac1-aeee-9cbeff5e597f","019d6630-2071-75cb-8026-6699844a2719","","628","
                <div class=""stimulus-container"">
                    <img src=""images/semantic_sequence/housework_semantic/housework_semantic_1.png"" class=""exp-image"">
                    <div class=""question-area"">
                        <p style=""font-size: 20px; font-weight: bold; margin: 0;"">Is there a person in this image?</p>
                    </div>
                </div>","0","main_experiment_trial","1","housework_semantic","semantic_sequence","chronological","","","","","","","",""
"","","","","","html-keyboard-response","82","420523","0.0-82.0","3D4E5E7833FD49A7950FD30327F560C5","019d6637-a829-7ac1-aeee-9cbeff5e597f","019d6630-2071-75cb-8026-6699844a2719","","null","
                <div class=""stimulus-container"">
                    <img src=""images/semantic_sequence/housework_semantic/housework_semantic_2.png"" class=""exp-image"">
                    <div class=""question-area""></div> 
                </div>","null","","","","","","","","","","","","",""
"","","","","","html-button-response","83","421190","0.0-83.0","3D4E5E7833FD49A7950FD30327F560C5","019d6637-a829-7ac1-aeee-9cbeff5e597f","019d6630-2071-75cb-8026-6699844a2719","","665","
                <div class=""stimulus-container"">
                    <img src=""images/semantic_sequence/housework_semantic/housework_semantic_2.png"" class=""exp-image"">
                    <div class=""question-area"">
                        <p style=""font-size: 20px; font-weight: bold; margin: 0;"">Is there a person in this image?</p>
                    </div>
                </div>","0","main_experiment_trial","2","housework_semantic","semantic_sequence","chronological","","","","","","","",""
"","","","","","html-keyboard-response","84","426204","0.0-84.0","3D4E5E7833FD49A7950FD30327F560C5","019d6637-a829-7ac1-aeee-9cbeff5e597f","019d6630-2071-75cb-8026-6699844a2719","","null","
                <div class=""stimulus-container"">
                    <img src=""images/semantic_sequence/housework_semantic/housework_semantic_3.png"" class=""exp-image"">
                    <div class=""question-area""></div> 
                </div>","null","","","","","","","","","","","","",""
"","","","","","html-button-response","85","426972","0.0-85.0","3D4E5E7833FD49A7950FD30327F560C5","019d6637-a829-7ac1-aeee-9cbeff5e597f","019d6630-2071-75cb-8026-6699844a2719","","766","
                <div class=""stimulus-container"">
                    <img src=""images/semantic_sequence/housework_semantic/housework_semantic_3.png"" class=""exp-image"">
                    <div class=""question-area"">
                        <p style=""font-size: 20px; font-weight: bold; margin: 0;"">Is there a person in this image?</p>
                    </div>
                </div>","0","main_experiment_trial","3","housework_semantic","semantic_sequence","chronological","","","","","","","",""
"","","","","","html-keyboard-response","86","431981","0.0-86.0","3D4E5E7833FD49A7950FD30327F560C5","019d6637-a829-7ac1-aeee-9cbeff5e597f","019d6630-2071-75cb-8026-6699844a2719","","null","
                <div class=""stimulus-container"">
                    <img src=""images/semantic_sequence/housework_semantic/housework_semantic_4.png"" class=""exp-image"">
                    <div class=""question-area""></div> 
                </div>","null","","","","","","","","","","","","",""
"","","","","","html-button-response","87","433985","0.0-87.0","3D4E5E7833FD49A7950FD30327F560C5","019d6637-a829-7ac1-aeee-9cbeff5e597f","019d6630-2071-75cb-8026-6699844a2719","","2003","
                <div class=""stimulus-container"">
                    <img src=""images/semantic_sequence/housework_semantic/housework_semantic_4.png"" class=""exp-image"">
                    <div class=""question-area"">
                        <p style=""font-size: 20px; font-weight: bold; margin: 0;"">Is there a person in this image?</p>
                    </div>
                </div>","0","main_experiment_trial","4","housework_semantic","semantic_sequence","chronological","","","","","","","",""
"","","","","","html-keyboard-response","88","438987","0.0-88.0","3D4E5E7833FD49A7950FD30327F560C5","019d6637-a829-7ac1-aeee-9cbeff5e597f","019d6630-2071-75cb-8026-6699844a2719","","null","
                <div class=""stimulus-container"">
                    <img src=""images/semantic_sequence/housework_semantic/housework_semantic_5.png"" class=""exp-image"">
                    <div class=""question-area""></div> 
                </div>","null","","","","","","","","","","","","",""
"","","","","","html-button-response","89","439697","0.0-89.0","3D4E5E7833FD49A7950FD30327F560C5","019d6637-a829-7ac1-aeee-9cbeff5e597f","019d6630-2071-75cb-8026-6699844a2719","","709","
                <div class=""stimulus-container"">
                    <img src=""images/semantic_sequence/housework_semantic/housework_semantic_5.png"" class=""exp-image"">
                    <div class=""question-area"">
                        <p style=""font-size: 20px; font-weight: bold; margin: 0;"">Is there a person in this image?</p>
                    </div>
                </div>","0","main_experiment_trial","5","housework_semantic","semantic_sequence","chronological","","","","","","","",""
"","","","","","html-keyboard-response","90","444713","0.0-90.0","3D4E5E7833FD49A7950FD30327F560C5","019d6637-a829-7ac1-aeee-9cbeff5e597f","019d6630-2071-75cb-8026-6699844a2719","","null","
                <div class=""stimulus-container"">
                    <img src=""images/semantic_sequence/housework_semantic/housework_semantic_6.png"" class=""exp-image"">
                    <div class=""question-area""></div> 
                </div>","null","","","","","","","","","","","","",""
"","","","","","html-button-response","91","445444","0.0-91.0","3D4E5E7833FD49A7950FD30327F560C5","019d6637-a829-7ac1-aeee-9cbeff5e597f","019d6630-2071-75cb-8026-6699844a2719","","730","
                <div class=""stimulus-container"">
                    <img src=""images/semantic_sequence/housework_semantic/housework_semantic_6.png"" class=""exp-image"">
                    <div class=""question-area"">
                        <p style=""font-size: 20px; font-weight: bold; margin: 0;"">Is there a person in this image?</p>
                    </div>
                </div>","0","main_experiment_trial","6","housework_semantic","semantic_sequence","chronological","","","","","","","",""
"","","","","","html-keyboard-response","92","450450","0.0-92.0","3D4E5E7833FD49A7950FD30327F560C5","019d6637-a829-7ac1-aeee-9cbeff5e597f","019d6630-2071-75cb-8026-6699844a2719","","null","
                <div class=""stimulus-container"">
                    <img src=""images/semantic_sequence/housework_semantic/housework_semantic_7.png"" class=""exp-image"">
                    <div class=""question-area""></div> 
                </div>","null","","","","","","","","","","","","",""
"","","","","","html-button-response","93","451905","0.0-93.0","3D4E5E7833FD49A7950FD30327F560C5","019d6637-a829-7ac1-aeee-9cbeff5e597f","019d6630-2071-75cb-8026-6699844a2719","","1452","
                <div class=""stimulus-container"">
                    <img src=""images/semantic_sequence/housework_semantic/housework_semantic_7.png"" class=""exp-image"">
                    <div class=""question-area"">
                        <p style=""font-size: 20px; font-weight: bold; margin: 0;"">Is there a person in this image?</p>
                    </div>
                </div>","0","main_experiment_trial","7","housework_semantic","semantic_sequence","chronological","","","","","","","",""
"","","","","","html-keyboard-response","94","456907","0.0-94.0","3D4E5E7833FD49A7950FD30327F560C5","019d6637-a829-7ac1-aeee-9cbeff5e597f","019d6630-2071-75cb-8026-6699844a2719","","null","
                <div class=""stimulus-container"">
                    <img src=""images/semantic_sequence/housework_semantic/housework_semantic_8.png"" class=""exp-image"">
                    <div class=""question-area""></div> 
                </div>","null","","","","","","","","","","","","",""
"","","","","","html-button-response","95","457517","0.0-95.0","3D4E5E7833FD49A7950FD30327F560C5","019d6637-a829-7ac1-aeee-9cbeff5e597f","019d6630-2071-75cb-8026-6699844a2719","","608","
                <div class=""stimulus-container"">
                    <img src=""images/semantic_sequence/housework_semantic/housework_semantic_8.png"" class=""exp-image"">
                    <div class=""question-area"">
                        <p style=""font-size: 20px; font-weight: bold; margin: 0;"">Is there a person in this image?</p>
                    </div>
                </div>","0","main_experiment_trial","8","housework_semantic","semantic_sequence","chronological","","","","","","","",""
"","","","","","html-keyboard-response","96","462518","0.0-96.0","3D4E5E7833FD49A7950FD30327F560C5","019d6637-a829-7ac1-aeee-9cbeff5e597f","019d6630-2071-75cb-8026-6699844a2719","","null","
                <div class=""stimulus-container"">
                    <img src=""images/semantic_sequence/housework_semantic/housework_semantic_9.png"" class=""exp-image"">
                    <div class=""question-area""></div> 
                </div>","null","","","","","","","","","","","","",""
"","","","","","html-button-response","97","463222","0.0-97.0","3D4E5E7833FD49A7950FD30327F560C5","019d6637-a829-7ac1-aeee-9cbeff5e597f","019d6630-2071-75cb-8026-6699844a2719","","701","
                <div class=""stimulus-container"">
                    <img src=""images/semantic_sequence/housework_semantic/housework_semantic_9.png"" class=""exp-image"">
                    <div class=""question-area"">
                        <p style=""font-size: 20px; font-weight: bold; margin: 0;"">Is there a person in this image?</p>
                    </div>
                </div>","0","main_experiment_trial","9","housework_semantic","semantic_sequence","chronological","","","","","","","",""
"","","","","","html-keyboard-response","98","468231","0.0-98.0","3D4E5E7833FD49A7950FD30327F560C5","019d6637-a829-7ac1-aeee-9cbeff5e597f","019d6630-2071-75cb-8026-6699844a2719","","null","
                <div class=""stimulus-container"">
                    <img src=""images/semantic_sequence/housework_semantic/housework_semantic_ten.png"" class=""exp-image"">
                    <div class=""question-area""></div> 
                </div>","null","","","","","","","","","","","","",""
"","","","","","html-button-response","99","469008","0.0-99.0","3D4E5E7833FD49A7950FD30327F560C5","019d6637-a829-7ac1-aeee-9cbeff5e597f","019d6630-2071-75cb-8026-6699844a2719","","775","
                <div class=""stimulus-container"">
                    <img src=""images/semantic_sequence/housework_semantic/housework_semantic_ten.png"" class=""exp-image"">
                    <div class=""question-area"">
                        <p style=""font-size: 20px; font-weight: bold; margin: 0;"">Is there a person in this image?</p>
                    </div>
                </div>","0","main_experiment_trial","ten","housework_semantic","semantic_sequence","chronological","","","","","","","",""
"","","","","","html-keyboard-response","100","474009","0.0-100.0","3D4E5E7833FD49A7950FD30327F560C5","019d6637-a829-7ac1-aeee-9cbeff5e597f","019d6630-2071-75cb-8026-6699844a2719","","null","<div style=""background-color: white; width: 100vw; height: 100vh;""></div>","null","","","","","","","","","","","","",""
"","","","","","html-keyboard-response","101","479021","0.0-101.0","3D4E5E7833FD49A7950FD30327F560C5","019d6637-a829-7ac1-aeee-9cbeff5e597f","019d6630-2071-75cb-8026-6699844a2719","","null","
                <div class=""stimulus-container"">
                    <img src=""images/causal_sequence/museum_causal/museum_causal_1.png"" class=""exp-image"">
                    <div class=""question-area""></div> 
                </div>","null","","","","","","","","","","","","",""
"","","","","","html-button-response","102","479672","0.0-102.0","3D4E5E7833FD49A7950FD30327F560C5","019d6637-a829-7ac1-aeee-9cbeff5e597f","019d6630-2071-75cb-8026-6699844a2719","","650","
                <div class=""stimulus-container"">
                    <img src=""images/causal_sequence/museum_causal/museum_causal_1.png"" class=""exp-image"">
                    <div class=""question-area"">
                        <p style=""font-size: 20px; font-weight: bold; margin: 0;"">Is there a person in this image?</p>
                    </div>
                </div>","0","main_experiment_trial","1","museum_causal","causal_sequence","chronological","","","","","","","",""
"","","","","","html-keyboard-response","103","484679","0.0-103.0","3D4E5E7833FD49A7950FD30327F560C5","019d6637-a829-7ac1-aeee-9cbeff5e597f","019d6630-2071-75cb-8026-6699844a2719","","null","
                <div class=""stimulus-container"">
                    <img src=""images/causal_sequence/museum_causal/museum_causal_2.png"" class=""exp-image"">
                    <div class=""question-area""></div> 
                </div>","null","","","","","","","","","","","","",""
"","","","","","html-button-response","104","485308","0.0-104.0","3D4E5E7833FD49A7950FD30327F560C5","019d6637-a829-7ac1-aeee-9cbeff5e597f","019d6630-2071-75cb-8026-6699844a2719","","627","
                <div class=""stimulus-container"">
                    <img src=""images/causal_sequence/museum_causal/museum_causal_2.png"" class=""exp-image"">
                    <div class=""question-area"">
                        <p style=""font-size: 20px; font-weight: bold; margin: 0;"">Is there a person in this image?</p>
                    </div>
                </div>","0","main_experiment_trial","2","museum_causal","causal_sequence","chronological","","","","","","","",""
"","","","","","html-keyboard-response","105","490317","0.0-105.0","3D4E5E7833FD49A7950FD30327F560C5","019d6637-a829-7ac1-aeee-9cbeff5e597f","019d6630-2071-75cb-8026-6699844a2719","","null","
                <div class=""stimulus-container"">
                    <img src=""images/causal_sequence/museum_causal/museum_causal_3.png"" class=""exp-image"">
                    <div class=""question-area""></div> 
                </div>","null","","","","","","","","","","","","",""
"","","","","","html-button-response","106","492351","0.0-106.0","3D4E5E7833FD49A7950FD30327F560C5","019d6637-a829-7ac1-aeee-9cbeff5e597f","019d6630-2071-75cb-8026-6699844a2719","","2033","
                <div class=""stimulus-container"">
                    <img src=""images/causal_sequence/museum_causal/museum_causal_3.png"" class=""exp-image"">
                    <div class=""question-area"">
                        <p style=""font-size: 20px; font-weight: bold; margin: 0;"">Is there a person in this image?</p>
                    </div>
                </div>","0","main_experiment_trial","3","museum_causal","causal_sequence","chronological","","","","","","","",""
"","","","","","html-keyboard-response","107","497358","0.0-107.0","3D4E5E7833FD49A7950FD30327F560C5","019d6637-a829-7ac1-aeee-9cbeff5e597f","019d6630-2071-75cb-8026-6699844a2719","","null","
                <div class=""stimulus-container"">
                    <img src=""images/causal_sequence/museum_causal/museum_causal_4.png"" class=""exp-image"">
                    <div class=""question-area""></div> 
                </div>","null","","","","","","","","","","","","",""
"","","","","","html-button-response","108","498196","0.0-108.0","3D4E5E7833FD49A7950FD30327F560C5","019d6637-a829-7ac1-aeee-9cbeff5e597f","019d6630-2071-75cb-8026-6699844a2719","","836","
                <div class=""stimulus-container"">
                    <img src=""images/causal_sequence/museum_causal/museum_causal_4.png"" class=""exp-image"">
                    <div class=""question-area"">
                        <p style=""font-size: 20px; font-weight: bold; margin: 0;"">Is there a person in this image?</p>
                    </div>
                </div>","1","main_experiment_trial","4","museum_causal","causal_sequence","chronological","","","","","","","",""
"","","","","","html-keyboard-response","109","503209","0.0-109.0","3D4E5E7833FD49A7950FD30327F560C5","019d6637-a829-7ac1-aeee-9cbeff5e597f","019d6630-2071-75cb-8026-6699844a2719","","null","
                <div class=""stimulus-container"">
                    <img src=""images/causal_sequence/museum_causal/museum_causal_5.png"" class=""exp-image"">
                    <div class=""question-area""></div> 
                </div>","null","","","","","","","","","","","","",""
"","","","","","html-button-response","110","504643","0.0-110.0","3D4E5E7833FD49A7950FD30327F560C5","019d6637-a829-7ac1-aeee-9cbeff5e597f","019d6630-2071-75cb-8026-6699844a2719","","1431","
                <div class=""stimulus-container"">
                    <img src=""images/causal_sequence/museum_causal/museum_causal_5.png"" class=""exp-image"">
                    <div class=""question-area"">
                        <p style=""font-size: 20px; font-weight: bold; margin: 0;"">Is there a person in this image?</p>
                    </div>
                </div>","0","main_experiment_trial","5","museum_causal","causal_sequence","chronological","","","","","","","",""
"","","","","","html-keyboard-response","111","509644","0.0-111.0","3D4E5E7833FD49A7950FD30327F560C5","019d6637-a829-7ac1-aeee-9cbeff5e597f","019d6630-2071-75cb-8026-6699844a2719","","null","
                <div class=""stimulus-container"">
                    <img src=""images/causal_sequence/museum_causal/museum_causal_6.png"" class=""exp-image"">
                    <div class=""question-area""></div> 
                </div>","null","","","","","","","","","","","","",""
"","","","","","html-button-response","112","510219","0.0-112.0","3D4E5E7833FD49A7950FD30327F560C5","019d6637-a829-7ac1-aeee-9cbeff5e597f","019d6630-2071-75cb-8026-6699844a2719","","574","
                <div class=""stimulus-container"">
                    <img src=""images/causal_sequence/museum_causal/museum_causal_6.png"" class=""exp-image"">
                    <div class=""question-area"">
                        <p style=""font-size: 20px; font-weight: bold; margin: 0;"">Is there a person in this image?</p>
                    </div>
                </div>","0","main_experiment_trial","6","museum_causal","causal_sequence","chronological","","","","","","","",""
"","","","","","html-keyboard-response","113","515221","0.0-113.0","3D4E5E7833FD49A7950FD30327F560C5","019d6637-a829-7ac1-aeee-9cbeff5e597f","019d6630-2071-75cb-8026-6699844a2719","","null","
                <div class=""stimulus-container"">
                    <img src=""images/causal_sequence/museum_causal/museum_causal_7.png"" class=""exp-image"">
                    <div class=""question-area""></div> 
                </div>","null","","","","","","","","","","","","",""
"","","","","","html-button-response","114","516005","0.0-114.0","3D4E5E7833FD49A7950FD30327F560C5","019d6637-a829-7ac1-aeee-9cbeff5e597f","019d6630-2071-75cb-8026-6699844a2719","","783","
                <div class=""stimulus-container"">
                    <img src=""images/causal_sequence/museum_causal/museum_causal_7.png"" class=""exp-image"">
                    <div class=""question-area"">
                        <p style=""font-size: 20px; font-weight: bold; margin: 0;"">Is there a person in this image?</p>
                    </div>
                </div>","1","main_experiment_trial","7","museum_causal","causal_sequence","chronological","","","","","","","",""
"","","","","","html-keyboard-response","115","521011","0.0-115.0","3D4E5E7833FD49A7950FD30327F560C5","019d6637-a829-7ac1-aeee-9cbeff5e597f","019d6630-2071-75cb-8026-6699844a2719","","null","
                <div class=""stimulus-container"">
                    <img src=""images/causal_sequence/museum_causal/museum_causal_8.png"" class=""exp-image"">
                    <div class=""question-area""></div> 
                </div>","null","","","","","","","","","","","","",""
"","","","","","html-button-response","116","523358","0.0-116.0","3D4E5E7833FD49A7950FD30327F560C5","019d6637-a829-7ac1-aeee-9cbeff5e597f","019d6630-2071-75cb-8026-6699844a2719","","2345","
                <div class=""stimulus-container"">
                    <img src=""images/causal_sequence/museum_causal/museum_causal_8.png"" class=""exp-image"">
                    <div class=""question-area"">
                        <p style=""font-size: 20px; font-weight: bold; margin: 0;"">Is there a person in this image?</p>
                    </div>
                </div>","0","main_experiment_trial","8","museum_causal","causal_sequence","chronological","","","","","","","",""
"","","","","","html-keyboard-response","117","528364","0.0-117.0","3D4E5E7833FD49A7950FD30327F560C5","019d6637-a829-7ac1-aeee-9cbeff5e597f","019d6630-2071-75cb-8026-6699844a2719","","null","
                <div class=""stimulus-container"">
                    <img src=""images/causal_sequence/museum_causal/museum_causal_9.png"" class=""exp-image"">
                    <div class=""question-area""></div> 
                </div>","null","","","","","","","","","","","","",""
"","","","","","html-button-response","118","529063","0.0-118.0","3D4E5E7833FD49A7950FD30327F560C5","019d6637-a829-7ac1-aeee-9cbeff5e597f","019d6630-2071-75cb-8026-6699844a2719","","697","
                <div class=""stimulus-container"">
                    <img src=""images/causal_sequence/museum_causal/museum_causal_9.png"" class=""exp-image"">
                    <div class=""question-area"">
                        <p style=""font-size: 20px; font-weight: bold; margin: 0;"">Is there a person in this image?</p>
                    </div>
                </div>","1","main_experiment_trial","9","museum_causal","causal_sequence","chronological","","","","","","","",""
"","","","","","html-keyboard-response","119","534070","0.0-119.0","3D4E5E7833FD49A7950FD30327F560C5","019d6637-a829-7ac1-aeee-9cbeff5e597f","019d6630-2071-75cb-8026-6699844a2719","","null","
                <div class=""stimulus-container"">
                    <img src=""images/causal_sequence/museum_causal/museum_causal_ten.png"" class=""exp-image"">
                    <div class=""question-area""></div> 
                </div>","null","","","","","","","","","","","","",""
"","","","","","html-button-response","120","534804","0.0-120.0","3D4E5E7833FD49A7950FD30327F560C5","019d6637-a829-7ac1-aeee-9cbeff5e597f","019d6630-2071-75cb-8026-6699844a2719","","733","
                <div class=""stimulus-container"">
                    <img src=""images/causal_sequence/museum_causal/museum_causal_ten.png"" class=""exp-image"">
                    <div class=""question-area"">
                        <p style=""font-size: 20px; font-weight: bold; margin: 0;"">Is there a person in this image?</p>
                    </div>
                </div>","0","main_experiment_trial","ten","museum_causal","causal_sequence","chronological","","","","","","","",""
"","","","","","html-keyboard-response","121","539807","0.0-121.0","3D4E5E7833FD49A7950FD30327F560C5","019d6637-a829-7ac1-aeee-9cbeff5e597f","019d6630-2071-75cb-8026-6699844a2719","","null","<div style=""background-color: white; width: 100vw; height: 100vh;""></div>","null","","","","","","","","","","","","",""
"","","","","","html-keyboard-response","122","544809","0.0-122.0","3D4E5E7833FD49A7950FD30327F560C5","019d6637-a829-7ac1-aeee-9cbeff5e597f","019d6630-2071-75cb-8026-6699844a2719","","null","
                <div class=""stimulus-container"">
                    <img src=""images/semantic_sequence/self_care_activities_semantic/self_care_activities_semantic_1.png"" class=""exp-image"">
                    <div class=""question-area""></div> 
                </div>","null","","","","","","","","","","","","",""
"","","","","","html-button-response","123","545655","0.0-123.0","3D4E5E7833FD49A7950FD30327F560C5","019d6637-a829-7ac1-aeee-9cbeff5e597f","019d6630-2071-75cb-8026-6699844a2719","","844","
                <div class=""stimulus-container"">
                    <img src=""images/semantic_sequence/self_care_activities_semantic/self_care_activities_semantic_1.png"" class=""exp-image"">
                    <div class=""question-area"">
                        <p style=""font-size: 20px; font-weight: bold; margin: 0;"">Is there a person in this image?</p>
                    </div>
                </div>","0","main_experiment_trial","1","self_care_activities_semantic","semantic_sequence","chronological","","","","","","","",""
"","","","","","html-keyboard-response","124","550663","0.0-124.0","3D4E5E7833FD49A7950FD30327F560C5","019d6637-a829-7ac1-aeee-9cbeff5e597f","019d6630-2071-75cb-8026-6699844a2719","","null","
                <div class=""stimulus-container"">
                    <img src=""images/semantic_sequence/self_care_activities_semantic/self_care_activities_semantic_2.png"" class=""exp-image"">
                    <div class=""question-area""></div> 
                </div>","null","","","","","","","","","","","","",""
"","","","","","html-button-response","125","552693","0.0-125.0","3D4E5E7833FD49A7950FD30327F560C5","019d6637-a829-7ac1-aeee-9cbeff5e597f","019d6630-2071-75cb-8026-6699844a2719","","2028","
                <div class=""stimulus-container"">
                    <img src=""images/semantic_sequence/self_care_activities_semantic/self_care_activities_semantic_2.png"" class=""exp-image"">
                    <div class=""question-area"">
                        <p style=""font-size: 20px; font-weight: bold; margin: 0;"">Is there a person in this image?</p>
                    </div>
                </div>","0","main_experiment_trial","2","self_care_activities_semantic","semantic_sequence","chronological","","","","","","","",""
"","","","","","html-keyboard-response","126","557694","0.0-126.0","3D4E5E7833FD49A7950FD30327F560C5","019d6637-a829-7ac1-aeee-9cbeff5e597f","019d6630-2071-75cb-8026-6699844a2719","","null","
                <div class=""stimulus-container"">
                    <img src=""images/semantic_sequence/self_care_activities_semantic/self_care_activities_semantic_3.png"" class=""exp-image"">
                    <div class=""question-area""></div> 
                </div>","null","","","","","","","","","","","","",""
"","","","","","html-button-response","127","558776","0.0-127.0","3D4E5E7833FD49A7950FD30327F560C5","019d6637-a829-7ac1-aeee-9cbeff5e597f","019d6630-2071-75cb-8026-6699844a2719","","1080","
                <div class=""stimulus-container"">
                    <img src=""images/semantic_sequence/self_care_activities_semantic/self_care_activities_semantic_3.png"" class=""exp-image"">
                    <div class=""question-area"">
                        <p style=""font-size: 20px; font-weight: bold; margin: 0;"">Is there a person in this image?</p>
                    </div>
                </div>","0","main_experiment_trial","3","self_care_activities_semantic","semantic_sequence","chronological","","","","","","","",""
"","","","","","html-keyboard-response","128","563791","0.0-128.0","3D4E5E7833FD49A7950FD30327F560C5","019d6637-a829-7ac1-aeee-9cbeff5e597f","019d6630-2071-75cb-8026-6699844a2719","","null","
                <div class=""stimulus-container"">
                    <img src=""images/semantic_sequence/self_care_activities_semantic/self_care_activities_semantic_4.png"" class=""exp-image"">
                    <div class=""question-area""></div> 
                </div>","null","","","","","","","","","","","","",""
"","","","","","html-button-response","129","564587","0.0-129.0","3D4E5E7833FD49A7950FD30327F560C5","019d6637-a829-7ac1-aeee-9cbeff5e597f","019d6630-2071-75cb-8026-6699844a2719","","795","
                <div class=""stimulus-container"">
                    <img src=""images/semantic_sequence/self_care_activities_semantic/self_care_activities_semantic_4.png"" class=""exp-image"">
                    <div class=""question-area"">
                        <p style=""font-size: 20px; font-weight: bold; margin: 0;"">Is there a person in this image?</p>
                    </div>
                </div>","0","main_experiment_trial","4","self_care_activities_semantic","semantic_sequence","chronological","","","","","","","",""
"","","","","","html-keyboard-response","130","569604","0.0-130.0","3D4E5E7833FD49A7950FD30327F560C5","019d6637-a829-7ac1-aeee-9cbeff5e597f","019d6630-2071-75cb-8026-6699844a2719","","null","
                <div class=""stimulus-container"">
                    <img src=""images/semantic_sequence/self_care_activities_semantic/self_care_activities_semantic_5.png"" class=""exp-image"">
                    <div class=""question-area""></div> 
                </div>","null","","","","","","","","","","","","",""
"","","","","","html-button-response","131","572156","0.0-131.0","3D4E5E7833FD49A7950FD30327F560C5","019d6637-a829-7ac1-aeee-9cbeff5e597f","019d6630-2071-75cb-8026-6699844a2719","","2550","
                <div class=""stimulus-container"">
                    <img src=""images/semantic_sequence/self_care_activities_semantic/self_care_activities_semantic_5.png"" class=""exp-image"">
                    <div class=""question-area"">
                        <p style=""font-size: 20px; font-weight: bold; margin: 0;"">Is there a person in this image?</p>
                    </div>
                </div>","0","main_experiment_trial","5","self_care_activities_semantic","semantic_sequence","chronological","","","","","","","",""
"","","","","","html-keyboard-response","132","577170","0.0-132.0","3D4E5E7833FD49A7950FD30327F560C5","019d6637-a829-7ac1-aeee-9cbeff5e597f","019d6630-2071-75cb-8026-6699844a2719","","null","
                <div class=""stimulus-container"">
                    <img src=""images/semantic_sequence/self_care_activities_semantic/self_care_activities_semantic_6.png"" class=""exp-image"">
                    <div class=""question-area""></div> 
                </div>","null","","","","","","","","","","","","",""
"","","","","","html-button-response","133","578664","0.0-133.0","3D4E5E7833FD49A7950FD30327F560C5","019d6637-a829-7ac1-aeee-9cbeff5e597f","019d6630-2071-75cb-8026-6699844a2719","","1492","
                <div class=""stimulus-container"">
                    <img src=""images/semantic_sequence/self_care_activities_semantic/self_care_activities_semantic_6.png"" class=""exp-image"">
                    <div class=""question-area"">
                        <p style=""font-size: 20px; font-weight: bold; margin: 0;"">Is there a person in this image?</p>
                    </div>
                </div>","1","main_experiment_trial","6","self_care_activities_semantic","semantic_sequence","chronological","","","","","","","",""
"","","","","","html-keyboard-response","134","583668","0.0-134.0","3D4E5E7833FD49A7950FD30327F560C5","019d6637-a829-7ac1-aeee-9cbeff5e597f","019d6630-2071-75cb-8026-6699844a2719","","null","
                <div class=""stimulus-container"">
                    <img src=""images/semantic_sequence/self_care_activities_semantic/self_care_activities_semantic_7.png"" class=""exp-image"">
                    <div class=""question-area""></div> 
                </div>","null","","","","","","","","","","","","",""
"","","","","","html-button-response","135","585006","0.0-135.0","3D4E5E7833FD49A7950FD30327F560C5","019d6637-a829-7ac1-aeee-9cbeff5e597f","019d6630-2071-75cb-8026-6699844a2719","","1335","
                <div class=""stimulus-container"">
                    <img src=""images/semantic_sequence/self_care_activities_semantic/self_care_activities_semantic_7.png"" class=""exp-image"">
                    <div class=""question-area"">
                        <p style=""font-size: 20px; font-weight: bold; margin: 0;"">Is there a person in this image?</p>
                    </div>
                </div>","0","main_experiment_trial","7","self_care_activities_semantic","semantic_sequence","chronological","","","","","","","",""
"","","","","","html-keyboard-response","136","590020","0.0-136.0","3D4E5E7833FD49A7950FD30327F560C5","019d6637-a829-7ac1-aeee-9cbeff5e597f","019d6630-2071-75cb-8026-6699844a2719","","null","
                <div class=""stimulus-container"">
                    <img src=""images/semantic_sequence/self_care_activities_semantic/self_care_activities_semantic_8.png"" class=""exp-image"">
                    <div class=""question-area""></div> 
                </div>","null","","","","","","","","","","","","",""
"","","","","","html-button-response","137","590901","0.0-137.0","3D4E5E7833FD49A7950FD30327F560C5","019d6637-a829-7ac1-aeee-9cbeff5e597f","019d6630-2071-75cb-8026-6699844a2719","","879","
                <div class=""stimulus-container"">
                    <img src=""images/semantic_sequence/self_care_activities_semantic/self_care_activities_semantic_8.png"" class=""exp-image"">
                    <div class=""question-area"">
                        <p style=""font-size: 20px; font-weight: bold; margin: 0;"">Is there a person in this image?</p>
                    </div>
                </div>","0","main_experiment_trial","8","self_care_activities_semantic","semantic_sequence","chronological","","","","","","","",""
"","","","","","html-keyboard-response","138","595903","0.0-138.0","3D4E5E7833FD49A7950FD30327F560C5","019d6637-a829-7ac1-aeee-9cbeff5e597f","019d6630-2071-75cb-8026-6699844a2719","","null","
                <div class=""stimulus-container"">
                    <img src=""images/semantic_sequence/self_care_activities_semantic/self_care_activities_semantic_9.png"" class=""exp-image"">
                    <div class=""question-area""></div> 
                </div>","null","","","","","","","","","","","","",""
"","","","","","html-button-response","139","597454","0.0-139.0","3D4E5E7833FD49A7950FD30327F560C5","019d6637-a829-7ac1-aeee-9cbeff5e597f","019d6630-2071-75cb-8026-6699844a2719","","1551","
                <div class=""stimulus-container"">
                    <img src=""images/semantic_sequence/self_care_activities_semantic/self_care_activities_semantic_9.png"" class=""exp-image"">
                    <div class=""question-area"">
                        <p style=""font-size: 20px; font-weight: bold; margin: 0;"">Is there a person in this image?</p>
                    </div>
                </div>","0","main_experiment_trial","9","self_care_activities_semantic","semantic_sequence","chronological","","","","","","","",""
"","","","","","html-keyboard-response","140","602461","0.0-140.0","3D4E5E7833FD49A7950FD30327F560C5","019d6637-a829-7ac1-aeee-9cbeff5e597f","019d6630-2071-75cb-8026-6699844a2719","","null","
                <div class=""stimulus-container"">
                    <img src=""images/semantic_sequence/self_care_activities_semantic/self_care_activities_semantic_ten.png"" class=""exp-image"">
                    <div class=""question-area""></div> 
                </div>","null","","","","","","","","","","","","",""
"","","","","","html-button-response","141","603478","0.0-141.0","3D4E5E7833FD49A7950FD30327F560C5","019d6637-a829-7ac1-aeee-9cbeff5e597f","019d6630-2071-75cb-8026-6699844a2719","","1014","
                <div class=""stimulus-container"">
                    <img src=""images/semantic_sequence/self_care_activities_semantic/self_care_activities_semantic_ten.png"" class=""exp-image"">
                    <div class=""question-area"">
                        <p style=""font-size: 20px; font-weight: bold; margin: 0;"">Is there a person in this image?</p>
                    </div>
                </div>","0","main_experiment_trial","ten","self_care_activities_semantic","semantic_sequence","chronological","","","","","","","",""
"","","","","","html-keyboard-response","142","608491","0.0-142.0","3D4E5E7833FD49A7950FD30327F560C5","019d6637-a829-7ac1-aeee-9cbeff5e597f","019d6630-2071-75cb-8026-6699844a2719","","null","<div style=""background-color: white; width: 100vw; height: 100vh;""></div>","null","","","","","","","","","","","","",""
"","","","","","html-keyboard-response","143","613496","0.0-143.0","3D4E5E7833FD49A7950FD30327F560C5","019d6637-a829-7ac1-aeee-9cbeff5e597f","019d6630-2071-75cb-8026-6699844a2719","","null","
                <div class=""stimulus-container"">
                    <img src=""images/causal_sequence/package_causal/package_causal_1.png"" class=""exp-image"">
                    <div class=""question-area""></div> 
                </div>","null","","","","","","","","","","","","",""
"","","","","","html-button-response","144","614335","0.0-144.0","3D4E5E7833FD49A7950FD30327F560C5","019d6637-a829-7ac1-aeee-9cbeff5e597f","019d6630-2071-75cb-8026-6699844a2719","","837","
                <div class=""stimulus-container"">
                    <img src=""images/causal_sequence/package_causal/package_causal_1.png"" class=""exp-image"">
                    <div class=""question-area"">
                        <p style=""font-size: 20px; font-weight: bold; margin: 0;"">Is there a person in this image?</p>
                    </div>
                </div>","0","main_experiment_trial","1","package_causal","causal_sequence","chronological","","","","","","","",""
"","","","","","html-keyboard-response","145","619350","0.0-145.0","3D4E5E7833FD49A7950FD30327F560C5","019d6637-a829-7ac1-aeee-9cbeff5e597f","019d6630-2071-75cb-8026-6699844a2719","","null","
                <div class=""stimulus-container"">
                    <img src=""images/causal_sequence/package_causal/package_causal_2.png"" class=""exp-image"">
                    <div class=""question-area""></div> 
                </div>","null","","","","","","","","","","","","",""
"","","","","","html-button-response","146","620550","0.0-146.0","3D4E5E7833FD49A7950FD30327F560C5","019d6637-a829-7ac1-aeee-9cbeff5e597f","019d6630-2071-75cb-8026-6699844a2719","","1198","
                <div class=""stimulus-container"">
                    <img src=""images/causal_sequence/package_causal/package_causal_2.png"" class=""exp-image"">
                    <div class=""question-area"">
                        <p style=""font-size: 20px; font-weight: bold; margin: 0;"">Is there a person in this image?</p>
                    </div>
                </div>","0","main_experiment_trial","2","package_causal","causal_sequence","chronological","","","","","","","",""
"","","","","","html-keyboard-response","147","625559","0.0-147.0","3D4E5E7833FD49A7950FD30327F560C5","019d6637-a829-7ac1-aeee-9cbeff5e597f","019d6630-2071-75cb-8026-6699844a2719","","null","
                <div class=""stimulus-container"">
                    <img src=""images/causal_sequence/package_causal/package_causal_3.png"" class=""exp-image"">
                    <div class=""question-area""></div> 
                </div>","null","","","","","","","","","","","","",""
"","","","","","html-button-response","148","626609","0.0-148.0","3D4E5E7833FD49A7950FD30327F560C5","019d6637-a829-7ac1-aeee-9cbeff5e597f","019d6630-2071-75cb-8026-6699844a2719","","1048","
                <div class=""stimulus-container"">
                    <img src=""images/causal_sequence/package_causal/package_causal_3.png"" class=""exp-image"">
                    <div class=""question-area"">
                        <p style=""font-size: 20px; font-weight: bold; margin: 0;"">Is there a person in this image?</p>
                    </div>
                </div>","0","main_experiment_trial","3","package_causal","causal_sequence","chronological","","","","","","","",""
"","","","","","html-keyboard-response","149","631614","0.0-149.0","3D4E5E7833FD49A7950FD30327F560C5","019d6637-a829-7ac1-aeee-9cbeff5e597f","019d6630-2071-75cb-8026-6699844a2719","","null","
                <div class=""stimulus-container"">
                    <img src=""images/causal_sequence/package_causal/package_causal_4.png"" class=""exp-image"">
                    <div class=""question-area""></div> 
                </div>","null","","","","","","","","","","","","",""
"","","","","","html-button-response","150","632499","0.0-150.0","3D4E5E7833FD49A7950FD30327F560C5","019d6637-a829-7ac1-aeee-9cbeff5e597f","019d6630-2071-75cb-8026-6699844a2719","","883","
                <div class=""stimulus-container"">
                    <img src=""images/causal_sequence/package_causal/package_causal_4.png"" class=""exp-image"">
                    <div class=""question-area"">
                        <p style=""font-size: 20px; font-weight: bold; margin: 0;"">Is there a person in this image?</p>
                    </div>
                </div>","1","main_experiment_trial","4","package_causal","causal_sequence","chronological","","","","","","","",""
"","","","","","html-keyboard-response","151","637501","0.0-151.0","3D4E5E7833FD49A7950FD30327F560C5","019d6637-a829-7ac1-aeee-9cbeff5e597f","019d6630-2071-75cb-8026-6699844a2719","","null","
                <div class=""stimulus-container"">
                    <img src=""images/causal_sequence/package_causal/package_causal_5.png"" class=""exp-image"">
                    <div class=""question-area""></div> 
                </div>","null","","","","","","","","","","","","",""
"","","","","","html-button-response","152","638095","0.0-152.0","3D4E5E7833FD49A7950FD30327F560C5","019d6637-a829-7ac1-aeee-9cbeff5e597f","019d6630-2071-75cb-8026-6699844a2719","","592","
                <div class=""stimulus-container"">
                    <img src=""images/causal_sequence/package_causal/package_causal_5.png"" class=""exp-image"">
                    <div class=""question-area"">
                        <p style=""font-size: 20px; font-weight: bold; margin: 0;"">Is there a person in this image?</p>
                    </div>
                </div>","0","main_experiment_trial","5","package_causal","causal_sequence","chronological","","","","","","","",""
"","","","","","html-keyboard-response","153","643099","0.0-153.0","3D4E5E7833FD49A7950FD30327F560C5","019d6637-a829-7ac1-aeee-9cbeff5e597f","019d6630-2071-75cb-8026-6699844a2719","","null","
                <div class=""stimulus-container"">
                    <img src=""images/causal_sequence/package_causal/package_causal_6.png"" class=""exp-image"">
                    <div class=""question-area""></div> 
                </div>","null","","","","","","","","","","","","",""
"","","","","","html-button-response","154","644055","0.0-154.0","3D4E5E7833FD49A7950FD30327F560C5","019d6637-a829-7ac1-aeee-9cbeff5e597f","019d6630-2071-75cb-8026-6699844a2719","","954","
                <div class=""stimulus-container"">
                    <img src=""images/causal_sequence/package_causal/package_causal_6.png"" class=""exp-image"">
                    <div class=""question-area"">
                        <p style=""font-size: 20px; font-weight: bold; margin: 0;"">Is there a person in this image?</p>
                    </div>
                </div>","0","main_experiment_trial","6","package_causal","causal_sequence","chronological","","","","","","","",""
"","","","","","html-keyboard-response","155","649057","0.0-155.0","3D4E5E7833FD49A7950FD30327F560C5","019d6637-a829-7ac1-aeee-9cbeff5e597f","019d6630-2071-75cb-8026-6699844a2719","","null","
                <div class=""stimulus-container"">
                    <img src=""images/causal_sequence/package_causal/package_causal_7.png"" class=""exp-image"">
                    <div class=""question-area""></div> 
                </div>","null","","","","","","","","","","","","",""
"","","","","","html-button-response","156","649580","0.0-156.0","3D4E5E7833FD49A7950FD30327F560C5","019d6637-a829-7ac1-aeee-9cbeff5e597f","019d6630-2071-75cb-8026-6699844a2719","","522","
                <div class=""stimulus-container"">
                    <img src=""images/causal_sequence/package_causal/package_causal_7.png"" class=""exp-image"">
                    <div class=""question-area"">
                        <p style=""font-size: 20px; font-weight: bold; margin: 0;"">Is there a person in this image?</p>
                    </div>
                </div>","0","main_experiment_trial","7","package_causal","causal_sequence","chronological","","","","","","","",""
"","","","","","html-keyboard-response","157","654583","0.0-157.0","3D4E5E7833FD49A7950FD30327F560C5","019d6637-a829-7ac1-aeee-9cbeff5e597f","019d6630-2071-75cb-8026-6699844a2719","","null","
                <div class=""stimulus-container"">
                    <img src=""images/causal_sequence/package_causal/package_causal_8.png"" class=""exp-image"">
                    <div class=""question-area""></div> 
                </div>","null","","","","","","","","","","","","",""
"","","","","","html-button-response","158","655687","0.0-158.0","3D4E5E7833FD49A7950FD30327F560C5","019d6637-a829-7ac1-aeee-9cbeff5e597f","019d6630-2071-75cb-8026-6699844a2719","","1102","
                <div class=""stimulus-container"">
                    <img src=""images/causal_sequence/package_causal/package_causal_8.png"" class=""exp-image"">
                    <div class=""question-area"">
                        <p style=""font-size: 20px; font-weight: bold; margin: 0;"">Is there a person in this image?</p>
                    </div>
                </div>","0","main_experiment_trial","8","package_causal","causal_sequence","chronological","","","","","","","",""
"","","","","","html-keyboard-response","159","660704","0.0-159.0","3D4E5E7833FD49A7950FD30327F560C5","019d6637-a829-7ac1-aeee-9cbeff5e597f","019d6630-2071-75cb-8026-6699844a2719","","null","
                <div class=""stimulus-container"">
                    <img src=""images/causal_sequence/package_causal/package_causal_9.png"" class=""exp-image"">
                    <div class=""question-area""></div> 
                </div>","null","","","","","","","","","","","","",""
"","","","","","html-button-response","160","661332","0.0-160.0","3D4E5E7833FD49A7950FD30327F560C5","019d6637-a829-7ac1-aeee-9cbeff5e597f","019d6630-2071-75cb-8026-6699844a2719","","626","
                <div class=""stimulus-container"">
                    <img src=""images/causal_sequence/package_causal/package_causal_9.png"" class=""exp-image"">
                    <div class=""question-area"">
                        <p style=""font-size: 20px; font-weight: bold; margin: 0;"">Is there a person in this image?</p>
                    </div>
                </div>","0","main_experiment_trial","9","package_causal","causal_sequence","chronological","","","","","","","",""
"","","","","","html-keyboard-response","161","666338","0.0-161.0","3D4E5E7833FD49A7950FD30327F560C5","019d6637-a829-7ac1-aeee-9cbeff5e597f","019d6630-2071-75cb-8026-6699844a2719","","null","
                <div class=""stimulus-container"">
                    <img src=""images/causal_sequence/package_causal/package_causal_ten.png"" class=""exp-image"">
                    <div class=""question-area""></div> 
                </div>","null","","","","","","","","","","","","",""
"","","","","","html-button-response","162","666805","0.0-162.0","3D4E5E7833FD49A7950FD30327F560C5","019d6637-a829-7ac1-aeee-9cbeff5e597f","019d6630-2071-75cb-8026-6699844a2719","","466","
                <div class=""stimulus-container"">
                    <img src=""images/causal_sequence/package_causal/package_causal_ten.png"" class=""exp-image"">
                    <div class=""question-area"">
                        <p style=""font-size: 20px; font-weight: bold; margin: 0;"">Is there a person in this image?</p>
                    </div>
                </div>","0","main_experiment_trial","ten","package_causal","causal_sequence","chronological","","","","","","","",""
"","","","","","html-keyboard-response","163","671820","0.0-163.0","3D4E5E7833FD49A7950FD30327F560C5","019d6637-a829-7ac1-aeee-9cbeff5e597f","019d6630-2071-75cb-8026-6699844a2719","","null","<div style=""background-color: white; width: 100vw; height: 100vh;""></div>","null","","","","","","","","","","","","",""
"","","","","","html-keyboard-response","164","676837","0.0-164.0","3D4E5E7833FD49A7950FD30327F560C5","019d6637-a829-7ac1-aeee-9cbeff5e597f","019d6630-2071-75cb-8026-6699844a2719","","null","
                <div class=""stimulus-container"">
                    <img src=""images/causal_sequence/dog_causal/dog_causal_1.png"" class=""exp-image"">
                    <div class=""question-area""></div> 
                </div>","null","","","","","","","","","","","","",""
"","","","","","html-button-response","165","677549","0.0-165.0","3D4E5E7833FD49A7950FD30327F560C5","019d6637-a829-7ac1-aeee-9cbeff5e597f","019d6630-2071-75cb-8026-6699844a2719","","711","
                <div class=""stimulus-container"">
                    <img src=""images/causal_sequence/dog_causal/dog_causal_1.png"" class=""exp-image"">
                    <div class=""question-area"">
                        <p style=""font-size: 20px; font-weight: bold; margin: 0;"">Is there a person in this image?</p>
                    </div>
                </div>","0","main_experiment_trial","1","dog_causal","causal_sequence","chronological","","","","","","","",""
"","","","","","html-keyboard-response","166","682553","0.0-166.0","3D4E5E7833FD49A7950FD30327F560C5","019d6637-a829-7ac1-aeee-9cbeff5e597f","019d6630-2071-75cb-8026-6699844a2719","","null","
                <div class=""stimulus-container"">
                    <img src=""images/causal_sequence/dog_causal/dog_causal_2.png"" class=""exp-image"">
                    <div class=""question-area""></div> 
                </div>","null","","","","","","","","","","","","",""
"","","","","","html-button-response","167","683891","0.0-167.0","3D4E5E7833FD49A7950FD30327F560C5","019d6637-a829-7ac1-aeee-9cbeff5e597f","019d6630-2071-75cb-8026-6699844a2719","","1336","
                <div class=""stimulus-container"">
                    <img src=""images/causal_sequence/dog_causal/dog_causal_2.png"" class=""exp-image"">
                    <div class=""question-area"">
                        <p style=""font-size: 20px; font-weight: bold; margin: 0;"">Is there a person in this image?</p>
                    </div>
                </div>","0","main_experiment_trial","2","dog_causal","causal_sequence","chronological","","","","","","","",""
"","","","","","html-keyboard-response","168","688894","0.0-168.0","3D4E5E7833FD49A7950FD30327F560C5","019d6637-a829-7ac1-aeee-9cbeff5e597f","019d6630-2071-75cb-8026-6699844a2719","","null","
                <div class=""stimulus-container"">
                    <img src=""images/causal_sequence/dog_causal/dog_causal_3.png"" class=""exp-image"">
                    <div class=""question-area""></div> 
                </div>","null","","","","","","","","","","","","",""
"","","","","","html-button-response","169","689459","0.0-169.0","3D4E5E7833FD49A7950FD30327F560C5","019d6637-a829-7ac1-aeee-9cbeff5e597f","019d6630-2071-75cb-8026-6699844a2719","","563","
                <div class=""stimulus-container"">
                    <img src=""images/causal_sequence/dog_causal/dog_causal_3.png"" class=""exp-image"">
                    <div class=""question-area"">
                        <p style=""font-size: 20px; font-weight: bold; margin: 0;"">Is there a person in this image?</p>
                    </div>
                </div>","0","main_experiment_trial","3","dog_causal","causal_sequence","chronological","","","","","","","",""
"","","","","","html-keyboard-response","170","694462","0.0-170.0","3D4E5E7833FD49A7950FD30327F560C5","019d6637-a829-7ac1-aeee-9cbeff5e597f","019d6630-2071-75cb-8026-6699844a2719","","null","
                <div class=""stimulus-container"">
                    <img src=""images/causal_sequence/dog_causal/dog_causal_4.png"" class=""exp-image"">
                    <div class=""question-area""></div> 
                </div>","null","","","","","","","","","","","","",""
"","","","","","html-button-response","171","695403","0.0-171.0","3D4E5E7833FD49A7950FD30327F560C5","019d6637-a829-7ac1-aeee-9cbeff5e597f","019d6630-2071-75cb-8026-6699844a2719","","938","
                <div class=""stimulus-container"">
                    <img src=""images/causal_sequence/dog_causal/dog_causal_4.png"" class=""exp-image"">
                    <div class=""question-area"">
                        <p style=""font-size: 20px; font-weight: bold; margin: 0;"">Is there a person in this image?</p>
                    </div>
                </div>","0","main_experiment_trial","4","dog_causal","causal_sequence","chronological","","","","","","","",""
"","","","","","html-keyboard-response","172","700413","0.0-172.0","3D4E5E7833FD49A7950FD30327F560C5","019d6637-a829-7ac1-aeee-9cbeff5e597f","019d6630-2071-75cb-8026-6699844a2719","","null","
                <div class=""stimulus-container"">
                    <img src=""images/causal_sequence/dog_causal/dog_causal_5.png"" class=""exp-image"">
                    <div class=""question-area""></div> 
                </div>","null","","","","","","","","","","","","",""
"","","","","","html-button-response","173","701659","0.0-173.0","3D4E5E7833FD49A7950FD30327F560C5","019d6637-a829-7ac1-aeee-9cbeff5e597f","019d6630-2071-75cb-8026-6699844a2719","","1244","
                <div class=""stimulus-container"">
                    <img src=""images/causal_sequence/dog_causal/dog_causal_5.png"" class=""exp-image"">
                    <div class=""question-area"">
                        <p style=""font-size: 20px; font-weight: bold; margin: 0;"">Is there a person in this image?</p>
                    </div>
                </div>","0","main_experiment_trial","5","dog_causal","causal_sequence","chronological","","","","","","","",""
"","","","","","html-keyboard-response","174","706663","0.0-174.0","3D4E5E7833FD49A7950FD30327F560C5","019d6637-a829-7ac1-aeee-9cbeff5e597f","019d6630-2071-75cb-8026-6699844a2719","","null","
                <div class=""stimulus-container"">
                    <img src=""images/causal_sequence/dog_causal/dog_causal_6.png"" class=""exp-image"">
                    <div class=""question-area""></div> 
                </div>","null","","","","","","","","","","","","",""
"","","","","","html-button-response","175","708077","0.0-175.0","3D4E5E7833FD49A7950FD30327F560C5","019d6637-a829-7ac1-aeee-9cbeff5e597f","019d6630-2071-75cb-8026-6699844a2719","","1413","
                <div class=""stimulus-container"">
                    <img src=""images/causal_sequence/dog_causal/dog_causal_6.png"" class=""exp-image"">
                    <div class=""question-area"">
                        <p style=""font-size: 20px; font-weight: bold; margin: 0;"">Is there a person in this image?</p>
                    </div>
                </div>","0","main_experiment_trial","6","dog_causal","causal_sequence","chronological","","","","","","","",""
"","","","","","html-keyboard-response","176","713093","0.0-176.0","3D4E5E7833FD49A7950FD30327F560C5","019d6637-a829-7ac1-aeee-9cbeff5e597f","019d6630-2071-75cb-8026-6699844a2719","","null","
                <div class=""stimulus-container"">
                    <img src=""images/causal_sequence/dog_causal/dog_causal_7.png"" class=""exp-image"">
                    <div class=""question-area""></div> 
                </div>","null","","","","","","","","","","","","",""
