"success","timeout","failed_images","failed_audio","failed_video","trial_type","trial_index","time_elapsed","internal_node_id","subject_id","study_id","session_id","view_history","rt","stimulus","response","task","image_index","folder","sequence_type","presentation_order","valuable_image_index","reward_type","distance_from_x","target_X","chosen_image_index","is_x_plus_dist","correct_choice"
"true","false","[]","[]","[]","preload","0","1878","0.0-0.0","401EDD9064624CEF8BEB41D2F1B5426D","019cfa5b-0c07-788b-80a6-17a113be2660","019cfa3a-388e-72ab-ad58-bdeb258f96cd","","","","","","","","","","","","","","","",""
"","","","","","instructions","1","4091","0.0-1.0","401EDD9064624CEF8BEB41D2F1B5426D","019cfa5b-0c07-788b-80a6-17a113be2660","019cfa3a-388e-72ab-ad58-bdeb258f96cd","[{""page_index"":0,""viewing_time"":2212}]","2212","","","","","","","","","","","","","",""
"","","","","","instructions","2","11810","0.0-2.0","401EDD9064624CEF8BEB41D2F1B5426D","019cfa5b-0c07-788b-80a6-17a113be2660","019cfa3a-388e-72ab-ad58-bdeb258f96cd","[{""page_index"":0,""viewing_time"":7719}]","7719","","","","","","","","","","","","","",""
"true","","","","","fullscreen","3","14758","0.0-3.0","401EDD9064624CEF8BEB41D2F1B5426D","019cfa5b-0c07-788b-80a6-17a113be2660","019cfa3a-388e-72ab-ad58-bdeb258f96cd","","1947","","","","","","","","","","","","","",""
"","","","","","instructions","4","24916","0.0-4.0","401EDD9064624CEF8BEB41D2F1B5426D","019cfa5b-0c07-788b-80a6-17a113be2660","019cfa3a-388e-72ab-ad58-bdeb258f96cd","[{""page_index"":0,""viewing_time"":10159}]","10159","","","","","","","","","","","","","",""
"","","","","","instructions","5","28210","0.0-5.0","401EDD9064624CEF8BEB41D2F1B5426D","019cfa5b-0c07-788b-80a6-17a113be2660","019cfa3a-388e-72ab-ad58-bdeb258f96cd","[{""page_index"":0,""viewing_time"":3293}]","3293","","","","","","","","","","","","","",""
"","","","","","html-keyboard-response","6","32225","0.0-6.0","401EDD9064624CEF8BEB41D2F1B5426D","019cfa5b-0c07-788b-80a6-17a113be2660","019cfa3a-388e-72ab-ad58-bdeb258f96cd","","null","
                <div class=""stimulus-container"">
                    <img src=""images/instructions/movie_1.png"" class=""exp-image"">
                    <div class=""question-area""></div> 
                </div>","null","","","","","","","","","","","",""
"","","","","","html-button-response","7","35231","0.0-7.0","401EDD9064624CEF8BEB41D2F1B5426D","019cfa5b-0c07-788b-80a6-17a113be2660","019cfa3a-388e-72ab-ad58-bdeb258f96cd","","null","
                <div class=""stimulus-container"">
                    <img src=""images/instructions/movie_1.png"" class=""exp-image"">
                    <div class=""question-area"">
                        <p style=""font-size: 20px; font-weight: bold; margin: 0;"">Was there a person in this image?</p>
                    </div>
                </div>","null","example_question","1","","","","","","","","","",""
"","","","","","html-keyboard-response","8","39236","0.0-8.0","401EDD9064624CEF8BEB41D2F1B5426D","019cfa5b-0c07-788b-80a6-17a113be2660","019cfa3a-388e-72ab-ad58-bdeb258f96cd","","null","
                <div class=""stimulus-container"">
                    <img src=""images/instructions/movie_2.png"" class=""exp-image"">
                    <div class=""question-area""></div> 
                </div>","null","","","","","","","","","","","",""
"","","","","","html-button-response","9","40419","0.0-9.0","401EDD9064624CEF8BEB41D2F1B5426D","019cfa5b-0c07-788b-80a6-17a113be2660","019cfa3a-388e-72ab-ad58-bdeb258f96cd","","1183","
                <div class=""stimulus-container"">
                    <img src=""images/instructions/movie_2.png"" class=""exp-image"">
                    <div class=""question-area"">
                        <p style=""font-size: 20px; font-weight: bold; margin: 0;"">Was there a person in this image?</p>
                    </div>
                </div>","0","example_question","2","","","","","","","","","",""
"","","","","","html-keyboard-response","10","44424","0.0-10.0","401EDD9064624CEF8BEB41D2F1B5426D","019cfa5b-0c07-788b-80a6-17a113be2660","019cfa3a-388e-72ab-ad58-bdeb258f96cd","","null","
                <div class=""stimulus-container"">
                    <img src=""images/instructions/movie_3.png"" class=""exp-image"">
                    <div class=""question-area""></div> 
                </div>","null","","","","","","","","","","","",""
"","","","","","html-button-response","11","45200","0.0-11.0","401EDD9064624CEF8BEB41D2F1B5426D","019cfa5b-0c07-788b-80a6-17a113be2660","019cfa3a-388e-72ab-ad58-bdeb258f96cd","","775","
                <div class=""stimulus-container"">
                    <img src=""images/instructions/movie_3.png"" class=""exp-image"">
                    <div class=""question-area"">
                        <p style=""font-size: 20px; font-weight: bold; margin: 0;"">Was there a person in this image?</p>
                    </div>
                </div>","0","example_question","3","","","","","","","","","",""
"","","","","","html-keyboard-response","12","49216","0.0-12.0","401EDD9064624CEF8BEB41D2F1B5426D","019cfa5b-0c07-788b-80a6-17a113be2660","019cfa3a-388e-72ab-ad58-bdeb258f96cd","","null","
                <div class=""stimulus-container"">
                    <img src=""images/instructions/movie_4.png"" class=""exp-image"">
                    <div class=""question-area""></div> 
                </div>","null","","","","","","","","","","","",""
"","","","","","html-button-response","13","50120","0.0-13.0","401EDD9064624CEF8BEB41D2F1B5426D","019cfa5b-0c07-788b-80a6-17a113be2660","019cfa3a-388e-72ab-ad58-bdeb258f96cd","","905","
                <div class=""stimulus-container"">
                    <img src=""images/instructions/movie_4.png"" class=""exp-image"">
                    <div class=""question-area"">
                        <p style=""font-size: 20px; font-weight: bold; margin: 0;"">Was there a person in this image?</p>
                    </div>
                </div>","0","example_question","4","","","","","","","","","",""
"","","","","","instructions","14","51571","0.0-14.0","401EDD9064624CEF8BEB41D2F1B5426D","019cfa5b-0c07-788b-80a6-17a113be2660","019cfa3a-388e-72ab-ad58-bdeb258f96cd","[{""page_index"":0,""viewing_time"":1450}]","1450","","","","","","","","","","","","","",""
"","","","","","instructions","15","56975","0.0-15.0","401EDD9064624CEF8BEB41D2F1B5426D","019cfa5b-0c07-788b-80a6-17a113be2660","019cfa3a-388e-72ab-ad58-bdeb258f96cd","[{""page_index"":0,""viewing_time"":5405}]","5405","","","","","","","","","","","","","",""
"","","","","","html-keyboard-response","16","61977","0.0-16.0","401EDD9064624CEF8BEB41D2F1B5426D","019cfa5b-0c07-788b-80a6-17a113be2660","019cfa3a-388e-72ab-ad58-bdeb258f96cd","","null","<div style=""background-color: white; width: 100vw; height: 100vh;""></div>","null","","","","","","","","","","","",""
"","","","","","html-keyboard-response","17","62978","0.0-17.0","401EDD9064624CEF8BEB41D2F1B5426D","019cfa5b-0c07-788b-80a6-17a113be2660","019cfa3a-388e-72ab-ad58-bdeb258f96cd","","null","
                <div class=""stimulus-container"">
                    <img src=""images/semantic_sequence/housework_semantic/housework_semantic_1.png"" class=""exp-image"">
                    <div class=""question-area""></div> 
                </div>","null","","","","","","","","","","","",""
"","","","","","html-button-response","18","64679","0.0-18.0","401EDD9064624CEF8BEB41D2F1B5426D","019cfa5b-0c07-788b-80a6-17a113be2660","019cfa3a-388e-72ab-ad58-bdeb258f96cd","","1701","
                <div class=""stimulus-container"">
                    <img src=""images/semantic_sequence/housework_semantic/housework_semantic_1.png"" class=""exp-image"">
                    <div class=""question-area"">
                        <p style=""font-size: 20px; font-weight: bold; margin: 0;"">Is there a person in this image?</p>
                    </div>
                </div>","0","main_experiment_trial","1","housework_semantic","semantic_sequence","chronological","","","","","","",""
"","","","","","html-keyboard-response","19","65686","0.0-19.0","401EDD9064624CEF8BEB41D2F1B5426D","019cfa5b-0c07-788b-80a6-17a113be2660","019cfa3a-388e-72ab-ad58-bdeb258f96cd","","null","
                <div class=""stimulus-container"">
                    <img src=""images/semantic_sequence/housework_semantic/housework_semantic_2.png"" class=""exp-image"">
                    <div class=""question-area""></div> 
                </div>","null","","","","","","","","","","","",""
"","","","","","html-button-response","20","66785","0.0-20.0","401EDD9064624CEF8BEB41D2F1B5426D","019cfa5b-0c07-788b-80a6-17a113be2660","019cfa3a-388e-72ab-ad58-bdeb258f96cd","","1099","
                <div class=""stimulus-container"">
                    <img src=""images/semantic_sequence/housework_semantic/housework_semantic_2.png"" class=""exp-image"">
                    <div class=""question-area"">
                        <p style=""font-size: 20px; font-weight: bold; margin: 0;"">Is there a person in this image?</p>
                    </div>
                </div>","0","main_experiment_trial","2","housework_semantic","semantic_sequence","chronological","","","","","","",""
"","","","","","html-keyboard-response","21","67800","0.0-21.0","401EDD9064624CEF8BEB41D2F1B5426D","019cfa5b-0c07-788b-80a6-17a113be2660","019cfa3a-388e-72ab-ad58-bdeb258f96cd","","null","
                <div class=""stimulus-container"">
                    <img src=""images/semantic_sequence/housework_semantic/housework_semantic_3.png"" class=""exp-image"">
                    <div class=""question-area""></div> 
                </div>","null","","","","","","","","","","","",""
"","","","","","html-button-response","22","68944","0.0-22.0","401EDD9064624CEF8BEB41D2F1B5426D","019cfa5b-0c07-788b-80a6-17a113be2660","019cfa3a-388e-72ab-ad58-bdeb258f96cd","","1143","
                <div class=""stimulus-container"">
                    <img src=""images/semantic_sequence/housework_semantic/housework_semantic_3.png"" class=""exp-image"">
                    <div class=""question-area"">
                        <p style=""font-size: 20px; font-weight: bold; margin: 0;"">Is there a person in this image?</p>
                    </div>
                </div>","0","main_experiment_trial","3","housework_semantic","semantic_sequence","chronological","","","","","","",""
"","","","","","html-keyboard-response","23","69948","0.0-23.0","401EDD9064624CEF8BEB41D2F1B5426D","019cfa5b-0c07-788b-80a6-17a113be2660","019cfa3a-388e-72ab-ad58-bdeb258f96cd","","null","
                <div class=""stimulus-container"">
                    <img src=""images/semantic_sequence/housework_semantic/housework_semantic_4.png"" class=""exp-image"">
                    <div class=""question-area""></div> 
                </div>","null","","","","","","","","","","","",""
"","","","","","html-button-response","24","71070","0.0-24.0","401EDD9064624CEF8BEB41D2F1B5426D","019cfa5b-0c07-788b-80a6-17a113be2660","019cfa3a-388e-72ab-ad58-bdeb258f96cd","","1122","
                <div class=""stimulus-container"">
                    <img src=""images/semantic_sequence/housework_semantic/housework_semantic_4.png"" class=""exp-image"">
                    <div class=""question-area"">
                        <p style=""font-size: 20px; font-weight: bold; margin: 0;"">Is there a person in this image?</p>
                    </div>
                </div>","0","main_experiment_trial","4","housework_semantic","semantic_sequence","chronological","","","","","","",""
"","","","","","html-keyboard-response","25","72075","0.0-25.0","401EDD9064624CEF8BEB41D2F1B5426D","019cfa5b-0c07-788b-80a6-17a113be2660","019cfa3a-388e-72ab-ad58-bdeb258f96cd","","null","
                <div class=""stimulus-container"">
                    <img src=""images/semantic_sequence/housework_semantic/housework_semantic_5.png"" class=""exp-image"">
                    <div class=""question-area""></div> 
                </div>","null","","","","","","","","","","","",""
"","","","","","html-button-response","26","73065","0.0-26.0","401EDD9064624CEF8BEB41D2F1B5426D","019cfa5b-0c07-788b-80a6-17a113be2660","019cfa3a-388e-72ab-ad58-bdeb258f96cd","","990","
                <div class=""stimulus-container"">
                    <img src=""images/semantic_sequence/housework_semantic/housework_semantic_5.png"" class=""exp-image"">
                    <div class=""question-area"">
                        <p style=""font-size: 20px; font-weight: bold; margin: 0;"">Is there a person in this image?</p>
                    </div>
                </div>","0","main_experiment_trial","5","housework_semantic","semantic_sequence","chronological","","","","","","",""
"","","","","","html-keyboard-response","27","74080","0.0-27.0","401EDD9064624CEF8BEB41D2F1B5426D","019cfa5b-0c07-788b-80a6-17a113be2660","019cfa3a-388e-72ab-ad58-bdeb258f96cd","","null","
                <div class=""stimulus-container"">
                    <img src=""images/semantic_sequence/housework_semantic/housework_semantic_6.png"" class=""exp-image"">
                    <div class=""question-area""></div> 
                </div>","null","","","","","","","","","","","",""
"","","","","","html-button-response","28","74910","0.0-28.0","401EDD9064624CEF8BEB41D2F1B5426D","019cfa5b-0c07-788b-80a6-17a113be2660","019cfa3a-388e-72ab-ad58-bdeb258f96cd","","830","
                <div class=""stimulus-container"">
                    <img src=""images/semantic_sequence/housework_semantic/housework_semantic_6.png"" class=""exp-image"">
                    <div class=""question-area"">
                        <p style=""font-size: 20px; font-weight: bold; margin: 0;"">Is there a person in this image?</p>
                    </div>
                </div>","0","main_experiment_trial","6","housework_semantic","semantic_sequence","chronological","","","","","","",""
"","","","","","html-keyboard-response","29","75921","0.0-29.0","401EDD9064624CEF8BEB41D2F1B5426D","019cfa5b-0c07-788b-80a6-17a113be2660","019cfa3a-388e-72ab-ad58-bdeb258f96cd","","null","
                <div class=""stimulus-container"">
                    <img src=""images/semantic_sequence/housework_semantic/housework_semantic_7.png"" class=""exp-image"">
                    <div class=""question-area""></div> 
                </div>","null","","","","","","","","","","","",""
"","","","","","html-button-response","30","78240","0.0-30.0","401EDD9064624CEF8BEB41D2F1B5426D","019cfa5b-0c07-788b-80a6-17a113be2660","019cfa3a-388e-72ab-ad58-bdeb258f96cd","","2319","
                <div class=""stimulus-container"">
                    <img src=""images/semantic_sequence/housework_semantic/housework_semantic_7.png"" class=""exp-image"">
                    <div class=""question-area"">
                        <p style=""font-size: 20px; font-weight: bold; margin: 0;"">Is there a person in this image?</p>
                    </div>
                </div>","0","main_experiment_trial","7","housework_semantic","semantic_sequence","chronological","","","","","","",""
"","","","","","html-keyboard-response","31","79253","0.0-31.0","401EDD9064624CEF8BEB41D2F1B5426D","019cfa5b-0c07-788b-80a6-17a113be2660","019cfa3a-388e-72ab-ad58-bdeb258f96cd","","null","
                <div class=""stimulus-container"">
                    <img src=""images/semantic_sequence/housework_semantic/housework_semantic_8.png"" class=""exp-image"">
                    <div class=""question-area""></div> 
                </div>","null","","","","","","","","","","","",""
"","","","","","html-button-response","32","80355","0.0-32.0","401EDD9064624CEF8BEB41D2F1B5426D","019cfa5b-0c07-788b-80a6-17a113be2660","019cfa3a-388e-72ab-ad58-bdeb258f96cd","","1102","
                <div class=""stimulus-container"">
                    <img src=""images/semantic_sequence/housework_semantic/housework_semantic_8.png"" class=""exp-image"">
                    <div class=""question-area"">
                        <p style=""font-size: 20px; font-weight: bold; margin: 0;"">Is there a person in this image?</p>
                    </div>
                </div>","0","main_experiment_trial","8","housework_semantic","semantic_sequence","chronological","","","","","","",""
"","","","","","html-keyboard-response","33","81359","0.0-33.0","401EDD9064624CEF8BEB41D2F1B5426D","019cfa5b-0c07-788b-80a6-17a113be2660","019cfa3a-388e-72ab-ad58-bdeb258f96cd","","null","
                <div class=""stimulus-container"">
                    <img src=""images/semantic_sequence/housework_semantic/housework_semantic_9.png"" class=""exp-image"">
                    <div class=""question-area""></div> 
                </div>","null","","","","","","","","","","","",""
"","","","","","html-button-response","34","82236","0.0-34.0","401EDD9064624CEF8BEB41D2F1B5426D","019cfa5b-0c07-788b-80a6-17a113be2660","019cfa3a-388e-72ab-ad58-bdeb258f96cd","","877","
                <div class=""stimulus-container"">
                    <img src=""images/semantic_sequence/housework_semantic/housework_semantic_9.png"" class=""exp-image"">
                    <div class=""question-area"">
                        <p style=""font-size: 20px; font-weight: bold; margin: 0;"">Is there a person in this image?</p>
                    </div>
                </div>","0","main_experiment_trial","9","housework_semantic","semantic_sequence","chronological","","","","","","",""
"","","","","","html-keyboard-response","35","83244","0.0-35.0","401EDD9064624CEF8BEB41D2F1B5426D","019cfa5b-0c07-788b-80a6-17a113be2660","019cfa3a-388e-72ab-ad58-bdeb258f96cd","","null","
                <div class=""stimulus-container"">
                    <img src=""images/semantic_sequence/housework_semantic/housework_semantic_ten.png"" class=""exp-image"">
                    <div class=""question-area""></div> 
                </div>","null","","","","","","","","","","","",""
"","","","","","html-button-response","36","84170","0.0-36.0","401EDD9064624CEF8BEB41D2F1B5426D","019cfa5b-0c07-788b-80a6-17a113be2660","019cfa3a-388e-72ab-ad58-bdeb258f96cd","","926","
                <div class=""stimulus-container"">
                    <img src=""images/semantic_sequence/housework_semantic/housework_semantic_ten.png"" class=""exp-image"">
                    <div class=""question-area"">
                        <p style=""font-size: 20px; font-weight: bold; margin: 0;"">Is there a person in this image?</p>
                    </div>
                </div>","0","main_experiment_trial","ten","housework_semantic","semantic_sequence","chronological","","","","","","",""
"","","","","","html-keyboard-response","37","89180","0.0-37.0","401EDD9064624CEF8BEB41D2F1B5426D","019cfa5b-0c07-788b-80a6-17a113be2660","019cfa3a-388e-72ab-ad58-bdeb258f96cd","","null","<div style=""background-color: white; width: 100vw; height: 100vh;""></div>","null","","","","","","","","","","","",""
"","","","","","html-keyboard-response","38","90188","0.0-38.0","401EDD9064624CEF8BEB41D2F1B5426D","019cfa5b-0c07-788b-80a6-17a113be2660","019cfa3a-388e-72ab-ad58-bdeb258f96cd","","null","
                <div class=""stimulus-container"">
                    <img src=""images/semantic_sequence/maintaining_a_car_semantic/maintaining_a_car_semantic_1.png"" class=""exp-image"">
                    <div class=""question-area""></div> 
                </div>","null","","","","","","","","","","","",""
"","","","","","html-button-response","39","91444","0.0-39.0","401EDD9064624CEF8BEB41D2F1B5426D","019cfa5b-0c07-788b-80a6-17a113be2660","019cfa3a-388e-72ab-ad58-bdeb258f96cd","","1255","
                <div class=""stimulus-container"">
                    <img src=""images/semantic_sequence/maintaining_a_car_semantic/maintaining_a_car_semantic_1.png"" class=""exp-image"">
                    <div class=""question-area"">
                        <p style=""font-size: 20px; font-weight: bold; margin: 0;"">Is there a person in this image?</p>
                    </div>
                </div>","0","main_experiment_trial","1","maintaining_a_car_semantic","semantic_sequence","chronological","","","","","","",""
"","","","","","html-keyboard-response","40","92453","0.0-40.0","401EDD9064624CEF8BEB41D2F1B5426D","019cfa5b-0c07-788b-80a6-17a113be2660","019cfa3a-388e-72ab-ad58-bdeb258f96cd","","null","
                <div class=""stimulus-container"">
                    <img src=""images/semantic_sequence/maintaining_a_car_semantic/maintaining_a_car_semantic_2.png"" class=""exp-image"">
                    <div class=""question-area""></div> 
                </div>","null","","","","","","","","","","","",""
"","","","","","html-button-response","41","93488","0.0-41.0","401EDD9064624CEF8BEB41D2F1B5426D","019cfa5b-0c07-788b-80a6-17a113be2660","019cfa3a-388e-72ab-ad58-bdeb258f96cd","","1035","
                <div class=""stimulus-container"">
                    <img src=""images/semantic_sequence/maintaining_a_car_semantic/maintaining_a_car_semantic_2.png"" class=""exp-image"">
                    <div class=""question-area"">
                        <p style=""font-size: 20px; font-weight: bold; margin: 0;"">Is there a person in this image?</p>
                    </div>
                </div>","0","main_experiment_trial","2","maintaining_a_car_semantic","semantic_sequence","chronological","","","","","","",""
"","","","","","html-keyboard-response","42","94493","0.0-42.0","401EDD9064624CEF8BEB41D2F1B5426D","019cfa5b-0c07-788b-80a6-17a113be2660","019cfa3a-388e-72ab-ad58-bdeb258f96cd","","null","
                <div class=""stimulus-container"">
                    <img src=""images/semantic_sequence/maintaining_a_car_semantic/maintaining_a_car_semantic_3.png"" class=""exp-image"">
                    <div class=""question-area""></div> 
                </div>","null","","","","","","","","","","","",""
"","","","","","html-button-response","43","95321","0.0-43.0","401EDD9064624CEF8BEB41D2F1B5426D","019cfa5b-0c07-788b-80a6-17a113be2660","019cfa3a-388e-72ab-ad58-bdeb258f96cd","","828","
                <div class=""stimulus-container"">
                    <img src=""images/semantic_sequence/maintaining_a_car_semantic/maintaining_a_car_semantic_3.png"" class=""exp-image"">
                    <div class=""question-area"">
                        <p style=""font-size: 20px; font-weight: bold; margin: 0;"">Is there a person in this image?</p>
                    </div>
                </div>","0","main_experiment_trial","3","maintaining_a_car_semantic","semantic_sequence","chronological","","","","","","",""
"","","","","","html-keyboard-response","44","96334","0.0-44.0","401EDD9064624CEF8BEB41D2F1B5426D","019cfa5b-0c07-788b-80a6-17a113be2660","019cfa3a-388e-72ab-ad58-bdeb258f96cd","","null","
                <div class=""stimulus-container"">
                    <img src=""images/semantic_sequence/maintaining_a_car_semantic/maintaining_a_car_semantic_4.png"" class=""exp-image"">
                    <div class=""question-area""></div> 
                </div>","null","","","","","","","","","","","",""
"","","","","","html-button-response","45","97374","0.0-45.0","401EDD9064624CEF8BEB41D2F1B5426D","019cfa5b-0c07-788b-80a6-17a113be2660","019cfa3a-388e-72ab-ad58-bdeb258f96cd","","1040","
                <div class=""stimulus-container"">
                    <img src=""images/semantic_sequence/maintaining_a_car_semantic/maintaining_a_car_semantic_4.png"" class=""exp-image"">
                    <div class=""question-area"">
                        <p style=""font-size: 20px; font-weight: bold; margin: 0;"">Is there a person in this image?</p>
                    </div>
                </div>","0","main_experiment_trial","4","maintaining_a_car_semantic","semantic_sequence","chronological","","","","","","",""
"","","","","","html-keyboard-response","46","98385","0.0-46.0","401EDD9064624CEF8BEB41D2F1B5426D","019cfa5b-0c07-788b-80a6-17a113be2660","019cfa3a-388e-72ab-ad58-bdeb258f96cd","","null","
                <div class=""stimulus-container"">
                    <img src=""images/semantic_sequence/maintaining_a_car_semantic/maintaining_a_car_semantic_5.png"" class=""exp-image"">
                    <div class=""question-area""></div> 
                </div>","null","","","","","","","","","","","",""
"","","","","","html-button-response","47","99068","0.0-47.0","401EDD9064624CEF8BEB41D2F1B5426D","019cfa5b-0c07-788b-80a6-17a113be2660","019cfa3a-388e-72ab-ad58-bdeb258f96cd","","682","
                <div class=""stimulus-container"">
                    <img src=""images/semantic_sequence/maintaining_a_car_semantic/maintaining_a_car_semantic_5.png"" class=""exp-image"">
                    <div class=""question-area"">
                        <p style=""font-size: 20px; font-weight: bold; margin: 0;"">Is there a person in this image?</p>
                    </div>
                </div>","0","main_experiment_trial","5","maintaining_a_car_semantic","semantic_sequence","chronological","","","","","","",""
"","","","","","html-keyboard-response","48","100076","0.0-48.0","401EDD9064624CEF8BEB41D2F1B5426D","019cfa5b-0c07-788b-80a6-17a113be2660","019cfa3a-388e-72ab-ad58-bdeb258f96cd","","null","
                <div class=""stimulus-container"">
                    <img src=""images/semantic_sequence/maintaining_a_car_semantic/maintaining_a_car_semantic_6.png"" class=""exp-image"">
                    <div class=""question-area""></div> 
                </div>","null","","","","","","","","","","","",""
"","","","","","html-button-response","49","100865","0.0-49.0","401EDD9064624CEF8BEB41D2F1B5426D","019cfa5b-0c07-788b-80a6-17a113be2660","019cfa3a-388e-72ab-ad58-bdeb258f96cd","","789","
                <div class=""stimulus-container"">
                    <img src=""images/semantic_sequence/maintaining_a_car_semantic/maintaining_a_car_semantic_6.png"" class=""exp-image"">
                    <div class=""question-area"">
                        <p style=""font-size: 20px; font-weight: bold; margin: 0;"">Is there a person in this image?</p>
                    </div>
                </div>","0","main_experiment_trial","6","maintaining_a_car_semantic","semantic_sequence","chronological","","","","","","",""
"","","","","","html-keyboard-response","50","101870","0.0-50.0","401EDD9064624CEF8BEB41D2F1B5426D","019cfa5b-0c07-788b-80a6-17a113be2660","019cfa3a-388e-72ab-ad58-bdeb258f96cd","","null","
                <div class=""stimulus-container"">
                    <img src=""images/semantic_sequence/maintaining_a_car_semantic/maintaining_a_car_semantic_7.png"" class=""exp-image"">
                    <div class=""question-area""></div> 
                </div>","null","","","","","","","","","","","",""
"","","","","","html-button-response","51","102980","0.0-51.0","401EDD9064624CEF8BEB41D2F1B5426D","019cfa5b-0c07-788b-80a6-17a113be2660","019cfa3a-388e-72ab-ad58-bdeb258f96cd","","1110","
                <div class=""stimulus-container"">
                    <img src=""images/semantic_sequence/maintaining_a_car_semantic/maintaining_a_car_semantic_7.png"" class=""exp-image"">
                    <div class=""question-area"">
                        <p style=""font-size: 20px; font-weight: bold; margin: 0;"">Is there a person in this image?</p>
                    </div>
                </div>","0","main_experiment_trial","7","maintaining_a_car_semantic","semantic_sequence","chronological","","","","","","",""
"","","","","","html-keyboard-response","52","103989","0.0-52.0","401EDD9064624CEF8BEB41D2F1B5426D","019cfa5b-0c07-788b-80a6-17a113be2660","019cfa3a-388e-72ab-ad58-bdeb258f96cd","","null","
                <div class=""stimulus-container"">
                    <img src=""images/semantic_sequence/maintaining_a_car_semantic/maintaining_a_car_semantic_8.png"" class=""exp-image"">
                    <div class=""question-area""></div> 
                </div>","null","","","","","","","","","","","",""
"","","","","","html-button-response","53","104896","0.0-53.0","401EDD9064624CEF8BEB41D2F1B5426D","019cfa5b-0c07-788b-80a6-17a113be2660","019cfa3a-388e-72ab-ad58-bdeb258f96cd","","906","
                <div class=""stimulus-container"">
                    <img src=""images/semantic_sequence/maintaining_a_car_semantic/maintaining_a_car_semantic_8.png"" class=""exp-image"">
                    <div class=""question-area"">
                        <p style=""font-size: 20px; font-weight: bold; margin: 0;"">Is there a person in this image?</p>
                    </div>
                </div>","0","main_experiment_trial","8","maintaining_a_car_semantic","semantic_sequence","chronological","","","","","","",""
"","","","","","html-keyboard-response","54","105906","0.0-54.0","401EDD9064624CEF8BEB41D2F1B5426D","019cfa5b-0c07-788b-80a6-17a113be2660","019cfa3a-388e-72ab-ad58-bdeb258f96cd","","null","
                <div class=""stimulus-container"">
                    <img src=""images/semantic_sequence/maintaining_a_car_semantic/maintaining_a_car_semantic_9.png"" class=""exp-image"">
                    <div class=""question-area""></div> 
                </div>","null","","","","","","","","","","","",""
"","","","","","html-button-response","55","106896","0.0-55.0","401EDD9064624CEF8BEB41D2F1B5426D","019cfa5b-0c07-788b-80a6-17a113be2660","019cfa3a-388e-72ab-ad58-bdeb258f96cd","","990","
                <div class=""stimulus-container"">
                    <img src=""images/semantic_sequence/maintaining_a_car_semantic/maintaining_a_car_semantic_9.png"" class=""exp-image"">
                    <div class=""question-area"">
                        <p style=""font-size: 20px; font-weight: bold; margin: 0;"">Is there a person in this image?</p>
                    </div>
                </div>","0","main_experiment_trial","9","maintaining_a_car_semantic","semantic_sequence","chronological","","","","","","",""
"","","","","","html-keyboard-response","56","107902","0.0-56.0","401EDD9064624CEF8BEB41D2F1B5426D","019cfa5b-0c07-788b-80a6-17a113be2660","019cfa3a-388e-72ab-ad58-bdeb258f96cd","","null","
                <div class=""stimulus-container"">
                    <img src=""images/semantic_sequence/maintaining_a_car_semantic/maintaining_a_car_semantic_ten.png"" class=""exp-image"">
                    <div class=""question-area""></div> 
                </div>","null","","","","","","","","","","","",""
"","","","","","html-button-response","57","108741","0.0-57.0","401EDD9064624CEF8BEB41D2F1B5426D","019cfa5b-0c07-788b-80a6-17a113be2660","019cfa3a-388e-72ab-ad58-bdeb258f96cd","","838","
                <div class=""stimulus-container"">
                    <img src=""images/semantic_sequence/maintaining_a_car_semantic/maintaining_a_car_semantic_ten.png"" class=""exp-image"">
                    <div class=""question-area"">
                        <p style=""font-size: 20px; font-weight: bold; margin: 0;"">Is there a person in this image?</p>
                    </div>
                </div>","0","main_experiment_trial","ten","maintaining_a_car_semantic","semantic_sequence","chronological","","","","","","",""
"","","","","","html-keyboard-response","58","113750","0.0-58.0","401EDD9064624CEF8BEB41D2F1B5426D","019cfa5b-0c07-788b-80a6-17a113be2660","019cfa3a-388e-72ab-ad58-bdeb258f96cd","","null","<div style=""background-color: white; width: 100vw; height: 100vh;""></div>","null","","","","","","","","","","","",""
"","","","","","html-keyboard-response","59","114762","0.0-59.0","401EDD9064624CEF8BEB41D2F1B5426D","019cfa5b-0c07-788b-80a6-17a113be2660","019cfa3a-388e-72ab-ad58-bdeb258f96cd","","null","
                <div class=""stimulus-container"">
                    <img src=""images/semantic_sequence/redecorating_a_house_semantic/redecorating_a_house_semantic_1.png"" class=""exp-image"">
                    <div class=""question-area""></div> 
                </div>","null","","","","","","","","","","","",""
"","","","","","html-button-response","60","116386","0.0-60.0","401EDD9064624CEF8BEB41D2F1B5426D","019cfa5b-0c07-788b-80a6-17a113be2660","019cfa3a-388e-72ab-ad58-bdeb258f96cd","","1623","
                <div class=""stimulus-container"">
                    <img src=""images/semantic_sequence/redecorating_a_house_semantic/redecorating_a_house_semantic_1.png"" class=""exp-image"">
                    <div class=""question-area"">
                        <p style=""font-size: 20px; font-weight: bold; margin: 0;"">Is there a person in this image?</p>
                    </div>
                </div>","0","main_experiment_trial","1","redecorating_a_house_semantic","semantic_sequence","chronological","","","","","","",""
"","","","","","html-keyboard-response","61","117395","0.0-61.0","401EDD9064624CEF8BEB41D2F1B5426D","019cfa5b-0c07-788b-80a6-17a113be2660","019cfa3a-388e-72ab-ad58-bdeb258f96cd","","null","
                <div class=""stimulus-container"">
                    <img src=""images/semantic_sequence/redecorating_a_house_semantic/redecorating_a_house_semantic_2.png"" class=""exp-image"">
                    <div class=""question-area""></div> 
                </div>","null","","","","","","","","","","","",""
"","","","","","html-button-response","62","118416","0.0-62.0","401EDD9064624CEF8BEB41D2F1B5426D","019cfa5b-0c07-788b-80a6-17a113be2660","019cfa3a-388e-72ab-ad58-bdeb258f96cd","","1021","
                <div class=""stimulus-container"">
                    <img src=""images/semantic_sequence/redecorating_a_house_semantic/redecorating_a_house_semantic_2.png"" class=""exp-image"">
                    <div class=""question-area"">
                        <p style=""font-size: 20px; font-weight: bold; margin: 0;"">Is there a person in this image?</p>
                    </div>
                </div>","0","main_experiment_trial","2","redecorating_a_house_semantic","semantic_sequence","chronological","","","","","","",""
"","","","","","html-keyboard-response","63","119428","0.0-63.0","401EDD9064624CEF8BEB41D2F1B5426D","019cfa5b-0c07-788b-80a6-17a113be2660","019cfa3a-388e-72ab-ad58-bdeb258f96cd","","null","
                <div class=""stimulus-container"">
                    <img src=""images/semantic_sequence/redecorating_a_house_semantic/redecorating_a_house_semantic_3.png"" class=""exp-image"">
                    <div class=""question-area""></div> 
                </div>","null","","","","","","","","","","","",""
"","","","","","html-button-response","64","120171","0.0-64.0","401EDD9064624CEF8BEB41D2F1B5426D","019cfa5b-0c07-788b-80a6-17a113be2660","019cfa3a-388e-72ab-ad58-bdeb258f96cd","","743","
                <div class=""stimulus-container"">
                    <img src=""images/semantic_sequence/redecorating_a_house_semantic/redecorating_a_house_semantic_3.png"" class=""exp-image"">
                    <div class=""question-area"">
                        <p style=""font-size: 20px; font-weight: bold; margin: 0;"">Is there a person in this image?</p>
                    </div>
                </div>","0","main_experiment_trial","3","redecorating_a_house_semantic","semantic_sequence","chronological","","","","","","",""
"","","","","","html-keyboard-response","65","121185","0.0-65.0","401EDD9064624CEF8BEB41D2F1B5426D","019cfa5b-0c07-788b-80a6-17a113be2660","019cfa3a-388e-72ab-ad58-bdeb258f96cd","","null","
                <div class=""stimulus-container"">
                    <img src=""images/semantic_sequence/redecorating_a_house_semantic/redecorating_a_house_semantic_4.png"" class=""exp-image"">
                    <div class=""question-area""></div> 
                </div>","null","","","","","","","","","","","",""
"","","","","","html-button-response","66","121889","0.0-66.0","401EDD9064624CEF8BEB41D2F1B5426D","019cfa5b-0c07-788b-80a6-17a113be2660","019cfa3a-388e-72ab-ad58-bdeb258f96cd","","703","
                <div class=""stimulus-container"">
                    <img src=""images/semantic_sequence/redecorating_a_house_semantic/redecorating_a_house_semantic_4.png"" class=""exp-image"">
                    <div class=""question-area"">
                        <p style=""font-size: 20px; font-weight: bold; margin: 0;"">Is there a person in this image?</p>
                    </div>
                </div>","0","main_experiment_trial","4","redecorating_a_house_semantic","semantic_sequence","chronological","","","","","","",""
"","","","","","html-keyboard-response","67","122902","0.0-67.0","401EDD9064624CEF8BEB41D2F1B5426D","019cfa5b-0c07-788b-80a6-17a113be2660","019cfa3a-388e-72ab-ad58-bdeb258f96cd","","null","
                <div class=""stimulus-container"">
                    <img src=""images/semantic_sequence/redecorating_a_house_semantic/redecorating_a_house_semantic_5.png"" class=""exp-image"">
                    <div class=""question-area""></div> 
                </div>","null","","","","","","","","","","","",""
"","","","","","html-button-response","68","123756","0.0-68.0","401EDD9064624CEF8BEB41D2F1B5426D","019cfa5b-0c07-788b-80a6-17a113be2660","019cfa3a-388e-72ab-ad58-bdeb258f96cd","","854","
                <div class=""stimulus-container"">
                    <img src=""images/semantic_sequence/redecorating_a_house_semantic/redecorating_a_house_semantic_5.png"" class=""exp-image"">
                    <div class=""question-area"">
                        <p style=""font-size: 20px; font-weight: bold; margin: 0;"">Is there a person in this image?</p>
                    </div>
                </div>","0","main_experiment_trial","5","redecorating_a_house_semantic","semantic_sequence","chronological","","","","","","",""
"","","","","","html-keyboard-response","69","124771","0.0-69.0","401EDD9064624CEF8BEB41D2F1B5426D","019cfa5b-0c07-788b-80a6-17a113be2660","019cfa3a-388e-72ab-ad58-bdeb258f96cd","","null","
                <div class=""stimulus-container"">
                    <img src=""images/semantic_sequence/redecorating_a_house_semantic/redecorating_a_house_semantic_6.png"" class=""exp-image"">
                    <div class=""question-area""></div> 
                </div>","null","","","","","","","","","","","",""
"","","","","","html-button-response","70","125536","0.0-70.0","401EDD9064624CEF8BEB41D2F1B5426D","019cfa5b-0c07-788b-80a6-17a113be2660","019cfa3a-388e-72ab-ad58-bdeb258f96cd","","764","
                <div class=""stimulus-container"">
                    <img src=""images/semantic_sequence/redecorating_a_house_semantic/redecorating_a_house_semantic_6.png"" class=""exp-image"">
                    <div class=""question-area"">
                        <p style=""font-size: 20px; font-weight: bold; margin: 0;"">Is there a person in this image?</p>
                    </div>
                </div>","0","main_experiment_trial","6","redecorating_a_house_semantic","semantic_sequence","chronological","","","","","","",""
"","","","","","html-keyboard-response","71","126538","0.0-71.0","401EDD9064624CEF8BEB41D2F1B5426D","019cfa5b-0c07-788b-80a6-17a113be2660","019cfa3a-388e-72ab-ad58-bdeb258f96cd","","null","
                <div class=""stimulus-container"">
                    <img src=""images/semantic_sequence/redecorating_a_house_semantic/redecorating_a_house_semantic_7.png"" class=""exp-image"">
                    <div class=""question-area""></div> 
                </div>","null","","","","","","","","","","","",""
"","","","","","html-button-response","72","127492","0.0-72.0","401EDD9064624CEF8BEB41D2F1B5426D","019cfa5b-0c07-788b-80a6-17a113be2660","019cfa3a-388e-72ab-ad58-bdeb258f96cd","","954","
                <div class=""stimulus-container"">
                    <img src=""images/semantic_sequence/redecorating_a_house_semantic/redecorating_a_house_semantic_7.png"" class=""exp-image"">
                    <div class=""question-area"">
                        <p style=""font-size: 20px; font-weight: bold; margin: 0;"">Is there a person in this image?</p>
                    </div>
                </div>","0","main_experiment_trial","7","redecorating_a_house_semantic","semantic_sequence","chronological","","","","","","",""
"","","","","","html-keyboard-response","73","128498","0.0-73.0","401EDD9064624CEF8BEB41D2F1B5426D","019cfa5b-0c07-788b-80a6-17a113be2660","019cfa3a-388e-72ab-ad58-bdeb258f96cd","","null","
                <div class=""stimulus-container"">
                    <img src=""images/semantic_sequence/redecorating_a_house_semantic/redecorating_a_house_semantic_8.png"" class=""exp-image"">
                    <div class=""question-area""></div> 
                </div>","null","","","","","","","","","","","",""
"","","","","","html-button-response","74","129256","0.0-74.0","401EDD9064624CEF8BEB41D2F1B5426D","019cfa5b-0c07-788b-80a6-17a113be2660","019cfa3a-388e-72ab-ad58-bdeb258f96cd","","758","
                <div class=""stimulus-container"">
                    <img src=""images/semantic_sequence/redecorating_a_house_semantic/redecorating_a_house_semantic_8.png"" class=""exp-image"">
                    <div class=""question-area"">
                        <p style=""font-size: 20px; font-weight: bold; margin: 0;"">Is there a person in this image?</p>
                    </div>
                </div>","0","main_experiment_trial","8","redecorating_a_house_semantic","semantic_sequence","chronological","","","","","","",""
"","","","","","html-keyboard-response","75","130267","0.0-75.0","401EDD9064624CEF8BEB41D2F1B5426D","019cfa5b-0c07-788b-80a6-17a113be2660","019cfa3a-388e-72ab-ad58-bdeb258f96cd","","null","
                <div class=""stimulus-container"">
                    <img src=""images/semantic_sequence/redecorating_a_house_semantic/redecorating_a_house_semantic_9.png"" class=""exp-image"">
                    <div class=""question-area""></div> 
                </div>","null","","","","","","","","","","","",""
"","","","","","html-button-response","76","131074","0.0-76.0","401EDD9064624CEF8BEB41D2F1B5426D","019cfa5b-0c07-788b-80a6-17a113be2660","019cfa3a-388e-72ab-ad58-bdeb258f96cd","","807","
                <div class=""stimulus-container"">
                    <img src=""images/semantic_sequence/redecorating_a_house_semantic/redecorating_a_house_semantic_9.png"" class=""exp-image"">
                    <div class=""question-area"">
                        <p style=""font-size: 20px; font-weight: bold; margin: 0;"">Is there a person in this image?</p>
                    </div>
                </div>","0","main_experiment_trial","9","redecorating_a_house_semantic","semantic_sequence","chronological","","","","","","",""
"","","","","","html-keyboard-response","77","132088","0.0-77.0","401EDD9064624CEF8BEB41D2F1B5426D","019cfa5b-0c07-788b-80a6-17a113be2660","019cfa3a-388e-72ab-ad58-bdeb258f96cd","","null","
                <div class=""stimulus-container"">
                    <img src=""images/semantic_sequence/redecorating_a_house_semantic/redecorating_a_house_semantic_ten.png"" class=""exp-image"">
                    <div class=""question-area""></div> 
                </div>","null","","","","","","","","","","","",""
"","","","","","html-button-response","78","132901","0.0-78.0","401EDD9064624CEF8BEB41D2F1B5426D","019cfa5b-0c07-788b-80a6-17a113be2660","019cfa3a-388e-72ab-ad58-bdeb258f96cd","","812","
                <div class=""stimulus-container"">
                    <img src=""images/semantic_sequence/redecorating_a_house_semantic/redecorating_a_house_semantic_ten.png"" class=""exp-image"">
                    <div class=""question-area"">
                        <p style=""font-size: 20px; font-weight: bold; margin: 0;"">Is there a person in this image?</p>
                    </div>
                </div>","0","main_experiment_trial","ten","redecorating_a_house_semantic","semantic_sequence","chronological","","","","","","",""
"","","","","","html-keyboard-response","79","137910","0.0-79.0","401EDD9064624CEF8BEB41D2F1B5426D","019cfa5b-0c07-788b-80a6-17a113be2660","019cfa3a-388e-72ab-ad58-bdeb258f96cd","","null","<div style=""background-color: white; width: 100vw; height: 100vh;""></div>","null","","","","","","","","","","","",""
"","","","","","html-keyboard-response","80","138920","0.0-80.0","401EDD9064624CEF8BEB41D2F1B5426D","019cfa5b-0c07-788b-80a6-17a113be2660","019cfa3a-388e-72ab-ad58-bdeb258f96cd","","null","
                <div class=""stimulus-container"">
                    <img src=""images/causal_sequence/coin_causal/coin_causal_1.png"" class=""exp-image"">
                    <div class=""question-area""></div> 
                </div>","null","","","","","","","","","","","",""
"","","","","","html-button-response","81","140241","0.0-81.0","401EDD9064624CEF8BEB41D2F1B5426D","019cfa5b-0c07-788b-80a6-17a113be2660","019cfa3a-388e-72ab-ad58-bdeb258f96cd","","1321","
                <div class=""stimulus-container"">
                    <img src=""images/causal_sequence/coin_causal/coin_causal_1.png"" class=""exp-image"">
                    <div class=""question-area"">
                        <p style=""font-size: 20px; font-weight: bold; margin: 0;"">Is there a person in this image?</p>
                    </div>
                </div>","0","main_experiment_trial","1","coin_causal","causal_sequence","chronological","","","","","","",""
"","","","","","html-keyboard-response","82","141251","0.0-82.0","401EDD9064624CEF8BEB41D2F1B5426D","019cfa5b-0c07-788b-80a6-17a113be2660","019cfa3a-388e-72ab-ad58-bdeb258f96cd","","null","
                <div class=""stimulus-container"">
                    <img src=""images/causal_sequence/coin_causal/coin_causal_2.png"" class=""exp-image"">
                    <div class=""question-area""></div> 
                </div>","null","","","","","","","","","","","",""
"","","","","","html-button-response","83","142156","0.0-83.0","401EDD9064624CEF8BEB41D2F1B5426D","019cfa5b-0c07-788b-80a6-17a113be2660","019cfa3a-388e-72ab-ad58-bdeb258f96cd","","905","
                <div class=""stimulus-container"">
                    <img src=""images/causal_sequence/coin_causal/coin_causal_2.png"" class=""exp-image"">
                    <div class=""question-area"">
                        <p style=""font-size: 20px; font-weight: bold; margin: 0;"">Is there a person in this image?</p>
                    </div>
                </div>","0","main_experiment_trial","2","coin_causal","causal_sequence","chronological","","","","","","",""
"","","","","","html-keyboard-response","84","143159","0.0-84.0","401EDD9064624CEF8BEB41D2F1B5426D","019cfa5b-0c07-788b-80a6-17a113be2660","019cfa3a-388e-72ab-ad58-bdeb258f96cd","","null","
                <div class=""stimulus-container"">
                    <img src=""images/causal_sequence/coin_causal/coin_causal_3.png"" class=""exp-image"">
                    <div class=""question-area""></div> 
                </div>","null","","","","","","","","","","","",""
"","","","","","html-button-response","85","144066","0.0-85.0","401EDD9064624CEF8BEB41D2F1B5426D","019cfa5b-0c07-788b-80a6-17a113be2660","019cfa3a-388e-72ab-ad58-bdeb258f96cd","","907","
                <div class=""stimulus-container"">
                    <img src=""images/causal_sequence/coin_causal/coin_causal_3.png"" class=""exp-image"">
                    <div class=""question-area"">
                        <p style=""font-size: 20px; font-weight: bold; margin: 0;"">Is there a person in this image?</p>
                    </div>
                </div>","0","main_experiment_trial","3","coin_causal","causal_sequence","chronological","","","","","","",""
"","","","","","html-keyboard-response","86","145075","0.0-86.0","401EDD9064624CEF8BEB41D2F1B5426D","019cfa5b-0c07-788b-80a6-17a113be2660","019cfa3a-388e-72ab-ad58-bdeb258f96cd","","null","
                <div class=""stimulus-container"">
                    <img src=""images/causal_sequence/coin_causal/coin_causal_4.png"" class=""exp-image"">
                    <div class=""question-area""></div> 
                </div>","null","","","","","","","","","","","",""
"","","","","","html-button-response","87","146336","0.0-87.0","401EDD9064624CEF8BEB41D2F1B5426D","019cfa5b-0c07-788b-80a6-17a113be2660","019cfa3a-388e-72ab-ad58-bdeb258f96cd","","1261","
                <div class=""stimulus-container"">
                    <img src=""images/causal_sequence/coin_causal/coin_causal_4.png"" class=""exp-image"">
                    <div class=""question-area"">
                        <p style=""font-size: 20px; font-weight: bold; margin: 0;"">Is there a person in this image?</p>
                    </div>
                </div>","0","main_experiment_trial","4","coin_causal","causal_sequence","chronological","","","","","","",""
"","","","","","html-keyboard-response","88","147346","0.0-88.0","401EDD9064624CEF8BEB41D2F1B5426D","019cfa5b-0c07-788b-80a6-17a113be2660","019cfa3a-388e-72ab-ad58-bdeb258f96cd","","null","
                <div class=""stimulus-container"">
                    <img src=""images/causal_sequence/coin_causal/coin_causal_5.png"" class=""exp-image"">
                    <div class=""question-area""></div> 
                </div>","null","","","","","","","","","","","",""
"","","","","","html-button-response","89","148451","0.0-89.0","401EDD9064624CEF8BEB41D2F1B5426D","019cfa5b-0c07-788b-80a6-17a113be2660","019cfa3a-388e-72ab-ad58-bdeb258f96cd","","1104","
                <div class=""stimulus-container"">
                    <img src=""images/causal_sequence/coin_causal/coin_causal_5.png"" class=""exp-image"">
                    <div class=""question-area"">
                        <p style=""font-size: 20px; font-weight: bold; margin: 0;"">Is there a person in this image?</p>
                    </div>
                </div>","0","main_experiment_trial","5","coin_causal","causal_sequence","chronological","","","","","","",""
"","","","","","html-keyboard-response","90","149460","0.0-90.0","401EDD9064624CEF8BEB41D2F1B5426D","019cfa5b-0c07-788b-80a6-17a113be2660","019cfa3a-388e-72ab-ad58-bdeb258f96cd","","null","
                <div class=""stimulus-container"">
                    <img src=""images/causal_sequence/coin_causal/coin_causal_6.png"" class=""exp-image"">
                    <div class=""question-area""></div> 
                </div>","null","","","","","","","","","","","",""
"","","","","","html-button-response","91","150361","0.0-91.0","401EDD9064624CEF8BEB41D2F1B5426D","019cfa5b-0c07-788b-80a6-17a113be2660","019cfa3a-388e-72ab-ad58-bdeb258f96cd","","900","
                <div class=""stimulus-container"">
                    <img src=""images/causal_sequence/coin_causal/coin_causal_6.png"" class=""exp-image"">
                    <div class=""question-area"">
                        <p style=""font-size: 20px; font-weight: bold; margin: 0;"">Is there a person in this image?</p>
                    </div>
                </div>","0","main_experiment_trial","6","coin_causal","causal_sequence","chronological","","","","","","",""
"","","","","","html-keyboard-response","92","151364","0.0-92.0","401EDD9064624CEF8BEB41D2F1B5426D","019cfa5b-0c07-788b-80a6-17a113be2660","019cfa3a-388e-72ab-ad58-bdeb258f96cd","","null","
                <div class=""stimulus-container"">
                    <img src=""images/causal_sequence/coin_causal/coin_causal_7.png"" class=""exp-image"">
                    <div class=""question-area""></div> 
                </div>","null","","","","","","","","","","","",""
"","","","","","html-button-response","93","152381","0.0-93.0","401EDD9064624CEF8BEB41D2F1B5426D","019cfa5b-0c07-788b-80a6-17a113be2660","019cfa3a-388e-72ab-ad58-bdeb258f96cd","","1017","
                <div class=""stimulus-container"">
                    <img src=""images/causal_sequence/coin_causal/coin_causal_7.png"" class=""exp-image"">
                    <div class=""question-area"">
                        <p style=""font-size: 20px; font-weight: bold; margin: 0;"">Is there a person in this image?</p>
                    </div>
                </div>","0","main_experiment_trial","7","coin_causal","causal_sequence","chronological","","","","","","",""
"","","","","","html-keyboard-response","94","153391","0.0-94.0","401EDD9064624CEF8BEB41D2F1B5426D","019cfa5b-0c07-788b-80a6-17a113be2660","019cfa3a-388e-72ab-ad58-bdeb258f96cd","","null","
                <div class=""stimulus-container"">
                    <img src=""images/causal_sequence/coin_causal/coin_causal_8.png"" class=""exp-image"">
                    <div class=""question-area""></div> 
                </div>","null","","","","","","","","","","","",""
"","","","","","html-button-response","95","154386","0.0-95.0","401EDD9064624CEF8BEB41D2F1B5426D","019cfa5b-0c07-788b-80a6-17a113be2660","019cfa3a-388e-72ab-ad58-bdeb258f96cd","","994","
                <div class=""stimulus-container"">
                    <img src=""images/causal_sequence/coin_causal/coin_causal_8.png"" class=""exp-image"">
                    <div class=""question-area"">
                        <p style=""font-size: 20px; font-weight: bold; margin: 0;"">Is there a person in this image?</p>
                    </div>
                </div>","0","main_experiment_trial","8","coin_causal","causal_sequence","chronological","","","","","","",""
"","","","","","html-keyboard-response","96","155402","0.0-96.0","401EDD9064624CEF8BEB41D2F1B5426D","019cfa5b-0c07-788b-80a6-17a113be2660","019cfa3a-388e-72ab-ad58-bdeb258f96cd","","null","
                <div class=""stimulus-container"">
                    <img src=""images/causal_sequence/coin_causal/coin_causal_9.png"" class=""exp-image"">
                    <div class=""question-area""></div> 
                </div>","null","","","","","","","","","","","",""
"","","","","","html-button-response","97","157121","0.0-97.0","401EDD9064624CEF8BEB41D2F1B5426D","019cfa5b-0c07-788b-80a6-17a113be2660","019cfa3a-388e-72ab-ad58-bdeb258f96cd","","1719","
                <div class=""stimulus-container"">
                    <img src=""images/causal_sequence/coin_causal/coin_causal_9.png"" class=""exp-image"">
                    <div class=""question-area"">
                        <p style=""font-size: 20px; font-weight: bold; margin: 0;"">Is there a person in this image?</p>
                    </div>
                </div>","0","main_experiment_trial","9","coin_causal","causal_sequence","chronological","","","","","","",""
"","","","","","html-keyboard-response","98","158127","0.0-98.0","401EDD9064624CEF8BEB41D2F1B5426D","019cfa5b-0c07-788b-80a6-17a113be2660","019cfa3a-388e-72ab-ad58-bdeb258f96cd","","null","
                <div class=""stimulus-container"">
                    <img src=""images/causal_sequence/coin_causal/coin_causal_ten.png"" class=""exp-image"">
                    <div class=""question-area""></div> 
                </div>","null","","","","","","","","","","","",""
"","","","","","html-button-response","99","159071","0.0-99.0","401EDD9064624CEF8BEB41D2F1B5426D","019cfa5b-0c07-788b-80a6-17a113be2660","019cfa3a-388e-72ab-ad58-bdeb258f96cd","","944","
                <div class=""stimulus-container"">
                    <img src=""images/causal_sequence/coin_causal/coin_causal_ten.png"" class=""exp-image"">
                    <div class=""question-area"">
                        <p style=""font-size: 20px; font-weight: bold; margin: 0;"">Is there a person in this image?</p>
                    </div>
                </div>","0","main_experiment_trial","ten","coin_causal","causal_sequence","chronological","","","","","","",""
"","","","","","html-keyboard-response","100","164073","0.0-100.0","401EDD9064624CEF8BEB41D2F1B5426D","019cfa5b-0c07-788b-80a6-17a113be2660","019cfa3a-388e-72ab-ad58-bdeb258f96cd","","null","<div style=""background-color: white; width: 100vw; height: 100vh;""></div>","null","","","","","","","","","","","",""
"","","","","","html-keyboard-response","101","165081","0.0-101.0","401EDD9064624CEF8BEB41D2F1B5426D","019cfa5b-0c07-788b-80a6-17a113be2660","019cfa3a-388e-72ab-ad58-bdeb258f96cd","","null","
                <div class=""stimulus-container"">
                    <img src=""images/semantic_sequence/kitchen_operations_semantic/kitchen_operations_semantic_1.png"" class=""exp-image"">
                    <div class=""question-area""></div> 
                </div>","null","","","","","","","","","","","",""
"","","","","","html-button-response","102","166028","0.0-102.0","401EDD9064624CEF8BEB41D2F1B5426D","019cfa5b-0c07-788b-80a6-17a113be2660","019cfa3a-388e-72ab-ad58-bdeb258f96cd","","947","
                <div class=""stimulus-container"">
                    <img src=""images/semantic_sequence/kitchen_operations_semantic/kitchen_operations_semantic_1.png"" class=""exp-image"">
                    <div class=""question-area"">
                        <p style=""font-size: 20px; font-weight: bold; margin: 0;"">Is there a person in this image?</p>
                    </div>
                </div>","0","main_experiment_trial","1","kitchen_operations_semantic","semantic_sequence","chronological","","","","","","",""
"","","","","","html-keyboard-response","103","167040","0.0-103.0","401EDD9064624CEF8BEB41D2F1B5426D","019cfa5b-0c07-788b-80a6-17a113be2660","019cfa3a-388e-72ab-ad58-bdeb258f96cd","","null","
                <div class=""stimulus-container"">
                    <img src=""images/semantic_sequence/kitchen_operations_semantic/kitchen_operations_semantic_2.png"" class=""exp-image"">
                    <div class=""question-area""></div> 
                </div>","null","","","","","","","","","","","",""
"","","","","","html-button-response","104","168011","0.0-104.0","401EDD9064624CEF8BEB41D2F1B5426D","019cfa5b-0c07-788b-80a6-17a113be2660","019cfa3a-388e-72ab-ad58-bdeb258f96cd","","971","
                <div class=""stimulus-container"">
                    <img src=""images/semantic_sequence/kitchen_operations_semantic/kitchen_operations_semantic_2.png"" class=""exp-image"">
                    <div class=""question-area"">
                        <p style=""font-size: 20px; font-weight: bold; margin: 0;"">Is there a person in this image?</p>
                    </div>
                </div>","0","main_experiment_trial","2","kitchen_operations_semantic","semantic_sequence","chronological","","","","","","",""
"","","","","","html-keyboard-response","105","169021","0.0-105.0","401EDD9064624CEF8BEB41D2F1B5426D","019cfa5b-0c07-788b-80a6-17a113be2660","019cfa3a-388e-72ab-ad58-bdeb258f96cd","","null","
                <div class=""stimulus-container"">
                    <img src=""images/semantic_sequence/kitchen_operations_semantic/kitchen_operations_semantic_3.png"" class=""exp-image"">
                    <div class=""question-area""></div> 
                </div>","null","","","","","","","","","","","",""
"","","","","","html-button-response","106","169844","0.0-106.0","401EDD9064624CEF8BEB41D2F1B5426D","019cfa5b-0c07-788b-80a6-17a113be2660","019cfa3a-388e-72ab-ad58-bdeb258f96cd","","823","
                <div class=""stimulus-container"">
                    <img src=""images/semantic_sequence/kitchen_operations_semantic/kitchen_operations_semantic_3.png"" class=""exp-image"">
                    <div class=""question-area"">
                        <p style=""font-size: 20px; font-weight: bold; margin: 0;"">Is there a person in this image?</p>
                    </div>
                </div>","0","main_experiment_trial","3","kitchen_operations_semantic","semantic_sequence","chronological","","","","","","",""
"","","","","","html-keyboard-response","107","170851","0.0-107.0","401EDD9064624CEF8BEB41D2F1B5426D","019cfa5b-0c07-788b-80a6-17a113be2660","019cfa3a-388e-72ab-ad58-bdeb258f96cd","","null","
                <div class=""stimulus-container"">
                    <img src=""images/semantic_sequence/kitchen_operations_semantic/kitchen_operations_semantic_4.png"" class=""exp-image"">
                    <div class=""question-area""></div> 
                </div>","null","","","","","","","","","","","",""
"","","","","","html-button-response","108","171524","0.0-108.0","401EDD9064624CEF8BEB41D2F1B5426D","019cfa5b-0c07-788b-80a6-17a113be2660","019cfa3a-388e-72ab-ad58-bdeb258f96cd","","673","
                <div class=""stimulus-container"">
                    <img src=""images/semantic_sequence/kitchen_operations_semantic/kitchen_operations_semantic_4.png"" class=""exp-image"">
                    <div class=""question-area"">
                        <p style=""font-size: 20px; font-weight: bold; margin: 0;"">Is there a person in this image?</p>
                    </div>
                </div>","0","main_experiment_trial","4","kitchen_operations_semantic","semantic_sequence","chronological","","","","","","",""
"","","","","","html-keyboard-response","109","172527","0.0-109.0","401EDD9064624CEF8BEB41D2F1B5426D","019cfa5b-0c07-788b-80a6-17a113be2660","019cfa3a-388e-72ab-ad58-bdeb258f96cd","","null","
                <div class=""stimulus-container"">
                    <img src=""images/semantic_sequence/kitchen_operations_semantic/kitchen_operations_semantic_5.png"" class=""exp-image"">
                    <div class=""question-area""></div> 
                </div>","null","","","","","","","","","","","",""
"","","","","","html-button-response","110","173401","0.0-110.0","401EDD9064624CEF8BEB41D2F1B5426D","019cfa5b-0c07-788b-80a6-17a113be2660","019cfa3a-388e-72ab-ad58-bdeb258f96cd","","874","
                <div class=""stimulus-container"">
                    <img src=""images/semantic_sequence/kitchen_operations_semantic/kitchen_operations_semantic_5.png"" class=""exp-image"">
                    <div class=""question-area"">
                        <p style=""font-size: 20px; font-weight: bold; margin: 0;"">Is there a person in this image?</p>
                    </div>
                </div>","0","main_experiment_trial","5","kitchen_operations_semantic","semantic_sequence","chronological","","","","","","",""
"","","","","","html-keyboard-response","111","174415","0.0-111.0","401EDD9064624CEF8BEB41D2F1B5426D","019cfa5b-0c07-788b-80a6-17a113be2660","019cfa3a-388e-72ab-ad58-bdeb258f96cd","","null","
                <div class=""stimulus-container"">
                    <img src=""images/semantic_sequence/kitchen_operations_semantic/kitchen_operations_semantic_6.png"" class=""exp-image"">
                    <div class=""question-area""></div> 
                </div>","null","","","","","","","","","","","",""
"","","","","","html-button-response","112","175301","0.0-112.0","401EDD9064624CEF8BEB41D2F1B5426D","019cfa5b-0c07-788b-80a6-17a113be2660","019cfa3a-388e-72ab-ad58-bdeb258f96cd","","885","
                <div class=""stimulus-container"">
                    <img src=""images/semantic_sequence/kitchen_operations_semantic/kitchen_operations_semantic_6.png"" class=""exp-image"">
                    <div class=""question-area"">
                        <p style=""font-size: 20px; font-weight: bold; margin: 0;"">Is there a person in this image?</p>
                    </div>
                </div>","0","main_experiment_trial","6","kitchen_operations_semantic","semantic_sequence","chronological","","","","","","",""
"","","","","","html-keyboard-response","113","176304","0.0-113.0","401EDD9064624CEF8BEB41D2F1B5426D","019cfa5b-0c07-788b-80a6-17a113be2660","019cfa3a-388e-72ab-ad58-bdeb258f96cd","","null","
                <div class=""stimulus-container"">
                    <img src=""images/semantic_sequence/kitchen_operations_semantic/kitchen_operations_semantic_7.png"" class=""exp-image"">
                    <div class=""question-area""></div> 
                </div>","null","","","","","","","","","","","",""
"","","","","","html-button-response","114","176966","0.0-114.0","401EDD9064624CEF8BEB41D2F1B5426D","019cfa5b-0c07-788b-80a6-17a113be2660","019cfa3a-388e-72ab-ad58-bdeb258f96cd","","662","
                <div class=""stimulus-container"">
                    <img src=""images/semantic_sequence/kitchen_operations_semantic/kitchen_operations_semantic_7.png"" class=""exp-image"">
                    <div class=""question-area"">
                        <p style=""font-size: 20px; font-weight: bold; margin: 0;"">Is there a person in this image?</p>
                    </div>
                </div>","0","main_experiment_trial","7","kitchen_operations_semantic","semantic_sequence","chronological","","","","","","",""
"","","","","","html-keyboard-response","115","177981","0.0-115.0","401EDD9064624CEF8BEB41D2F1B5426D","019cfa5b-0c07-788b-80a6-17a113be2660","019cfa3a-388e-72ab-ad58-bdeb258f96cd","","null","
                <div class=""stimulus-container"">
                    <img src=""images/semantic_sequence/kitchen_operations_semantic/kitchen_operations_semantic_8.png"" class=""exp-image"">
                    <div class=""question-area""></div> 
                </div>","null","","","","","","","","","","","",""
"","","","","","html-button-response","116","178584","0.0-116.0","401EDD9064624CEF8BEB41D2F1B5426D","019cfa5b-0c07-788b-80a6-17a113be2660","019cfa3a-388e-72ab-ad58-bdeb258f96cd","","603","
                <div class=""stimulus-container"">
                    <img src=""images/semantic_sequence/kitchen_operations_semantic/kitchen_operations_semantic_8.png"" class=""exp-image"">
                    <div class=""question-area"">
                        <p style=""font-size: 20px; font-weight: bold; margin: 0;"">Is there a person in this image?</p>
                    </div>
                </div>","0","main_experiment_trial","8","kitchen_operations_semantic","semantic_sequence","chronological","","","","","","",""
"","","","","","html-keyboard-response","117","179595","0.0-117.0","401EDD9064624CEF8BEB41D2F1B5426D","019cfa5b-0c07-788b-80a6-17a113be2660","019cfa3a-388e-72ab-ad58-bdeb258f96cd","","null","
                <div class=""stimulus-container"">
                    <img src=""images/semantic_sequence/kitchen_operations_semantic/kitchen_operations_semantic_9.png"" class=""exp-image"">
                    <div class=""question-area""></div> 
                </div>","null","","","","","","","","","","","",""
"","","","","","html-button-response","118","180293","0.0-118.0","401EDD9064624CEF8BEB41D2F1B5426D","019cfa5b-0c07-788b-80a6-17a113be2660","019cfa3a-388e-72ab-ad58-bdeb258f96cd","","698","
                <div class=""stimulus-container"">
                    <img src=""images/semantic_sequence/kitchen_operations_semantic/kitchen_operations_semantic_9.png"" class=""exp-image"">
                    <div class=""question-area"">
                        <p style=""font-size: 20px; font-weight: bold; margin: 0;"">Is there a person in this image?</p>
                    </div>
                </div>","0","main_experiment_trial","9","kitchen_operations_semantic","semantic_sequence","chronological","","","","","","",""
"","","","","","html-keyboard-response","119","181295","0.0-119.0","401EDD9064624CEF8BEB41D2F1B5426D","019cfa5b-0c07-788b-80a6-17a113be2660","019cfa3a-388e-72ab-ad58-bdeb258f96cd","","null","
                <div class=""stimulus-container"">
                    <img src=""images/semantic_sequence/kitchen_operations_semantic/kitchen_operations_semantic_ten.png"" class=""exp-image"">
                    <div class=""question-area""></div> 
                </div>","null","","","","","","","","","","","",""
"","","","","","html-button-response","120","181984","0.0-120.0","401EDD9064624CEF8BEB41D2F1B5426D","019cfa5b-0c07-788b-80a6-17a113be2660","019cfa3a-388e-72ab-ad58-bdeb258f96cd","","689","
                <div class=""stimulus-container"">
                    <img src=""images/semantic_sequence/kitchen_operations_semantic/kitchen_operations_semantic_ten.png"" class=""exp-image"">
                    <div class=""question-area"">
                        <p style=""font-size: 20px; font-weight: bold; margin: 0;"">Is there a person in this image?</p>
                    </div>
                </div>","0","main_experiment_trial","ten","kitchen_operations_semantic","semantic_sequence","chronological","","","","","","",""
"","","","","","html-keyboard-response","121","186987","0.0-121.0","401EDD9064624CEF8BEB41D2F1B5426D","019cfa5b-0c07-788b-80a6-17a113be2660","019cfa3a-388e-72ab-ad58-bdeb258f96cd","","null","<div style=""background-color: white; width: 100vw; height: 100vh;""></div>","null","","","","","","","","","","","",""
"","","","","","html-keyboard-response","122","187988","0.0-122.0","401EDD9064624CEF8BEB41D2F1B5426D","019cfa5b-0c07-788b-80a6-17a113be2660","019cfa3a-388e-72ab-ad58-bdeb258f96cd","","null","
                <div class=""stimulus-container"">
                    <img src=""images/semantic_sequence/cat_care_semantic/cat_care_semantic_1.png"" class=""exp-image"">
                    <div class=""question-area""></div> 
                </div>","null","","","","","","","","","","","",""
"","","","","","html-button-response","123","189084","0.0-123.0","401EDD9064624CEF8BEB41D2F1B5426D","019cfa5b-0c07-788b-80a6-17a113be2660","019cfa3a-388e-72ab-ad58-bdeb258f96cd","","1096","
                <div class=""stimulus-container"">
                    <img src=""images/semantic_sequence/cat_care_semantic/cat_care_semantic_1.png"" class=""exp-image"">
                    <div class=""question-area"">
                        <p style=""font-size: 20px; font-weight: bold; margin: 0;"">Is there a person in this image?</p>
                    </div>
                </div>","0","main_experiment_trial","1","cat_care_semantic","semantic_sequence","chronological","","","","","","",""
"","","","","","html-keyboard-response","124","190088","0.0-124.0","401EDD9064624CEF8BEB41D2F1B5426D","019cfa5b-0c07-788b-80a6-17a113be2660","019cfa3a-388e-72ab-ad58-bdeb258f96cd","","null","
                <div class=""stimulus-container"">
                    <img src=""images/semantic_sequence/cat_care_semantic/cat_care_semantic_2.png"" class=""exp-image"">
                    <div class=""question-area""></div> 
                </div>","null","","","","","","","","","","","",""
"","","","","","html-button-response","125","191036","0.0-125.0","401EDD9064624CEF8BEB41D2F1B5426D","019cfa5b-0c07-788b-80a6-17a113be2660","019cfa3a-388e-72ab-ad58-bdeb258f96cd","","948","
                <div class=""stimulus-container"">
                    <img src=""images/semantic_sequence/cat_care_semantic/cat_care_semantic_2.png"" class=""exp-image"">
                    <div class=""question-area"">
                        <p style=""font-size: 20px; font-weight: bold; margin: 0;"">Is there a person in this image?</p>
                    </div>
                </div>","0","main_experiment_trial","2","cat_care_semantic","semantic_sequence","chronological","","","","","","",""
"","","","","","html-keyboard-response","126","192045","0.0-126.0","401EDD9064624CEF8BEB41D2F1B5426D","019cfa5b-0c07-788b-80a6-17a113be2660","019cfa3a-388e-72ab-ad58-bdeb258f96cd","","null","
                <div class=""stimulus-container"">
                    <img src=""images/semantic_sequence/cat_care_semantic/cat_care_semantic_3.png"" class=""exp-image"">
                    <div class=""question-area""></div> 
                </div>","null","","","","","","","","","","","",""
"","","","","","html-button-response","127","192986","0.0-127.0","401EDD9064624CEF8BEB41D2F1B5426D","019cfa5b-0c07-788b-80a6-17a113be2660","019cfa3a-388e-72ab-ad58-bdeb258f96cd","","940","
                <div class=""stimulus-container"">
                    <img src=""images/semantic_sequence/cat_care_semantic/cat_care_semantic_3.png"" class=""exp-image"">
                    <div class=""question-area"">
                        <p style=""font-size: 20px; font-weight: bold; margin: 0;"">Is there a person in this image?</p>
                    </div>
                </div>","0","main_experiment_trial","3","cat_care_semantic","semantic_sequence","chronological","","","","","","",""
"","","","","","html-keyboard-response","128","193997","0.0-128.0","401EDD9064624CEF8BEB41D2F1B5426D","019cfa5b-0c07-788b-80a6-17a113be2660","019cfa3a-388e-72ab-ad58-bdeb258f96cd","","null","
                <div class=""stimulus-container"">
                    <img src=""images/semantic_sequence/cat_care_semantic/cat_care_semantic_4.png"" class=""exp-image"">
                    <div class=""question-area""></div> 
                </div>","null","","","","","","","","","","","",""
"","","","","","html-button-response","129","194781","0.0-129.0","401EDD9064624CEF8BEB41D2F1B5426D","019cfa5b-0c07-788b-80a6-17a113be2660","019cfa3a-388e-72ab-ad58-bdeb258f96cd","","784","
                <div class=""stimulus-container"">
                    <img src=""images/semantic_sequence/cat_care_semantic/cat_care_semantic_4.png"" class=""exp-image"">
                    <div class=""question-area"">
                        <p style=""font-size: 20px; font-weight: bold; margin: 0;"">Is there a person in this image?</p>
                    </div>
                </div>","0","main_experiment_trial","4","cat_care_semantic","semantic_sequence","chronological","","","","","","",""
"","","","","","html-keyboard-response","130","195789","0.0-130.0","401EDD9064624CEF8BEB41D2F1B5426D","019cfa5b-0c07-788b-80a6-17a113be2660","019cfa3a-388e-72ab-ad58-bdeb258f96cd","","null","
                <div class=""stimulus-container"">
                    <img src=""images/semantic_sequence/cat_care_semantic/cat_care_semantic_5.png"" class=""exp-image"">
                    <div class=""question-area""></div> 
                </div>","null","","","","","","","","","","","",""
"","","","","","html-button-response","131","196531","0.0-131.0","401EDD9064624CEF8BEB41D2F1B5426D","019cfa5b-0c07-788b-80a6-17a113be2660","019cfa3a-388e-72ab-ad58-bdeb258f96cd","","742","
                <div class=""stimulus-container"">
                    <img src=""images/semantic_sequence/cat_care_semantic/cat_care_semantic_5.png"" class=""exp-image"">
                    <div class=""question-area"">
                        <p style=""font-size: 20px; font-weight: bold; margin: 0;"">Is there a person in this image?</p>
                    </div>
                </div>","0","main_experiment_trial","5","cat_care_semantic","semantic_sequence","chronological","","","","","","",""
"","","","","","html-keyboard-response","132","197540","0.0-132.0","401EDD9064624CEF8BEB41D2F1B5426D","019cfa5b-0c07-788b-80a6-17a113be2660","019cfa3a-388e-72ab-ad58-bdeb258f96cd","","null","
                <div class=""stimulus-container"">
                    <img src=""images/semantic_sequence/cat_care_semantic/cat_care_semantic_6.png"" class=""exp-image"">
                    <div class=""question-area""></div> 
                </div>","null","","","","","","","","","","","",""
"","","","","","html-button-response","133","198507","0.0-133.0","401EDD9064624CEF8BEB41D2F1B5426D","019cfa5b-0c07-788b-80a6-17a113be2660","019cfa3a-388e-72ab-ad58-bdeb258f96cd","","967","
                <div class=""stimulus-container"">
                    <img src=""images/semantic_sequence/cat_care_semantic/cat_care_semantic_6.png"" class=""exp-image"">
                    <div class=""question-area"">
                        <p style=""font-size: 20px; font-weight: bold; margin: 0;"">Is there a person in this image?</p>
                    </div>
                </div>","0","main_experiment_trial","6","cat_care_semantic","semantic_sequence","chronological","","","","","","",""
"","","","","","html-keyboard-response","134","199515","0.0-134.0","401EDD9064624CEF8BEB41D2F1B5426D","019cfa5b-0c07-788b-80a6-17a113be2660","019cfa3a-388e-72ab-ad58-bdeb258f96cd","","null","
                <div class=""stimulus-container"">
                    <img src=""images/semantic_sequence/cat_care_semantic/cat_care_semantic_7.png"" class=""exp-image"">
                    <div class=""question-area""></div> 
                </div>","null","","","","","","","","","","","",""
"","","","","","html-button-response","135","200357","0.0-135.0","401EDD9064624CEF8BEB41D2F1B5426D","019cfa5b-0c07-788b-80a6-17a113be2660","019cfa3a-388e-72ab-ad58-bdeb258f96cd","","841","
                <div class=""stimulus-container"">
                    <img src=""images/semantic_sequence/cat_care_semantic/cat_care_semantic_7.png"" class=""exp-image"">
                    <div class=""question-area"">
                        <p style=""font-size: 20px; font-weight: bold; margin: 0;"">Is there a person in this image?</p>
                    </div>
                </div>","0","main_experiment_trial","7","cat_care_semantic","semantic_sequence","chronological","","","","","","",""
"","","","","","html-keyboard-response","136","201372","0.0-136.0","401EDD9064624CEF8BEB41D2F1B5426D","019cfa5b-0c07-788b-80a6-17a113be2660","019cfa3a-388e-72ab-ad58-bdeb258f96cd","","null","
                <div class=""stimulus-container"">
                    <img src=""images/semantic_sequence/cat_care_semantic/cat_care_semantic_8.png"" class=""exp-image"">
                    <div class=""question-area""></div> 
                </div>","null","","","","","","","","","","","",""
"","","","","","html-button-response","137","202116","0.0-137.0","401EDD9064624CEF8BEB41D2F1B5426D","019cfa5b-0c07-788b-80a6-17a113be2660","019cfa3a-388e-72ab-ad58-bdeb258f96cd","","744","
                <div class=""stimulus-container"">
                    <img src=""images/semantic_sequence/cat_care_semantic/cat_care_semantic_8.png"" class=""exp-image"">
                    <div class=""question-area"">
                        <p style=""font-size: 20px; font-weight: bold; margin: 0;"">Is there a person in this image?</p>
                    </div>
                </div>","0","main_experiment_trial","8","cat_care_semantic","semantic_sequence","chronological","","","","","","",""
"","","","","","html-keyboard-response","138","203130","0.0-138.0","401EDD9064624CEF8BEB41D2F1B5426D","019cfa5b-0c07-788b-80a6-17a113be2660","019cfa3a-388e-72ab-ad58-bdeb258f96cd","","null","
                <div class=""stimulus-container"">
                    <img src=""images/semantic_sequence/cat_care_semantic/cat_care_semantic_9.png"" class=""exp-image"">
                    <div class=""question-area""></div> 
                </div>","null","","","","","","","","","","","",""
"","","","","","html-button-response","139","203836","0.0-139.0","401EDD9064624CEF8BEB41D2F1B5426D","019cfa5b-0c07-788b-80a6-17a113be2660","019cfa3a-388e-72ab-ad58-bdeb258f96cd","","706","
                <div class=""stimulus-container"">
                    <img src=""images/semantic_sequence/cat_care_semantic/cat_care_semantic_9.png"" class=""exp-image"">
                    <div class=""question-area"">
                        <p style=""font-size: 20px; font-weight: bold; margin: 0;"">Is there a person in this image?</p>
                    </div>
                </div>","0","main_experiment_trial","9","cat_care_semantic","semantic_sequence","chronological","","","","","","",""
"","","","","","html-keyboard-response","140","204850","0.0-140.0","401EDD9064624CEF8BEB41D2F1B5426D","019cfa5b-0c07-788b-80a6-17a113be2660","019cfa3a-388e-72ab-ad58-bdeb258f96cd","","null","
                <div class=""stimulus-container"">
                    <img src=""images/semantic_sequence/cat_care_semantic/cat_care_semantic_ten.png"" class=""exp-image"">
                    <div class=""question-area""></div> 
                </div>","null","","","","","","","","","","","",""
"","","","","","html-button-response","141","205651","0.0-141.0","401EDD9064624CEF8BEB41D2F1B5426D","019cfa5b-0c07-788b-80a6-17a113be2660","019cfa3a-388e-72ab-ad58-bdeb258f96cd","","801","
                <div class=""stimulus-container"">
                    <img src=""images/semantic_sequence/cat_care_semantic/cat_care_semantic_ten.png"" class=""exp-image"">
                    <div class=""question-area"">
                        <p style=""font-size: 20px; font-weight: bold; margin: 0;"">Is there a person in this image?</p>
                    </div>
                </div>","1","main_experiment_trial","ten","cat_care_semantic","semantic_sequence","chronological","","","","","","",""
"","","","","","html-keyboard-response","142","210655","0.0-142.0","401EDD9064624CEF8BEB41D2F1B5426D","019cfa5b-0c07-788b-80a6-17a113be2660","019cfa3a-388e-72ab-ad58-bdeb258f96cd","","null","<div style=""background-color: white; width: 100vw; height: 100vh;""></div>","null","","","","","","","","","","","",""
"","","","","","html-keyboard-response","143","211669","0.0-143.0","401EDD9064624CEF8BEB41D2F1B5426D","019cfa5b-0c07-788b-80a6-17a113be2660","019cfa3a-388e-72ab-ad58-bdeb258f96cd","","null","
                <div class=""stimulus-container"">
                    <img src=""images/semantic_sequence/self_care_activities_semantic/self_care_activities_semantic_1.png"" class=""exp-image"">
                    <div class=""question-area""></div> 
                </div>","null","","","","","","","","","","","",""
"","","","","","html-button-response","144","212465","0.0-144.0","401EDD9064624CEF8BEB41D2F1B5426D","019cfa5b-0c07-788b-80a6-17a113be2660","019cfa3a-388e-72ab-ad58-bdeb258f96cd","","796","
                <div class=""stimulus-container"">
                    <img src=""images/semantic_sequence/self_care_activities_semantic/self_care_activities_semantic_1.png"" class=""exp-image"">
                    <div class=""question-area"">
                        <p style=""font-size: 20px; font-weight: bold; margin: 0;"">Is there a person in this image?</p>
                    </div>
                </div>","0","main_experiment_trial","1","self_care_activities_semantic","semantic_sequence","chronological","","","","","","",""
"","","","","","html-keyboard-response","145","213481","0.0-145.0","401EDD9064624CEF8BEB41D2F1B5426D","019cfa5b-0c07-788b-80a6-17a113be2660","019cfa3a-388e-72ab-ad58-bdeb258f96cd","","null","
                <div class=""stimulus-container"">
                    <img src=""images/semantic_sequence/self_care_activities_semantic/self_care_activities_semantic_2.png"" class=""exp-image"">
                    <div class=""question-area""></div> 
                </div>","null","","","","","","","","","","","",""
"","","","","","html-button-response","146","216491","0.0-146.0","401EDD9064624CEF8BEB41D2F1B5426D","019cfa5b-0c07-788b-80a6-17a113be2660","019cfa3a-388e-72ab-ad58-bdeb258f96cd","","null","
                <div class=""stimulus-container"">
                    <img src=""images/semantic_sequence/self_care_activities_semantic/self_care_activities_semantic_2.png"" class=""exp-image"">
                    <div class=""question-area"">
                        <p style=""font-size: 20px; font-weight: bold; margin: 0;"">Is there a person in this image?</p>
                    </div>
                </div>","null","main_experiment_trial","2","self_care_activities_semantic","semantic_sequence","chronological","","","","","","",""
"","","","","","html-keyboard-response","147","217499","0.0-147.0","401EDD9064624CEF8BEB41D2F1B5426D","019cfa5b-0c07-788b-80a6-17a113be2660","019cfa3a-388e-72ab-ad58-bdeb258f96cd","","null","
                <div class=""stimulus-container"">
                    <img src=""images/semantic_sequence/self_care_activities_semantic/self_care_activities_semantic_3.png"" class=""exp-image"">
                    <div class=""question-area""></div> 
                </div>","null","","","","","","","","","","","",""
"","","","","","html-button-response","148","218321","0.0-148.0","401EDD9064624CEF8BEB41D2F1B5426D","019cfa5b-0c07-788b-80a6-17a113be2660","019cfa3a-388e-72ab-ad58-bdeb258f96cd","","822","
                <div class=""stimulus-container"">
                    <img src=""images/semantic_sequence/self_care_activities_semantic/self_care_activities_semantic_3.png"" class=""exp-image"">
                    <div class=""question-area"">
                        <p style=""font-size: 20px; font-weight: bold; margin: 0;"">Is there a person in this image?</p>
                    </div>
                </div>","0","main_experiment_trial","3","self_care_activities_semantic","semantic_sequence","chronological","","","","","","",""
"","","","","","html-keyboard-response","149","219326","0.0-149.0","401EDD9064624CEF8BEB41D2F1B5426D","019cfa5b-0c07-788b-80a6-17a113be2660","019cfa3a-388e-72ab-ad58-bdeb258f96cd","","null","
                <div class=""stimulus-container"">
                    <img src=""images/semantic_sequence/self_care_activities_semantic/self_care_activities_semantic_4.png"" class=""exp-image"">
                    <div class=""question-area""></div> 
                </div>","null","","","","","","","","","","","",""
"","","","","","html-button-response","150","220118","0.0-150.0","401EDD9064624CEF8BEB41D2F1B5426D","019cfa5b-0c07-788b-80a6-17a113be2660","019cfa3a-388e-72ab-ad58-bdeb258f96cd","","792","
                <div class=""stimulus-container"">
                    <img src=""images/semantic_sequence/self_care_activities_semantic/self_care_activities_semantic_4.png"" class=""exp-image"">
                    <div class=""question-area"">
                        <p style=""font-size: 20px; font-weight: bold; margin: 0;"">Is there a person in this image?</p>
                    </div>
                </div>","0","main_experiment_trial","4","self_care_activities_semantic","semantic_sequence","chronological","","","","","","",""
"","","","","","html-keyboard-response","151","221121","0.0-151.0","401EDD9064624CEF8BEB41D2F1B5426D","019cfa5b-0c07-788b-80a6-17a113be2660","019cfa3a-388e-72ab-ad58-bdeb258f96cd","","null","
                <div class=""stimulus-container"">
                    <img src=""images/semantic_sequence/self_care_activities_semantic/self_care_activities_semantic_5.png"" class=""exp-image"">
                    <div class=""question-area""></div> 
                </div>","null","","","","","","","","","","","",""
"","","","","","html-button-response","152","221849","0.0-152.0","401EDD9064624CEF8BEB41D2F1B5426D","019cfa5b-0c07-788b-80a6-17a113be2660","019cfa3a-388e-72ab-ad58-bdeb258f96cd","","727","
                <div class=""stimulus-container"">
                    <img src=""images/semantic_sequence/self_care_activities_semantic/self_care_activities_semantic_5.png"" class=""exp-image"">
                    <div class=""question-area"">
                        <p style=""font-size: 20px; font-weight: bold; margin: 0;"">Is there a person in this image?</p>
                    </div>
                </div>","0","main_experiment_trial","5","self_care_activities_semantic","semantic_sequence","chronological","","","","","","",""
"","","","","","html-keyboard-response","153","222862","0.0-153.0","401EDD9064624CEF8BEB41D2F1B5426D","019cfa5b-0c07-788b-80a6-17a113be2660","019cfa3a-388e-72ab-ad58-bdeb258f96cd","","null","
                <div class=""stimulus-container"">
                    <img src=""images/semantic_sequence/self_care_activities_semantic/self_care_activities_semantic_6.png"" class=""exp-image"">
                    <div class=""question-area""></div> 
                </div>","null","","","","","","","","","","","",""
"","","","","","html-button-response","154","223653","0.0-154.0","401EDD9064624CEF8BEB41D2F1B5426D","019cfa5b-0c07-788b-80a6-17a113be2660","019cfa3a-388e-72ab-ad58-bdeb258f96cd","","791","
                <div class=""stimulus-container"">
                    <img src=""images/semantic_sequence/self_care_activities_semantic/self_care_activities_semantic_6.png"" class=""exp-image"">
                    <div class=""question-area"">
                        <p style=""font-size: 20px; font-weight: bold; margin: 0;"">Is there a person in this image?</p>
                    </div>
                </div>","1","main_experiment_trial","6","self_care_activities_semantic","semantic_sequence","chronological","","","","","","",""
"","","","","","html-keyboard-response","155","224655","0.0-155.0","401EDD9064624CEF8BEB41D2F1B5426D","019cfa5b-0c07-788b-80a6-17a113be2660","019cfa3a-388e-72ab-ad58-bdeb258f96cd","","null","
                <div class=""stimulus-container"">
                    <img src=""images/semantic_sequence/self_care_activities_semantic/self_care_activities_semantic_7.png"" class=""exp-image"">
                    <div class=""question-area""></div> 
                </div>","null","","","","","","","","","","","",""
"","","","","","html-button-response","156","225796","0.0-156.0","401EDD9064624CEF8BEB41D2F1B5426D","019cfa5b-0c07-788b-80a6-17a113be2660","019cfa3a-388e-72ab-ad58-bdeb258f96cd","","1141","
                <div class=""stimulus-container"">
                    <img src=""images/semantic_sequence/self_care_activities_semantic/self_care_activities_semantic_7.png"" class=""exp-image"">
                    <div class=""question-area"">
                        <p style=""font-size: 20px; font-weight: bold; margin: 0;"">Is there a person in this image?</p>
                    </div>
                </div>","0","main_experiment_trial","7","self_care_activities_semantic","semantic_sequence","chronological","","","","","","",""
"","","","","","html-keyboard-response","157","226809","0.0-157.0","401EDD9064624CEF8BEB41D2F1B5426D","019cfa5b-0c07-788b-80a6-17a113be2660","019cfa3a-388e-72ab-ad58-bdeb258f96cd","","null","
                <div class=""stimulus-container"">
                    <img src=""images/semantic_sequence/self_care_activities_semantic/self_care_activities_semantic_8.png"" class=""exp-image"">
                    <div class=""question-area""></div> 
                </div>","null","","","","","","","","","","","",""
"","","","","","html-button-response","158","227611","0.0-158.0","401EDD9064624CEF8BEB41D2F1B5426D","019cfa5b-0c07-788b-80a6-17a113be2660","019cfa3a-388e-72ab-ad58-bdeb258f96cd","","801","
                <div class=""stimulus-container"">
                    <img src=""images/semantic_sequence/self_care_activities_semantic/self_care_activities_semantic_8.png"" class=""exp-image"">
                    <div class=""question-area"">
                        <p style=""font-size: 20px; font-weight: bold; margin: 0;"">Is there a person in this image?</p>
                    </div>
                </div>","0","main_experiment_trial","8","self_care_activities_semantic","semantic_sequence","chronological","","","","","","",""
"","","","","","html-keyboard-response","159","228625","0.0-159.0","401EDD9064624CEF8BEB41D2F1B5426D","019cfa5b-0c07-788b-80a6-17a113be2660","019cfa3a-388e-72ab-ad58-bdeb258f96cd","","null","
                <div class=""stimulus-container"">
                    <img src=""images/semantic_sequence/self_care_activities_semantic/self_care_activities_semantic_9.png"" class=""exp-image"">
                    <div class=""question-area""></div> 
                </div>","null","","","","","","","","","","","",""
"","","","","","html-button-response","160","229471","0.0-160.0","401EDD9064624CEF8BEB41D2F1B5426D","019cfa5b-0c07-788b-80a6-17a113be2660","019cfa3a-388e-72ab-ad58-bdeb258f96cd","","846","
                <div class=""stimulus-container"">
                    <img src=""images/semantic_sequence/self_care_activities_semantic/self_care_activities_semantic_9.png"" class=""exp-image"">
                    <div class=""question-area"">
                        <p style=""font-size: 20px; font-weight: bold; margin: 0;"">Is there a person in this image?</p>
                    </div>
                </div>","0","main_experiment_trial","9","self_care_activities_semantic","semantic_sequence","chronological","","","","","","",""
"","","","","","html-keyboard-response","161","230483","0.0-161.0","401EDD9064624CEF8BEB41D2F1B5426D","019cfa5b-0c07-788b-80a6-17a113be2660","019cfa3a-388e-72ab-ad58-bdeb258f96cd","","null","
                <div class=""stimulus-container"">
                    <img src=""images/semantic_sequence/self_care_activities_semantic/self_care_activities_semantic_ten.png"" class=""exp-image"">
                    <div class=""question-area""></div> 
                </div>","null","","","","","","","","","","","",""
"","","","","","html-button-response","162","231440","0.0-162.0","401EDD9064624CEF8BEB41D2F1B5426D","019cfa5b-0c07-788b-80a6-17a113be2660","019cfa3a-388e-72ab-ad58-bdeb258f96cd","","957","
                <div class=""stimulus-container"">
                    <img src=""images/semantic_sequence/self_care_activities_semantic/self_care_activities_semantic_ten.png"" class=""exp-image"">
                    <div class=""question-area"">
                        <p style=""font-size: 20px; font-weight: bold; margin: 0;"">Is there a person in this image?</p>
                    </div>
                </div>","0","main_experiment_trial","ten","self_care_activities_semantic","semantic_sequence","chronological","","","","","","",""
"","","","","","html-keyboard-response","163","236441","0.0-163.0","401EDD9064624CEF8BEB41D2F1B5426D","019cfa5b-0c07-788b-80a6-17a113be2660","019cfa3a-388e-72ab-ad58-bdeb258f96cd","","null","<div style=""background-color: white; width: 100vw; height: 100vh;""></div>","null","","","","","","","","","","","",""
"","","","","","html-keyboard-response","164","237455","0.0-164.0","401EDD9064624CEF8BEB41D2F1B5426D","019cfa5b-0c07-788b-80a6-17a113be2660","019cfa3a-388e-72ab-ad58-bdeb258f96cd","","null","
                <div class=""stimulus-container"">
                    <img src=""images/causal_sequence/saving_a_cat_causal/saving_a_cat_causal_1.png"" class=""exp-image"">
                    <div class=""question-area""></div> 
                </div>","null","","","","","","","","","","","",""
"","","","","","html-button-response","165","238917","0.0-165.0","401EDD9064624CEF8BEB41D2F1B5426D","019cfa5b-0c07-788b-80a6-17a113be2660","019cfa3a-388e-72ab-ad58-bdeb258f96cd","","1461","
                <div class=""stimulus-container"">
                    <img src=""images/causal_sequence/saving_a_cat_causal/saving_a_cat_causal_1.png"" class=""exp-image"">
                    <div class=""question-area"">
                        <p style=""font-size: 20px; font-weight: bold; margin: 0;"">Is there a person in this image?</p>
                    </div>
                </div>","0","main_experiment_trial","1","saving_a_cat_causal","causal_sequence","chronological","","","","","","",""
"","","","","","html-keyboard-response","166","239927","0.0-166.0","401EDD9064624CEF8BEB41D2F1B5426D","019cfa5b-0c07-788b-80a6-17a113be2660","019cfa3a-388e-72ab-ad58-bdeb258f96cd","","null","
                <div class=""stimulus-container"">
                    <img src=""images/causal_sequence/saving_a_cat_causal/saving_a_cat_causal_2.png"" class=""exp-image"">
                    <div class=""question-area""></div> 
                </div>","null","","","","","","","","","","","",""
"","","","","","html-button-response","167","240791","0.0-167.0","401EDD9064624CEF8BEB41D2F1B5426D","019cfa5b-0c07-788b-80a6-17a113be2660","019cfa3a-388e-72ab-ad58-bdeb258f96cd","","864","
                <div class=""stimulus-container"">
                    <img src=""images/causal_sequence/saving_a_cat_causal/saving_a_cat_causal_2.png"" class=""exp-image"">
                    <div class=""question-area"">
                        <p style=""font-size: 20px; font-weight: bold; margin: 0;"">Is there a person in this image?</p>
                    </div>
                </div>","0","main_experiment_trial","2","saving_a_cat_causal","causal_sequence","chronological","","","","","","",""
"","","","","","html-keyboard-response","168","241801","0.0-168.0","401EDD9064624CEF8BEB41D2F1B5426D","019cfa5b-0c07-788b-80a6-17a113be2660","019cfa3a-388e-72ab-ad58-bdeb258f96cd","","null","
                <div class=""stimulus-container"">
                    <img src=""images/causal_sequence/saving_a_cat_causal/saving_a_cat_causal_3.png"" class=""exp-image"">
                    <div class=""question-area""></div> 
                </div>","null","","","","","","","","","","","",""
"","","","","","html-button-response","169","243446","0.0-169.0","401EDD9064624CEF8BEB41D2F1B5426D","019cfa5b-0c07-788b-80a6-17a113be2660","019cfa3a-388e-72ab-ad58-bdeb258f96cd","","1645","
                <div class=""stimulus-container"">
                    <img src=""images/causal_sequence/saving_a_cat_causal/saving_a_cat_causal_3.png"" class=""exp-image"">
                    <div class=""question-area"">
                        <p style=""font-size: 20px; font-weight: bold; margin: 0;"">Is there a person in this image?</p>
                    </div>
                </div>","1","main_experiment_trial","3","saving_a_cat_causal","causal_sequence","chronological","","","","","","",""
"","","","","","html-keyboard-response","170","244457","0.0-170.0","401EDD9064624CEF8BEB41D2F1B5426D","019cfa5b-0c07-788b-80a6-17a113be2660","019cfa3a-388e-72ab-ad58-bdeb258f96cd","","null","
                <div class=""stimulus-container"">
                    <img src=""images/causal_sequence/saving_a_cat_causal/saving_a_cat_causal_4.png"" class=""exp-image"">
                    <div class=""question-area""></div> 
                </div>","null","","","","","","","","","","","",""
"","","","","","html-button-response","171","245165","0.0-171.0","401EDD9064624CEF8BEB41D2F1B5426D","019cfa5b-0c07-788b-80a6-17a113be2660","019cfa3a-388e-72ab-ad58-bdeb258f96cd","","708","
                <div class=""stimulus-container"">
                    <img src=""images/causal_sequence/saving_a_cat_causal/saving_a_cat_causal_4.png"" class=""exp-image"">
                    <div class=""question-area"">
                        <p style=""font-size: 20px; font-weight: bold; margin: 0;"">Is there a person in this image?</p>
                    </div>
                </div>","0","main_experiment_trial","4","saving_a_cat_causal","causal_sequence","chronological","","","","","","",""
"","","","","","html-keyboard-response","172","246181","0.0-172.0","401EDD9064624CEF8BEB41D2F1B5426D","019cfa5b-0c07-788b-80a6-17a113be2660","019cfa3a-388e-72ab-ad58-bdeb258f96cd","","null","
                <div class=""stimulus-container"">
                    <img src=""images/causal_sequence/saving_a_cat_causal/saving_a_cat_causal_5.png"" class=""exp-image"">
                    <div class=""question-area""></div> 
                </div>","null","","","","","","","","","","","",""
"","","","","","html-button-response","173","246828","0.0-173.0","401EDD9064624CEF8BEB41D2F1B5426D","019cfa5b-0c07-788b-80a6-17a113be2660","019cfa3a-388e-72ab-ad58-bdeb258f96cd","","647","
                <div class=""stimulus-container"">
                    <img src=""images/causal_sequence/saving_a_cat_causal/saving_a_cat_causal_5.png"" class=""exp-image"">
                    <div class=""question-area"">
                        <p style=""font-size: 20px; font-weight: bold; margin: 0;"">Is there a person in this image?</p>
                    </div>
                </div>","0","main_experiment_trial","5","saving_a_cat_causal","causal_sequence","chronological","","","","","","",""
"","","","","","html-keyboard-response","174","247839","0.0-174.0","401EDD9064624CEF8BEB41D2F1B5426D","019cfa5b-0c07-788b-80a6-17a113be2660","019cfa3a-388e-72ab-ad58-bdeb258f96cd","","null","
                <div class=""stimulus-container"">
                    <img src=""images/causal_sequence/saving_a_cat_causal/saving_a_cat_causal_6.png"" class=""exp-image"">
                    <div class=""question-area""></div> 
                </div>","null","","","","","","","","","","","",""
