"success","timeout","failed_images","failed_audio","failed_video","trial_type","trial_index","time_elapsed","internal_node_id","subject_id","study_id","session_id","view_history","rt","stimulus","response","task","image_index","folder","sequence_type","valuable_image_index","reward_type","chosen_image_index","target_X","correct_choice"
"true","false","[]","[]","[]","preload","0","27716","0.0-0.0","07F6CDA8ED48423E874BAE793DE79FB0","019cf713-ead8-70ce-a1e4-474b0f3c3f06","019cf6fe-235e-7d95-bb9b-b011d2fe188e","","","","","","","","","","","","",""
"","","","","","instructions","1","33831","0.0-1.0","07F6CDA8ED48423E874BAE793DE79FB0","019cf713-ead8-70ce-a1e4-474b0f3c3f06","019cf6fe-235e-7d95-bb9b-b011d2fe188e","[{""page_index"":0,""viewing_time"":6112}]","6113","","","","","","","","","","",""
"","","","","","instructions","2","38973","0.0-2.0","07F6CDA8ED48423E874BAE793DE79FB0","019cf713-ead8-70ce-a1e4-474b0f3c3f06","019cf6fe-235e-7d95-bb9b-b011d2fe188e","[{""page_index"":0,""viewing_time"":5141}]","5141","","","","","","","","","","",""
"true","","","","","fullscreen","3","41920","0.0-3.0","07F6CDA8ED48423E874BAE793DE79FB0","019cf713-ead8-70ce-a1e4-474b0f3c3f06","019cf6fe-235e-7d95-bb9b-b011d2fe188e","","1929","","","","","","","","","","",""
"","","","","","instructions","4","53742","0.0-4.0","07F6CDA8ED48423E874BAE793DE79FB0","019cf713-ead8-70ce-a1e4-474b0f3c3f06","019cf6fe-235e-7d95-bb9b-b011d2fe188e","[{""page_index"":0,""viewing_time"":11821}]","11822","","","","","","","","","","",""
"","","","","","instructions","5","65307","0.0-5.0","07F6CDA8ED48423E874BAE793DE79FB0","019cf713-ead8-70ce-a1e4-474b0f3c3f06","019cf6fe-235e-7d95-bb9b-b011d2fe188e","[{""page_index"":0,""viewing_time"":11548}]","11548","","","","","","","","","","",""
"","","","","","html-keyboard-response","6","69317","0.0-6.0","07F6CDA8ED48423E874BAE793DE79FB0","019cf713-ead8-70ce-a1e4-474b0f3c3f06","019cf6fe-235e-7d95-bb9b-b011d2fe188e","","null","
                <div class=""stimulus-container"">
                    <img src=""images/instructions/movie_1.png"" class=""exp-image"">
                    <div class=""question-area""></div> 
                </div>","null","","","","","","","","",""
"","","","","","html-button-response","7","71104","0.0-7.0","07F6CDA8ED48423E874BAE793DE79FB0","019cf713-ead8-70ce-a1e4-474b0f3c3f06","019cf6fe-235e-7d95-bb9b-b011d2fe188e","","1784","
                <div class=""stimulus-container"">
                    <img src=""images/instructions/movie_1.png"" class=""exp-image"">
                    <div class=""question-area"">
                        <p style=""font-size: 20px; font-weight: bold; margin: 0;"">Was there a person in this image?</p>
                    </div>
                </div>","0","example_question","1","","","","","","",""
"","","","","","html-keyboard-response","8","75121","0.0-8.0","07F6CDA8ED48423E874BAE793DE79FB0","019cf713-ead8-70ce-a1e4-474b0f3c3f06","019cf6fe-235e-7d95-bb9b-b011d2fe188e","","null","
                <div class=""stimulus-container"">
                    <img src=""images/instructions/movie_2.png"" class=""exp-image"">
                    <div class=""question-area""></div> 
                </div>","null","","","","","","","","",""
"","","","","","html-button-response","9","75859","0.0-9.0","07F6CDA8ED48423E874BAE793DE79FB0","019cf713-ead8-70ce-a1e4-474b0f3c3f06","019cf6fe-235e-7d95-bb9b-b011d2fe188e","","736","
                <div class=""stimulus-container"">
                    <img src=""images/instructions/movie_2.png"" class=""exp-image"">
                    <div class=""question-area"">
                        <p style=""font-size: 20px; font-weight: bold; margin: 0;"">Was there a person in this image?</p>
                    </div>
                </div>","0","example_question","2","","","","","","",""
"","","","","","html-keyboard-response","10","79867","0.0-10.0","07F6CDA8ED48423E874BAE793DE79FB0","019cf713-ead8-70ce-a1e4-474b0f3c3f06","019cf6fe-235e-7d95-bb9b-b011d2fe188e","","null","
                <div class=""stimulus-container"">
                    <img src=""images/instructions/movie_3.png"" class=""exp-image"">
                    <div class=""question-area""></div> 
                </div>","null","","","","","","","","",""
"","","","","","html-button-response","11","81270","0.0-11.0","07F6CDA8ED48423E874BAE793DE79FB0","019cf713-ead8-70ce-a1e4-474b0f3c3f06","019cf6fe-235e-7d95-bb9b-b011d2fe188e","","1401","
                <div class=""stimulus-container"">
                    <img src=""images/instructions/movie_3.png"" class=""exp-image"">
                    <div class=""question-area"">
                        <p style=""font-size: 20px; font-weight: bold; margin: 0;"">Was there a person in this image?</p>
                    </div>
                </div>","0","example_question","3","","","","","","",""
"","","","","","html-keyboard-response","12","85278","0.0-12.0","07F6CDA8ED48423E874BAE793DE79FB0","019cf713-ead8-70ce-a1e4-474b0f3c3f06","019cf6fe-235e-7d95-bb9b-b011d2fe188e","","null","
                <div class=""stimulus-container"">
                    <img src=""images/instructions/movie_4.png"" class=""exp-image"">
                    <div class=""question-area""></div> 
                </div>","null","","","","","","","","",""
"","","","","","html-button-response","13","86285","0.0-13.0","07F6CDA8ED48423E874BAE793DE79FB0","019cf713-ead8-70ce-a1e4-474b0f3c3f06","019cf6fe-235e-7d95-bb9b-b011d2fe188e","","1005","
                <div class=""stimulus-container"">
                    <img src=""images/instructions/movie_4.png"" class=""exp-image"">
                    <div class=""question-area"">
                        <p style=""font-size: 20px; font-weight: bold; margin: 0;"">Was there a person in this image?</p>
                    </div>
                </div>","0","example_question","4","","","","","","",""
"","","","","","instructions","14","89293","0.0-14.0","07F6CDA8ED48423E874BAE793DE79FB0","019cf713-ead8-70ce-a1e4-474b0f3c3f06","019cf6fe-235e-7d95-bb9b-b011d2fe188e","[{""page_index"":0,""viewing_time"":3007}]","3007","","","","","","","","","","",""
"","","","","","instructions","15","99440","0.0-15.0","07F6CDA8ED48423E874BAE793DE79FB0","019cf713-ead8-70ce-a1e4-474b0f3c3f06","019cf6fe-235e-7d95-bb9b-b011d2fe188e","[{""page_index"":0,""viewing_time"":10145}]","10146","","","","","","","","","","",""
"","","","","","html-keyboard-response","16","100452","0.0-16.0","07F6CDA8ED48423E874BAE793DE79FB0","019cf713-ead8-70ce-a1e4-474b0f3c3f06","019cf6fe-235e-7d95-bb9b-b011d2fe188e","","null","<div style=""background-color: white; width: 100vw; height: 100vh;""></div>","null","","","","","","","","",""
"","","","","","html-keyboard-response","17","105468","0.0-17.0","07F6CDA8ED48423E874BAE793DE79FB0","019cf713-ead8-70ce-a1e4-474b0f3c3f06","019cf6fe-235e-7d95-bb9b-b011d2fe188e","","null","
                <div class=""stimulus-container"">
                    <img src=""images/causal_sequence/dog_causal/dog_causal_1.png"" class=""exp-image"">
                    <div class=""question-area""></div> 
                </div>","null","","","","","","","","",""
"","","","","","html-button-response","18","108484","0.0-18.0","07F6CDA8ED48423E874BAE793DE79FB0","019cf713-ead8-70ce-a1e4-474b0f3c3f06","019cf6fe-235e-7d95-bb9b-b011d2fe188e","","null","
                <div class=""stimulus-container"">
                    <img src=""images/causal_sequence/dog_causal/dog_causal_1.png"" class=""exp-image"">
                    <div class=""question-area"">
                        <p style=""font-size: 20px; font-weight: bold; margin: 0;"">Is there a person in this image?</p>
                    </div>
                </div>","null","main_experiment_trial","1","dog_causal","causal_sequence","","","","",""
"","","","","","html-keyboard-response","19","113500","0.0-19.0","07F6CDA8ED48423E874BAE793DE79FB0","019cf713-ead8-70ce-a1e4-474b0f3c3f06","019cf6fe-235e-7d95-bb9b-b011d2fe188e","","null","
                <div class=""stimulus-container"">
                    <img src=""images/causal_sequence/dog_causal/dog_causal_2.png"" class=""exp-image"">
                    <div class=""question-area""></div> 
                </div>","null","","","","","","","","",""
"","","","","","html-button-response","20","114251","0.0-20.0","07F6CDA8ED48423E874BAE793DE79FB0","019cf713-ead8-70ce-a1e4-474b0f3c3f06","019cf6fe-235e-7d95-bb9b-b011d2fe188e","","749","
                <div class=""stimulus-container"">
                    <img src=""images/causal_sequence/dog_causal/dog_causal_2.png"" class=""exp-image"">
                    <div class=""question-area"">
                        <p style=""font-size: 20px; font-weight: bold; margin: 0;"">Is there a person in this image?</p>
                    </div>
                </div>","0","main_experiment_trial","2","dog_causal","causal_sequence","","","","",""
"","","","","","html-keyboard-response","21","119259","0.0-21.0","07F6CDA8ED48423E874BAE793DE79FB0","019cf713-ead8-70ce-a1e4-474b0f3c3f06","019cf6fe-235e-7d95-bb9b-b011d2fe188e","","null","
                <div class=""stimulus-container"">
                    <img src=""images/causal_sequence/dog_causal/dog_causal_3.png"" class=""exp-image"">
                    <div class=""question-area""></div> 
                </div>","null","","","","","","","","",""
"","","","","","html-button-response","22","120440","0.0-22.0","07F6CDA8ED48423E874BAE793DE79FB0","019cf713-ead8-70ce-a1e4-474b0f3c3f06","019cf6fe-235e-7d95-bb9b-b011d2fe188e","","1180","
                <div class=""stimulus-container"">
                    <img src=""images/causal_sequence/dog_causal/dog_causal_3.png"" class=""exp-image"">
                    <div class=""question-area"">
                        <p style=""font-size: 20px; font-weight: bold; margin: 0;"">Is there a person in this image?</p>
                    </div>
                </div>","0","main_experiment_trial","3","dog_causal","causal_sequence","","","","",""
"","","","","","html-keyboard-response","23","125459","0.0-23.0","07F6CDA8ED48423E874BAE793DE79FB0","019cf713-ead8-70ce-a1e4-474b0f3c3f06","019cf6fe-235e-7d95-bb9b-b011d2fe188e","","null","
                <div class=""stimulus-container"">
                    <img src=""images/causal_sequence/dog_causal/dog_causal_4.png"" class=""exp-image"">
                    <div class=""question-area""></div> 
                </div>","null","","","","","","","","",""
"","","","","","html-button-response","24","126266","0.0-24.0","07F6CDA8ED48423E874BAE793DE79FB0","019cf713-ead8-70ce-a1e4-474b0f3c3f06","019cf6fe-235e-7d95-bb9b-b011d2fe188e","","805","
                <div class=""stimulus-container"">
                    <img src=""images/causal_sequence/dog_causal/dog_causal_4.png"" class=""exp-image"">
                    <div class=""question-area"">
                        <p style=""font-size: 20px; font-weight: bold; margin: 0;"">Is there a person in this image?</p>
                    </div>
                </div>","0","main_experiment_trial","4","dog_causal","causal_sequence","","","","",""
"","","","","","html-keyboard-response","25","131281","0.0-25.0","07F6CDA8ED48423E874BAE793DE79FB0","019cf713-ead8-70ce-a1e4-474b0f3c3f06","019cf6fe-235e-7d95-bb9b-b011d2fe188e","","null","
                <div class=""stimulus-container"">
                    <img src=""images/causal_sequence/dog_causal/dog_causal_5.png"" class=""exp-image"">
                    <div class=""question-area""></div> 
                </div>","null","","","","","","","","",""
"","","","","","html-button-response","26","131972","0.0-26.0","07F6CDA8ED48423E874BAE793DE79FB0","019cf713-ead8-70ce-a1e4-474b0f3c3f06","019cf6fe-235e-7d95-bb9b-b011d2fe188e","","689","
                <div class=""stimulus-container"">
                    <img src=""images/causal_sequence/dog_causal/dog_causal_5.png"" class=""exp-image"">
                    <div class=""question-area"">
                        <p style=""font-size: 20px; font-weight: bold; margin: 0;"">Is there a person in this image?</p>
                    </div>
                </div>","0","main_experiment_trial","5","dog_causal","causal_sequence","","","","",""
"","","","","","html-keyboard-response","27","136983","0.0-27.0","07F6CDA8ED48423E874BAE793DE79FB0","019cf713-ead8-70ce-a1e4-474b0f3c3f06","019cf6fe-235e-7d95-bb9b-b011d2fe188e","","null","
                <div class=""stimulus-container"">
                    <img src=""images/causal_sequence/dog_causal/dog_causal_6.png"" class=""exp-image"">
                    <div class=""question-area""></div> 
                </div>","null","","","","","","","","",""
"","","","","","html-button-response","28","137745","0.0-28.0","07F6CDA8ED48423E874BAE793DE79FB0","019cf713-ead8-70ce-a1e4-474b0f3c3f06","019cf6fe-235e-7d95-bb9b-b011d2fe188e","","761","
                <div class=""stimulus-container"">
                    <img src=""images/causal_sequence/dog_causal/dog_causal_6.png"" class=""exp-image"">
                    <div class=""question-area"">
                        <p style=""font-size: 20px; font-weight: bold; margin: 0;"">Is there a person in this image?</p>
                    </div>
                </div>","0","main_experiment_trial","6","dog_causal","causal_sequence","","","","",""
"","","","","","html-keyboard-response","29","142761","0.0-29.0","07F6CDA8ED48423E874BAE793DE79FB0","019cf713-ead8-70ce-a1e4-474b0f3c3f06","019cf6fe-235e-7d95-bb9b-b011d2fe188e","","null","
                <div class=""stimulus-container"">
                    <img src=""images/causal_sequence/dog_causal/dog_causal_7.png"" class=""exp-image"">
                    <div class=""question-area""></div> 
                </div>","null","","","","","","","","",""
"","","","","","html-button-response","30","143524","0.0-30.0","07F6CDA8ED48423E874BAE793DE79FB0","019cf713-ead8-70ce-a1e4-474b0f3c3f06","019cf6fe-235e-7d95-bb9b-b011d2fe188e","","762","
                <div class=""stimulus-container"">
                    <img src=""images/causal_sequence/dog_causal/dog_causal_7.png"" class=""exp-image"">
                    <div class=""question-area"">
                        <p style=""font-size: 20px; font-weight: bold; margin: 0;"">Is there a person in this image?</p>
                    </div>
                </div>","0","main_experiment_trial","7","dog_causal","causal_sequence","","","","",""
"","","","","","html-keyboard-response","31","148531","0.0-31.0","07F6CDA8ED48423E874BAE793DE79FB0","019cf713-ead8-70ce-a1e4-474b0f3c3f06","019cf6fe-235e-7d95-bb9b-b011d2fe188e","","null","
                <div class=""stimulus-container"">
                    <img src=""images/causal_sequence/dog_causal/dog_causal_8.png"" class=""exp-image"">
                    <div class=""question-area""></div> 
                </div>","null","","","","","","","","",""
"","","","","","html-button-response","32","149375","0.0-32.0","07F6CDA8ED48423E874BAE793DE79FB0","019cf713-ead8-70ce-a1e4-474b0f3c3f06","019cf6fe-235e-7d95-bb9b-b011d2fe188e","","841","
                <div class=""stimulus-container"">
                    <img src=""images/causal_sequence/dog_causal/dog_causal_8.png"" class=""exp-image"">
                    <div class=""question-area"">
                        <p style=""font-size: 20px; font-weight: bold; margin: 0;"">Is there a person in this image?</p>
                    </div>
                </div>","0","main_experiment_trial","8","dog_causal","causal_sequence","","","","",""
"","","","","","html-keyboard-response","33","154388","0.0-33.0","07F6CDA8ED48423E874BAE793DE79FB0","019cf713-ead8-70ce-a1e4-474b0f3c3f06","019cf6fe-235e-7d95-bb9b-b011d2fe188e","","null","
                <div class=""stimulus-container"">
                    <img src=""images/causal_sequence/dog_causal/dog_causal_9.png"" class=""exp-image"">
                    <div class=""question-area""></div> 
                </div>","null","","","","","","","","",""
"","","","","","html-button-response","34","155075","0.0-34.0","07F6CDA8ED48423E874BAE793DE79FB0","019cf713-ead8-70ce-a1e4-474b0f3c3f06","019cf6fe-235e-7d95-bb9b-b011d2fe188e","","685","
                <div class=""stimulus-container"">
                    <img src=""images/causal_sequence/dog_causal/dog_causal_9.png"" class=""exp-image"">
                    <div class=""question-area"">
                        <p style=""font-size: 20px; font-weight: bold; margin: 0;"">Is there a person in this image?</p>
                    </div>
                </div>","0","main_experiment_trial","9","dog_causal","causal_sequence","","","","",""
"","","","","","html-keyboard-response","35","160090","0.0-35.0","07F6CDA8ED48423E874BAE793DE79FB0","019cf713-ead8-70ce-a1e4-474b0f3c3f06","019cf6fe-235e-7d95-bb9b-b011d2fe188e","","null","
                <div class=""stimulus-container"">
                    <img src=""images/causal_sequence/dog_causal/dog_causal_ten.png"" class=""exp-image"">
                    <div class=""question-area""></div> 
                </div>","null","","","","","","","","",""
"","","","","","html-button-response","36","160902","0.0-36.0","07F6CDA8ED48423E874BAE793DE79FB0","019cf713-ead8-70ce-a1e4-474b0f3c3f06","019cf6fe-235e-7d95-bb9b-b011d2fe188e","","811","
                <div class=""stimulus-container"">
                    <img src=""images/causal_sequence/dog_causal/dog_causal_ten.png"" class=""exp-image"">
                    <div class=""question-area"">
                        <p style=""font-size: 20px; font-weight: bold; margin: 0;"">Is there a person in this image?</p>
                    </div>
                </div>","0","main_experiment_trial","ten","dog_causal","causal_sequence","","","","",""
"","","","","","html-keyboard-response","37","161915","0.0-37.0","07F6CDA8ED48423E874BAE793DE79FB0","019cf713-ead8-70ce-a1e4-474b0f3c3f06","019cf6fe-235e-7d95-bb9b-b011d2fe188e","","null","<div style=""background-color: white; width: 100vw; height: 100vh;""></div>","null","","","","","","","","",""
"","","","","","html-keyboard-response","38","166930","0.0-38.0","07F6CDA8ED48423E874BAE793DE79FB0","019cf713-ead8-70ce-a1e4-474b0f3c3f06","019cf6fe-235e-7d95-bb9b-b011d2fe188e","","null","
                <div class=""stimulus-container"">
                    <img src=""images/schematic_sequence/restaurant_scheme/restaurant_scheme_1.png"" class=""exp-image"">
                    <div class=""question-area""></div> 
                </div>","null","","","","","","","","",""
"","","","","","html-button-response","39","168020","0.0-39.0","07F6CDA8ED48423E874BAE793DE79FB0","019cf713-ead8-70ce-a1e4-474b0f3c3f06","019cf6fe-235e-7d95-bb9b-b011d2fe188e","","1087","
                <div class=""stimulus-container"">
                    <img src=""images/schematic_sequence/restaurant_scheme/restaurant_scheme_1.png"" class=""exp-image"">
                    <div class=""question-area"">
                        <p style=""font-size: 20px; font-weight: bold; margin: 0;"">Is there a person in this image?</p>
                    </div>
                </div>","0","main_experiment_trial","1","restaurant_scheme","schematic_sequence","","","","",""
"","","","","","html-keyboard-response","40","173031","0.0-40.0","07F6CDA8ED48423E874BAE793DE79FB0","019cf713-ead8-70ce-a1e4-474b0f3c3f06","019cf6fe-235e-7d95-bb9b-b011d2fe188e","","null","
                <div class=""stimulus-container"">
                    <img src=""images/schematic_sequence/restaurant_scheme/restaurant_scheme_2.png"" class=""exp-image"">
                    <div class=""question-area""></div> 
                </div>","null","","","","","","","","",""
"","","","","","html-button-response","41","174254","0.0-41.0","07F6CDA8ED48423E874BAE793DE79FB0","019cf713-ead8-70ce-a1e4-474b0f3c3f06","019cf6fe-235e-7d95-bb9b-b011d2fe188e","","1221","
                <div class=""stimulus-container"">
                    <img src=""images/schematic_sequence/restaurant_scheme/restaurant_scheme_2.png"" class=""exp-image"">
                    <div class=""question-area"">
                        <p style=""font-size: 20px; font-weight: bold; margin: 0;"">Is there a person in this image?</p>
                    </div>
                </div>","1","main_experiment_trial","2","restaurant_scheme","schematic_sequence","","","","",""
"","","","","","html-keyboard-response","42","179270","0.0-42.0","07F6CDA8ED48423E874BAE793DE79FB0","019cf713-ead8-70ce-a1e4-474b0f3c3f06","019cf6fe-235e-7d95-bb9b-b011d2fe188e","","null","
                <div class=""stimulus-container"">
                    <img src=""images/schematic_sequence/restaurant_scheme/restaurant_scheme_3.png"" class=""exp-image"">
                    <div class=""question-area""></div> 
                </div>","null","","","","","","","","",""
"","","","","","html-button-response","43","181077","0.0-43.0","07F6CDA8ED48423E874BAE793DE79FB0","019cf713-ead8-70ce-a1e4-474b0f3c3f06","019cf6fe-235e-7d95-bb9b-b011d2fe188e","","1805","
                <div class=""stimulus-container"">
                    <img src=""images/schematic_sequence/restaurant_scheme/restaurant_scheme_3.png"" class=""exp-image"">
                    <div class=""question-area"">
                        <p style=""font-size: 20px; font-weight: bold; margin: 0;"">Is there a person in this image?</p>
                    </div>
                </div>","1","main_experiment_trial","3","restaurant_scheme","schematic_sequence","","","","",""
"","","","","","html-keyboard-response","44","186108","0.0-44.0","07F6CDA8ED48423E874BAE793DE79FB0","019cf713-ead8-70ce-a1e4-474b0f3c3f06","019cf6fe-235e-7d95-bb9b-b011d2fe188e","","null","
                <div class=""stimulus-container"">
                    <img src=""images/schematic_sequence/restaurant_scheme/restaurant_scheme_4.png"" class=""exp-image"">
                    <div class=""question-area""></div> 
                </div>","null","","","","","","","","",""
"","","","","","html-button-response","45","187204","0.0-45.0","07F6CDA8ED48423E874BAE793DE79FB0","019cf713-ead8-70ce-a1e4-474b0f3c3f06","019cf6fe-235e-7d95-bb9b-b011d2fe188e","","1095","
                <div class=""stimulus-container"">
                    <img src=""images/schematic_sequence/restaurant_scheme/restaurant_scheme_4.png"" class=""exp-image"">
                    <div class=""question-area"">
                        <p style=""font-size: 20px; font-weight: bold; margin: 0;"">Is there a person in this image?</p>
                    </div>
                </div>","0","main_experiment_trial","4","restaurant_scheme","schematic_sequence","","","","",""
"","","","","","html-keyboard-response","46","192214","0.0-46.0","07F6CDA8ED48423E874BAE793DE79FB0","019cf713-ead8-70ce-a1e4-474b0f3c3f06","019cf6fe-235e-7d95-bb9b-b011d2fe188e","","null","
                <div class=""stimulus-container"">
                    <img src=""images/schematic_sequence/restaurant_scheme/restaurant_scheme_5.png"" class=""exp-image"">
                    <div class=""question-area""></div> 
                </div>","null","","","","","","","","",""
"","","","","","html-button-response","47","193183","0.0-47.0","07F6CDA8ED48423E874BAE793DE79FB0","019cf713-ead8-70ce-a1e4-474b0f3c3f06","019cf6fe-235e-7d95-bb9b-b011d2fe188e","","969","
                <div class=""stimulus-container"">
                    <img src=""images/schematic_sequence/restaurant_scheme/restaurant_scheme_5.png"" class=""exp-image"">
                    <div class=""question-area"">
                        <p style=""font-size: 20px; font-weight: bold; margin: 0;"">Is there a person in this image?</p>
                    </div>
                </div>","0","main_experiment_trial","5","restaurant_scheme","schematic_sequence","","","","",""
"","","","","","html-keyboard-response","48","198194","0.0-48.0","07F6CDA8ED48423E874BAE793DE79FB0","019cf713-ead8-70ce-a1e4-474b0f3c3f06","019cf6fe-235e-7d95-bb9b-b011d2fe188e","","null","
                <div class=""stimulus-container"">
                    <img src=""images/schematic_sequence/restaurant_scheme/restaurant_scheme_6.png"" class=""exp-image"">
                    <div class=""question-area""></div> 
                </div>","null","","","","","","","","",""
"","","","","","html-button-response","49","199292","0.0-49.0","07F6CDA8ED48423E874BAE793DE79FB0","019cf713-ead8-70ce-a1e4-474b0f3c3f06","019cf6fe-235e-7d95-bb9b-b011d2fe188e","","1096","
                <div class=""stimulus-container"">
                    <img src=""images/schematic_sequence/restaurant_scheme/restaurant_scheme_6.png"" class=""exp-image"">
                    <div class=""question-area"">
                        <p style=""font-size: 20px; font-weight: bold; margin: 0;"">Is there a person in this image?</p>
                    </div>
                </div>","1","main_experiment_trial","6","restaurant_scheme","schematic_sequence","","","","",""
"","","","","","html-keyboard-response","50","204302","0.0-50.0","07F6CDA8ED48423E874BAE793DE79FB0","019cf713-ead8-70ce-a1e4-474b0f3c3f06","019cf6fe-235e-7d95-bb9b-b011d2fe188e","","null","
                <div class=""stimulus-container"">
                    <img src=""images/schematic_sequence/restaurant_scheme/restaurant_scheme_7.png"" class=""exp-image"">
                    <div class=""question-area""></div> 
                </div>","null","","","","","","","","",""
"","","","","","html-button-response","51","205230","0.0-51.0","07F6CDA8ED48423E874BAE793DE79FB0","019cf713-ead8-70ce-a1e4-474b0f3c3f06","019cf6fe-235e-7d95-bb9b-b011d2fe188e","","926","
                <div class=""stimulus-container"">
                    <img src=""images/schematic_sequence/restaurant_scheme/restaurant_scheme_7.png"" class=""exp-image"">
                    <div class=""question-area"">
                        <p style=""font-size: 20px; font-weight: bold; margin: 0;"">Is there a person in this image?</p>
                    </div>
                </div>","1","main_experiment_trial","7","restaurant_scheme","schematic_sequence","","","","",""
"","","","","","html-keyboard-response","52","210243","0.0-52.0","07F6CDA8ED48423E874BAE793DE79FB0","019cf713-ead8-70ce-a1e4-474b0f3c3f06","019cf6fe-235e-7d95-bb9b-b011d2fe188e","","null","
                <div class=""stimulus-container"">
                    <img src=""images/schematic_sequence/restaurant_scheme/restaurant_scheme_8.png"" class=""exp-image"">
                    <div class=""question-area""></div> 
                </div>","null","","","","","","","","",""
"","","","","","html-button-response","53","211040","0.0-53.0","07F6CDA8ED48423E874BAE793DE79FB0","019cf713-ead8-70ce-a1e4-474b0f3c3f06","019cf6fe-235e-7d95-bb9b-b011d2fe188e","","795","
                <div class=""stimulus-container"">
                    <img src=""images/schematic_sequence/restaurant_scheme/restaurant_scheme_8.png"" class=""exp-image"">
                    <div class=""question-area"">
                        <p style=""font-size: 20px; font-weight: bold; margin: 0;"">Is there a person in this image?</p>
                    </div>
                </div>","0","main_experiment_trial","8","restaurant_scheme","schematic_sequence","","","","",""
"","","","","","html-keyboard-response","54","216047","0.0-54.0","07F6CDA8ED48423E874BAE793DE79FB0","019cf713-ead8-70ce-a1e4-474b0f3c3f06","019cf6fe-235e-7d95-bb9b-b011d2fe188e","","null","
                <div class=""stimulus-container"">
                    <img src=""images/schematic_sequence/restaurant_scheme/restaurant_scheme_9.png"" class=""exp-image"">
                    <div class=""question-area""></div> 
                </div>","null","","","","","","","","",""
"","","","","","html-button-response","55","216708","0.0-55.0","07F6CDA8ED48423E874BAE793DE79FB0","019cf713-ead8-70ce-a1e4-474b0f3c3f06","019cf6fe-235e-7d95-bb9b-b011d2fe188e","","659","
                <div class=""stimulus-container"">
                    <img src=""images/schematic_sequence/restaurant_scheme/restaurant_scheme_9.png"" class=""exp-image"">
                    <div class=""question-area"">
                        <p style=""font-size: 20px; font-weight: bold; margin: 0;"">Is there a person in this image?</p>
                    </div>
                </div>","0","main_experiment_trial","9","restaurant_scheme","schematic_sequence","","","","",""
"","","","","","html-keyboard-response","56","221715","0.0-56.0","07F6CDA8ED48423E874BAE793DE79FB0","019cf713-ead8-70ce-a1e4-474b0f3c3f06","019cf6fe-235e-7d95-bb9b-b011d2fe188e","","null","
                <div class=""stimulus-container"">
                    <img src=""images/schematic_sequence/restaurant_scheme/restaurant_scheme_ten.png"" class=""exp-image"">
                    <div class=""question-area""></div> 
                </div>","null","","","","","","","","",""
"","","","","","html-button-response","57","222472","0.0-57.0","07F6CDA8ED48423E874BAE793DE79FB0","019cf713-ead8-70ce-a1e4-474b0f3c3f06","019cf6fe-235e-7d95-bb9b-b011d2fe188e","","755","
                <div class=""stimulus-container"">
                    <img src=""images/schematic_sequence/restaurant_scheme/restaurant_scheme_ten.png"" class=""exp-image"">
                    <div class=""question-area"">
                        <p style=""font-size: 20px; font-weight: bold; margin: 0;"">Is there a person in this image?</p>
                    </div>
                </div>","0","main_experiment_trial","ten","restaurant_scheme","schematic_sequence","","","","",""
"","","","","","html-keyboard-response","58","223484","0.0-58.0","07F6CDA8ED48423E874BAE793DE79FB0","019cf713-ead8-70ce-a1e4-474b0f3c3f06","019cf6fe-235e-7d95-bb9b-b011d2fe188e","","null","<div style=""background-color: white; width: 100vw; height: 100vh;""></div>","null","","","","","","","","",""
"","","","","","html-keyboard-response","59","228496","0.0-59.0","07F6CDA8ED48423E874BAE793DE79FB0","019cf713-ead8-70ce-a1e4-474b0f3c3f06","019cf6fe-235e-7d95-bb9b-b011d2fe188e","","null","
                <div class=""stimulus-container"">
                    <img src=""images/schematic_sequence/interview_scheme/interview_scheme_1.png"" class=""exp-image"">
                    <div class=""question-area""></div> 
                </div>","null","","","","","","","","",""
"","","","","","html-button-response","60","229473","0.0-60.0","07F6CDA8ED48423E874BAE793DE79FB0","019cf713-ead8-70ce-a1e4-474b0f3c3f06","019cf6fe-235e-7d95-bb9b-b011d2fe188e","","976","
                <div class=""stimulus-container"">
                    <img src=""images/schematic_sequence/interview_scheme/interview_scheme_1.png"" class=""exp-image"">
                    <div class=""question-area"">
                        <p style=""font-size: 20px; font-weight: bold; margin: 0;"">Is there a person in this image?</p>
                    </div>
                </div>","1","main_experiment_trial","1","interview_scheme","schematic_sequence","","","","",""
"","","","","","html-keyboard-response","61","234476","0.0-61.0","07F6CDA8ED48423E874BAE793DE79FB0","019cf713-ead8-70ce-a1e4-474b0f3c3f06","019cf6fe-235e-7d95-bb9b-b011d2fe188e","","null","
                <div class=""stimulus-container"">
                    <img src=""images/schematic_sequence/interview_scheme/interview_scheme_2.png"" class=""exp-image"">
                    <div class=""question-area""></div> 
                </div>","null","","","","","","","","",""
"","","","","","html-button-response","62","236385","0.0-62.0","07F6CDA8ED48423E874BAE793DE79FB0","019cf713-ead8-70ce-a1e4-474b0f3c3f06","019cf6fe-235e-7d95-bb9b-b011d2fe188e","","1908","
                <div class=""stimulus-container"">
                    <img src=""images/schematic_sequence/interview_scheme/interview_scheme_2.png"" class=""exp-image"">
                    <div class=""question-area"">
                        <p style=""font-size: 20px; font-weight: bold; margin: 0;"">Is there a person in this image?</p>
                    </div>
                </div>","0","main_experiment_trial","2","interview_scheme","schematic_sequence","","","","",""
"","","","","","html-keyboard-response","63","241386","0.0-63.0","07F6CDA8ED48423E874BAE793DE79FB0","019cf713-ead8-70ce-a1e4-474b0f3c3f06","019cf6fe-235e-7d95-bb9b-b011d2fe188e","","null","
                <div class=""stimulus-container"">
                    <img src=""images/schematic_sequence/interview_scheme/interview_scheme_3.png"" class=""exp-image"">
                    <div class=""question-area""></div> 
                </div>","null","","","","","","","","",""
"","","","","","html-button-response","64","242762","0.0-64.0","07F6CDA8ED48423E874BAE793DE79FB0","019cf713-ead8-70ce-a1e4-474b0f3c3f06","019cf6fe-235e-7d95-bb9b-b011d2fe188e","","1375","
                <div class=""stimulus-container"">
                    <img src=""images/schematic_sequence/interview_scheme/interview_scheme_3.png"" class=""exp-image"">
                    <div class=""question-area"">
                        <p style=""font-size: 20px; font-weight: bold; margin: 0;"">Is there a person in this image?</p>
                    </div>
                </div>","1","main_experiment_trial","3","interview_scheme","schematic_sequence","","","","",""
"","","","","","html-keyboard-response","65","247790","0.0-65.0","07F6CDA8ED48423E874BAE793DE79FB0","019cf713-ead8-70ce-a1e4-474b0f3c3f06","019cf6fe-235e-7d95-bb9b-b011d2fe188e","","null","
                <div class=""stimulus-container"">
                    <img src=""images/schematic_sequence/interview_scheme/interview_scheme_4.png"" class=""exp-image"">
                    <div class=""question-area""></div> 
                </div>","null","","","","","","","","",""
"","","","","","html-button-response","66","248602","0.0-66.0","07F6CDA8ED48423E874BAE793DE79FB0","019cf713-ead8-70ce-a1e4-474b0f3c3f06","019cf6fe-235e-7d95-bb9b-b011d2fe188e","","810","
                <div class=""stimulus-container"">
                    <img src=""images/schematic_sequence/interview_scheme/interview_scheme_4.png"" class=""exp-image"">
                    <div class=""question-area"">
                        <p style=""font-size: 20px; font-weight: bold; margin: 0;"">Is there a person in this image?</p>
                    </div>
                </div>","1","main_experiment_trial","4","interview_scheme","schematic_sequence","","","","",""
"","","","","","html-keyboard-response","67","253613","0.0-67.0","07F6CDA8ED48423E874BAE793DE79FB0","019cf713-ead8-70ce-a1e4-474b0f3c3f06","019cf6fe-235e-7d95-bb9b-b011d2fe188e","","null","
                <div class=""stimulus-container"">
                    <img src=""images/schematic_sequence/interview_scheme/interview_scheme_5.png"" class=""exp-image"">
                    <div class=""question-area""></div> 
                </div>","null","","","","","","","","",""
"","","","","","html-button-response","68","254525","0.0-68.0","07F6CDA8ED48423E874BAE793DE79FB0","019cf713-ead8-70ce-a1e4-474b0f3c3f06","019cf6fe-235e-7d95-bb9b-b011d2fe188e","","910","
                <div class=""stimulus-container"">
                    <img src=""images/schematic_sequence/interview_scheme/interview_scheme_5.png"" class=""exp-image"">
                    <div class=""question-area"">
                        <p style=""font-size: 20px; font-weight: bold; margin: 0;"">Is there a person in this image?</p>
                    </div>
                </div>","0","main_experiment_trial","5","interview_scheme","schematic_sequence","","","","",""
"","","","","","html-keyboard-response","69","259538","0.0-69.0","07F6CDA8ED48423E874BAE793DE79FB0","019cf713-ead8-70ce-a1e4-474b0f3c3f06","019cf6fe-235e-7d95-bb9b-b011d2fe188e","","null","
                <div class=""stimulus-container"">
                    <img src=""images/schematic_sequence/interview_scheme/interview_scheme_6.png"" class=""exp-image"">
                    <div class=""question-area""></div> 
                </div>","null","","","","","","","","",""
"","","","","","html-button-response","70","260364","0.0-70.0","07F6CDA8ED48423E874BAE793DE79FB0","019cf713-ead8-70ce-a1e4-474b0f3c3f06","019cf6fe-235e-7d95-bb9b-b011d2fe188e","","823","
                <div class=""stimulus-container"">
                    <img src=""images/schematic_sequence/interview_scheme/interview_scheme_6.png"" class=""exp-image"">
                    <div class=""question-area"">
                        <p style=""font-size: 20px; font-weight: bold; margin: 0;"">Is there a person in this image?</p>
                    </div>
                </div>","0","main_experiment_trial","6","interview_scheme","schematic_sequence","","","","",""
"","","","","","html-keyboard-response","71","265381","0.0-71.0","07F6CDA8ED48423E874BAE793DE79FB0","019cf713-ead8-70ce-a1e4-474b0f3c3f06","019cf6fe-235e-7d95-bb9b-b011d2fe188e","","null","
                <div class=""stimulus-container"">
                    <img src=""images/schematic_sequence/interview_scheme/interview_scheme_7.png"" class=""exp-image"">
                    <div class=""question-area""></div> 
                </div>","null","","","","","","","","",""
"","","","","","html-button-response","72","266374","0.0-72.0","07F6CDA8ED48423E874BAE793DE79FB0","019cf713-ead8-70ce-a1e4-474b0f3c3f06","019cf6fe-235e-7d95-bb9b-b011d2fe188e","","991","
                <div class=""stimulus-container"">
                    <img src=""images/schematic_sequence/interview_scheme/interview_scheme_7.png"" class=""exp-image"">
                    <div class=""question-area"">
                        <p style=""font-size: 20px; font-weight: bold; margin: 0;"">Is there a person in this image?</p>
                    </div>
                </div>","0","main_experiment_trial","7","interview_scheme","schematic_sequence","","","","",""
"","","","","","html-keyboard-response","73","271378","0.0-73.0","07F6CDA8ED48423E874BAE793DE79FB0","019cf713-ead8-70ce-a1e4-474b0f3c3f06","019cf6fe-235e-7d95-bb9b-b011d2fe188e","","null","
                <div class=""stimulus-container"">
                    <img src=""images/schematic_sequence/interview_scheme/interview_scheme_8.png"" class=""exp-image"">
                    <div class=""question-area""></div> 
                </div>","null","","","","","","","","",""
"","","","","","html-button-response","74","273550","0.0-74.0","07F6CDA8ED48423E874BAE793DE79FB0","019cf713-ead8-70ce-a1e4-474b0f3c3f06","019cf6fe-235e-7d95-bb9b-b011d2fe188e","","2170","
                <div class=""stimulus-container"">
                    <img src=""images/schematic_sequence/interview_scheme/interview_scheme_8.png"" class=""exp-image"">
                    <div class=""question-area"">
                        <p style=""font-size: 20px; font-weight: bold; margin: 0;"">Is there a person in this image?</p>
                    </div>
                </div>","0","main_experiment_trial","8","interview_scheme","schematic_sequence","","","","",""
"","","","","","html-keyboard-response","75","278552","0.0-75.0","07F6CDA8ED48423E874BAE793DE79FB0","019cf713-ead8-70ce-a1e4-474b0f3c3f06","019cf6fe-235e-7d95-bb9b-b011d2fe188e","","null","
                <div class=""stimulus-container"">
                    <img src=""images/schematic_sequence/interview_scheme/interview_scheme_9.png"" class=""exp-image"">
                    <div class=""question-area""></div> 
                </div>","null","","","","","","","","",""
"","","","","","html-button-response","76","279134","0.0-76.0","07F6CDA8ED48423E874BAE793DE79FB0","019cf713-ead8-70ce-a1e4-474b0f3c3f06","019cf6fe-235e-7d95-bb9b-b011d2fe188e","","580","
                <div class=""stimulus-container"">
                    <img src=""images/schematic_sequence/interview_scheme/interview_scheme_9.png"" class=""exp-image"">
                    <div class=""question-area"">
                        <p style=""font-size: 20px; font-weight: bold; margin: 0;"">Is there a person in this image?</p>
                    </div>
                </div>","0","main_experiment_trial","9","interview_scheme","schematic_sequence","","","","",""
"","","","","","html-keyboard-response","77","284143","0.0-77.0","07F6CDA8ED48423E874BAE793DE79FB0","019cf713-ead8-70ce-a1e4-474b0f3c3f06","019cf6fe-235e-7d95-bb9b-b011d2fe188e","","null","
                <div class=""stimulus-container"">
                    <img src=""images/schematic_sequence/interview_scheme/interview_scheme_ten.png"" class=""exp-image"">
                    <div class=""question-area""></div> 
                </div>","null","","","","","","","","",""
"","","","","","html-button-response","78","285003","0.0-78.0","07F6CDA8ED48423E874BAE793DE79FB0","019cf713-ead8-70ce-a1e4-474b0f3c3f06","019cf6fe-235e-7d95-bb9b-b011d2fe188e","","858","
                <div class=""stimulus-container"">
                    <img src=""images/schematic_sequence/interview_scheme/interview_scheme_ten.png"" class=""exp-image"">
                    <div class=""question-area"">
                        <p style=""font-size: 20px; font-weight: bold; margin: 0;"">Is there a person in this image?</p>
                    </div>
                </div>","0","main_experiment_trial","ten","interview_scheme","schematic_sequence","","","","",""
"","","","","","html-keyboard-response","79","286007","0.0-79.0","07F6CDA8ED48423E874BAE793DE79FB0","019cf713-ead8-70ce-a1e4-474b0f3c3f06","019cf6fe-235e-7d95-bb9b-b011d2fe188e","","null","<div style=""background-color: white; width: 100vw; height: 100vh;""></div>","null","","","","","","","","",""
"","","","","","html-keyboard-response","80","291012","0.0-80.0","07F6CDA8ED48423E874BAE793DE79FB0","019cf713-ead8-70ce-a1e4-474b0f3c3f06","019cf6fe-235e-7d95-bb9b-b011d2fe188e","","null","
                <div class=""stimulus-container"">
                    <img src=""images/schematic_sequence/dinner_party_scheme/dinner_party_scheme_1.png"" class=""exp-image"">
                    <div class=""question-area""></div> 
                </div>","null","","","","","","","","",""
"","","","","","html-button-response","81","291744","0.0-81.0","07F6CDA8ED48423E874BAE793DE79FB0","019cf713-ead8-70ce-a1e4-474b0f3c3f06","019cf6fe-235e-7d95-bb9b-b011d2fe188e","","731","
                <div class=""stimulus-container"">
                    <img src=""images/schematic_sequence/dinner_party_scheme/dinner_party_scheme_1.png"" class=""exp-image"">
                    <div class=""question-area"">
                        <p style=""font-size: 20px; font-weight: bold; margin: 0;"">Is there a person in this image?</p>
                    </div>
                </div>","0","main_experiment_trial","1","dinner_party_scheme","schematic_sequence","","","","",""
"","","","","","html-keyboard-response","82","296749","0.0-82.0","07F6CDA8ED48423E874BAE793DE79FB0","019cf713-ead8-70ce-a1e4-474b0f3c3f06","019cf6fe-235e-7d95-bb9b-b011d2fe188e","","null","
                <div class=""stimulus-container"">
                    <img src=""images/schematic_sequence/dinner_party_scheme/dinner_party_scheme_2.png"" class=""exp-image"">
                    <div class=""question-area""></div> 
                </div>","null","","","","","","","","",""
"","","","","","html-button-response","83","297339","0.0-83.0","07F6CDA8ED48423E874BAE793DE79FB0","019cf713-ead8-70ce-a1e4-474b0f3c3f06","019cf6fe-235e-7d95-bb9b-b011d2fe188e","","589","
                <div class=""stimulus-container"">
                    <img src=""images/schematic_sequence/dinner_party_scheme/dinner_party_scheme_2.png"" class=""exp-image"">
                    <div class=""question-area"">
                        <p style=""font-size: 20px; font-weight: bold; margin: 0;"">Is there a person in this image?</p>
                    </div>
                </div>","0","main_experiment_trial","2","dinner_party_scheme","schematic_sequence","","","","",""
"","","","","","html-keyboard-response","84","302356","0.0-84.0","07F6CDA8ED48423E874BAE793DE79FB0","019cf713-ead8-70ce-a1e4-474b0f3c3f06","019cf6fe-235e-7d95-bb9b-b011d2fe188e","","null","
                <div class=""stimulus-container"">
                    <img src=""images/schematic_sequence/dinner_party_scheme/dinner_party_scheme_3.png"" class=""exp-image"">
                    <div class=""question-area""></div> 
                </div>","null","","","","","","","","",""
"","","","","","html-button-response","85","303092","0.0-85.0","07F6CDA8ED48423E874BAE793DE79FB0","019cf713-ead8-70ce-a1e4-474b0f3c3f06","019cf6fe-235e-7d95-bb9b-b011d2fe188e","","735","
                <div class=""stimulus-container"">
                    <img src=""images/schematic_sequence/dinner_party_scheme/dinner_party_scheme_3.png"" class=""exp-image"">
                    <div class=""question-area"">
                        <p style=""font-size: 20px; font-weight: bold; margin: 0;"">Is there a person in this image?</p>
                    </div>
                </div>","0","main_experiment_trial","3","dinner_party_scheme","schematic_sequence","","","","",""
"","","","","","html-keyboard-response","86","308125","0.0-86.0","07F6CDA8ED48423E874BAE793DE79FB0","019cf713-ead8-70ce-a1e4-474b0f3c3f06","019cf6fe-235e-7d95-bb9b-b011d2fe188e","","null","
                <div class=""stimulus-container"">
                    <img src=""images/schematic_sequence/dinner_party_scheme/dinner_party_scheme_4.png"" class=""exp-image"">
                    <div class=""question-area""></div> 
                </div>","null","","","","","","","","",""
"","","","","","html-button-response","87","308691","0.0-87.0","07F6CDA8ED48423E874BAE793DE79FB0","019cf713-ead8-70ce-a1e4-474b0f3c3f06","019cf6fe-235e-7d95-bb9b-b011d2fe188e","","564","
                <div class=""stimulus-container"">
                    <img src=""images/schematic_sequence/dinner_party_scheme/dinner_party_scheme_4.png"" class=""exp-image"">
                    <div class=""question-area"">
                        <p style=""font-size: 20px; font-weight: bold; margin: 0;"">Is there a person in this image?</p>
                    </div>
                </div>","0","main_experiment_trial","4","dinner_party_scheme","schematic_sequence","","","","",""
"","","","","","html-keyboard-response","88","313698","0.0-88.0","07F6CDA8ED48423E874BAE793DE79FB0","019cf713-ead8-70ce-a1e4-474b0f3c3f06","019cf6fe-235e-7d95-bb9b-b011d2fe188e","","null","
                <div class=""stimulus-container"">
                    <img src=""images/schematic_sequence/dinner_party_scheme/dinner_party_scheme_5.png"" class=""exp-image"">
                    <div class=""question-area""></div> 
                </div>","null","","","","","","","","",""
"","","","","","html-button-response","89","314535","0.0-89.0","07F6CDA8ED48423E874BAE793DE79FB0","019cf713-ead8-70ce-a1e4-474b0f3c3f06","019cf6fe-235e-7d95-bb9b-b011d2fe188e","","836","
                <div class=""stimulus-container"">
                    <img src=""images/schematic_sequence/dinner_party_scheme/dinner_party_scheme_5.png"" class=""exp-image"">
                    <div class=""question-area"">
                        <p style=""font-size: 20px; font-weight: bold; margin: 0;"">Is there a person in this image?</p>
                    </div>
                </div>","0","main_experiment_trial","5","dinner_party_scheme","schematic_sequence","","","","",""
"","","","","","html-keyboard-response","90","319547","0.0-90.0","07F6CDA8ED48423E874BAE793DE79FB0","019cf713-ead8-70ce-a1e4-474b0f3c3f06","019cf6fe-235e-7d95-bb9b-b011d2fe188e","","null","
                <div class=""stimulus-container"">
                    <img src=""images/schematic_sequence/dinner_party_scheme/dinner_party_scheme_6.png"" class=""exp-image"">
                    <div class=""question-area""></div> 
                </div>","null","","","","","","","","",""
"","","","","","html-button-response","91","320208","0.0-91.0","07F6CDA8ED48423E874BAE793DE79FB0","019cf713-ead8-70ce-a1e4-474b0f3c3f06","019cf6fe-235e-7d95-bb9b-b011d2fe188e","","660","
                <div class=""stimulus-container"">
                    <img src=""images/schematic_sequence/dinner_party_scheme/dinner_party_scheme_6.png"" class=""exp-image"">
                    <div class=""question-area"">
                        <p style=""font-size: 20px; font-weight: bold; margin: 0;"">Is there a person in this image?</p>
                    </div>
                </div>","0","main_experiment_trial","6","dinner_party_scheme","schematic_sequence","","","","",""
"","","","","","html-keyboard-response","92","325213","0.0-92.0","07F6CDA8ED48423E874BAE793DE79FB0","019cf713-ead8-70ce-a1e4-474b0f3c3f06","019cf6fe-235e-7d95-bb9b-b011d2fe188e","","null","
                <div class=""stimulus-container"">
                    <img src=""images/schematic_sequence/dinner_party_scheme/dinner_party_scheme_7.png"" class=""exp-image"">
                    <div class=""question-area""></div> 
                </div>","null","","","","","","","","",""
"","","","","","html-button-response","93","325968","0.0-93.0","07F6CDA8ED48423E874BAE793DE79FB0","019cf713-ead8-70ce-a1e4-474b0f3c3f06","019cf6fe-235e-7d95-bb9b-b011d2fe188e","","753","
                <div class=""stimulus-container"">
                    <img src=""images/schematic_sequence/dinner_party_scheme/dinner_party_scheme_7.png"" class=""exp-image"">
                    <div class=""question-area"">
                        <p style=""font-size: 20px; font-weight: bold; margin: 0;"">Is there a person in this image?</p>
                    </div>
                </div>","0","main_experiment_trial","7","dinner_party_scheme","schematic_sequence","","","","",""
"","","","","","html-keyboard-response","94","330972","0.0-94.0","07F6CDA8ED48423E874BAE793DE79FB0","019cf713-ead8-70ce-a1e4-474b0f3c3f06","019cf6fe-235e-7d95-bb9b-b011d2fe188e","","null","
                <div class=""stimulus-container"">
                    <img src=""images/schematic_sequence/dinner_party_scheme/dinner_party_scheme_8.png"" class=""exp-image"">
                    <div class=""question-area""></div> 
                </div>","null","","","","","","","","",""
"","","","","","html-button-response","95","331788","0.0-95.0","07F6CDA8ED48423E874BAE793DE79FB0","019cf713-ead8-70ce-a1e4-474b0f3c3f06","019cf6fe-235e-7d95-bb9b-b011d2fe188e","","814","
                <div class=""stimulus-container"">
                    <img src=""images/schematic_sequence/dinner_party_scheme/dinner_party_scheme_8.png"" class=""exp-image"">
                    <div class=""question-area"">
                        <p style=""font-size: 20px; font-weight: bold; margin: 0;"">Is there a person in this image?</p>
                    </div>
                </div>","0","main_experiment_trial","8","dinner_party_scheme","schematic_sequence","","","","",""
"","","","","","html-keyboard-response","96","336790","0.0-96.0","07F6CDA8ED48423E874BAE793DE79FB0","019cf713-ead8-70ce-a1e4-474b0f3c3f06","019cf6fe-235e-7d95-bb9b-b011d2fe188e","","null","
                <div class=""stimulus-container"">
                    <img src=""images/schematic_sequence/dinner_party_scheme/dinner_party_scheme_9.png"" class=""exp-image"">
                    <div class=""question-area""></div> 
                </div>","null","","","","","","","","",""
"","","","","","html-button-response","97","337614","0.0-97.0","07F6CDA8ED48423E874BAE793DE79FB0","019cf713-ead8-70ce-a1e4-474b0f3c3f06","019cf6fe-235e-7d95-bb9b-b011d2fe188e","","823","
                <div class=""stimulus-container"">
                    <img src=""images/schematic_sequence/dinner_party_scheme/dinner_party_scheme_9.png"" class=""exp-image"">
                    <div class=""question-area"">
                        <p style=""font-size: 20px; font-weight: bold; margin: 0;"">Is there a person in this image?</p>
                    </div>
                </div>","0","main_experiment_trial","9","dinner_party_scheme","schematic_sequence","","","","",""
"","","","","","html-keyboard-response","98","342630","0.0-98.0","07F6CDA8ED48423E874BAE793DE79FB0","019cf713-ead8-70ce-a1e4-474b0f3c3f06","019cf6fe-235e-7d95-bb9b-b011d2fe188e","","null","
                <div class=""stimulus-container"">
                    <img src=""images/schematic_sequence/dinner_party_scheme/dinner_party_scheme_ten.png"" class=""exp-image"">
                    <div class=""question-area""></div> 
                </div>","null","","","","","","","","",""
"","","","","","html-button-response","99","343412","0.0-99.0","07F6CDA8ED48423E874BAE793DE79FB0","019cf713-ead8-70ce-a1e4-474b0f3c3f06","019cf6fe-235e-7d95-bb9b-b011d2fe188e","","781","
                <div class=""stimulus-container"">
                    <img src=""images/schematic_sequence/dinner_party_scheme/dinner_party_scheme_ten.png"" class=""exp-image"">
                    <div class=""question-area"">
                        <p style=""font-size: 20px; font-weight: bold; margin: 0;"">Is there a person in this image?</p>
                    </div>
                </div>","0","main_experiment_trial","ten","dinner_party_scheme","schematic_sequence","","","","",""
"","","","","","html-keyboard-response","100","344423","0.0-100.0","07F6CDA8ED48423E874BAE793DE79FB0","019cf713-ead8-70ce-a1e4-474b0f3c3f06","019cf6fe-235e-7d95-bb9b-b011d2fe188e","","null","<div style=""background-color: white; width: 100vw; height: 100vh;""></div>","null","","","","","","","","",""
"","","","","","html-keyboard-response","101","349437","0.0-101.0","07F6CDA8ED48423E874BAE793DE79FB0","019cf713-ead8-70ce-a1e4-474b0f3c3f06","019cf6fe-235e-7d95-bb9b-b011d2fe188e","","null","
                <div class=""stimulus-container"">
                    <img src=""images/causal_sequence/museum_causal/museum_causal_1.png"" class=""exp-image"">
                    <div class=""question-area""></div> 
                </div>","null","","","","","","","","",""
"","","","","","html-button-response","102","350218","0.0-102.0","07F6CDA8ED48423E874BAE793DE79FB0","019cf713-ead8-70ce-a1e4-474b0f3c3f06","019cf6fe-235e-7d95-bb9b-b011d2fe188e","","779","
                <div class=""stimulus-container"">
                    <img src=""images/causal_sequence/museum_causal/museum_causal_1.png"" class=""exp-image"">
                    <div class=""question-area"">
                        <p style=""font-size: 20px; font-weight: bold; margin: 0;"">Is there a person in this image?</p>
                    </div>
                </div>","0","main_experiment_trial","1","museum_causal","causal_sequence","","","","",""
"","","","","","html-keyboard-response","103","355230","0.0-103.0","07F6CDA8ED48423E874BAE793DE79FB0","019cf713-ead8-70ce-a1e4-474b0f3c3f06","019cf6fe-235e-7d95-bb9b-b011d2fe188e","","null","
                <div class=""stimulus-container"">
                    <img src=""images/causal_sequence/museum_causal/museum_causal_2.png"" class=""exp-image"">
                    <div class=""question-area""></div> 
                </div>","null","","","","","","","","",""
"","","","","","html-button-response","104","355726","0.0-104.0","07F6CDA8ED48423E874BAE793DE79FB0","019cf713-ead8-70ce-a1e4-474b0f3c3f06","019cf6fe-235e-7d95-bb9b-b011d2fe188e","","495","
                <div class=""stimulus-container"">
                    <img src=""images/causal_sequence/museum_causal/museum_causal_2.png"" class=""exp-image"">
                    <div class=""question-area"">
                        <p style=""font-size: 20px; font-weight: bold; margin: 0;"">Is there a person in this image?</p>
                    </div>
                </div>","0","main_experiment_trial","2","museum_causal","causal_sequence","","","","",""
"","","","","","html-keyboard-response","105","360741","0.0-105.0","07F6CDA8ED48423E874BAE793DE79FB0","019cf713-ead8-70ce-a1e4-474b0f3c3f06","019cf6fe-235e-7d95-bb9b-b011d2fe188e","","null","
                <div class=""stimulus-container"">
                    <img src=""images/causal_sequence/museum_causal/museum_causal_3.png"" class=""exp-image"">
                    <div class=""question-area""></div> 
                </div>","null","","","","","","","","",""
"","","","","","html-button-response","106","361445","0.0-106.0","07F6CDA8ED48423E874BAE793DE79FB0","019cf713-ead8-70ce-a1e4-474b0f3c3f06","019cf6fe-235e-7d95-bb9b-b011d2fe188e","","702","
                <div class=""stimulus-container"">
                    <img src=""images/causal_sequence/museum_causal/museum_causal_3.png"" class=""exp-image"">
                    <div class=""question-area"">
                        <p style=""font-size: 20px; font-weight: bold; margin: 0;"">Is there a person in this image?</p>
                    </div>
                </div>","0","main_experiment_trial","3","museum_causal","causal_sequence","","","","",""
"","","","","","html-keyboard-response","107","366455","0.0-107.0","07F6CDA8ED48423E874BAE793DE79FB0","019cf713-ead8-70ce-a1e4-474b0f3c3f06","019cf6fe-235e-7d95-bb9b-b011d2fe188e","","null","
                <div class=""stimulus-container"">
                    <img src=""images/causal_sequence/museum_causal/museum_causal_4.png"" class=""exp-image"">
                    <div class=""question-area""></div> 
                </div>","null","","","","","","","","",""
"","","","","","html-button-response","108","367237","0.0-108.0","07F6CDA8ED48423E874BAE793DE79FB0","019cf713-ead8-70ce-a1e4-474b0f3c3f06","019cf6fe-235e-7d95-bb9b-b011d2fe188e","","780","
                <div class=""stimulus-container"">
                    <img src=""images/causal_sequence/museum_causal/museum_causal_4.png"" class=""exp-image"">
                    <div class=""question-area"">
                        <p style=""font-size: 20px; font-weight: bold; margin: 0;"">Is there a person in this image?</p>
                    </div>
                </div>","1","main_experiment_trial","4","museum_causal","causal_sequence","","","","",""
"","","","","","html-keyboard-response","109","372261","0.0-109.0","07F6CDA8ED48423E874BAE793DE79FB0","019cf713-ead8-70ce-a1e4-474b0f3c3f06","019cf6fe-235e-7d95-bb9b-b011d2fe188e","","null","
                <div class=""stimulus-container"">
                    <img src=""images/causal_sequence/museum_causal/museum_causal_5.png"" class=""exp-image"">
                    <div class=""question-area""></div> 
                </div>","null","","","","","","","","",""
"","","","","","html-button-response","110","374173","0.0-110.0","07F6CDA8ED48423E874BAE793DE79FB0","019cf713-ead8-70ce-a1e4-474b0f3c3f06","019cf6fe-235e-7d95-bb9b-b011d2fe188e","","1910","
                <div class=""stimulus-container"">
                    <img src=""images/causal_sequence/museum_causal/museum_causal_5.png"" class=""exp-image"">
                    <div class=""question-area"">
                        <p style=""font-size: 20px; font-weight: bold; margin: 0;"">Is there a person in this image?</p>
                    </div>
                </div>","0","main_experiment_trial","5","museum_causal","causal_sequence","","","","",""
"","","","","","html-keyboard-response","111","379174","0.0-111.0","07F6CDA8ED48423E874BAE793DE79FB0","019cf713-ead8-70ce-a1e4-474b0f3c3f06","019cf6fe-235e-7d95-bb9b-b011d2fe188e","","null","
                <div class=""stimulus-container"">
                    <img src=""images/causal_sequence/museum_causal/museum_causal_6.png"" class=""exp-image"">
                    <div class=""question-area""></div> 
                </div>","null","","","","","","","","",""
"","","","","","html-button-response","112","382181","0.0-112.0","07F6CDA8ED48423E874BAE793DE79FB0","019cf713-ead8-70ce-a1e4-474b0f3c3f06","019cf6fe-235e-7d95-bb9b-b011d2fe188e","","null","
                <div class=""stimulus-container"">
                    <img src=""images/causal_sequence/museum_causal/museum_causal_6.png"" class=""exp-image"">
                    <div class=""question-area"">
                        <p style=""font-size: 20px; font-weight: bold; margin: 0;"">Is there a person in this image?</p>
                    </div>
                </div>","null","main_experiment_trial","6","museum_causal","causal_sequence","","","","",""
"","","","","","html-keyboard-response","113","387194","0.0-113.0","07F6CDA8ED48423E874BAE793DE79FB0","019cf713-ead8-70ce-a1e4-474b0f3c3f06","019cf6fe-235e-7d95-bb9b-b011d2fe188e","","null","
                <div class=""stimulus-container"">
                    <img src=""images/causal_sequence/museum_causal/museum_causal_7.png"" class=""exp-image"">
                    <div class=""question-area""></div> 
                </div>","null","","","","","","","","",""
"","","","","","html-button-response","114","388047","0.0-114.0","07F6CDA8ED48423E874BAE793DE79FB0","019cf713-ead8-70ce-a1e4-474b0f3c3f06","019cf6fe-235e-7d95-bb9b-b011d2fe188e","","852","
                <div class=""stimulus-container"">
                    <img src=""images/causal_sequence/museum_causal/museum_causal_7.png"" class=""exp-image"">
                    <div class=""question-area"">
                        <p style=""font-size: 20px; font-weight: bold; margin: 0;"">Is there a person in this image?</p>
                    </div>
                </div>","1","main_experiment_trial","7","museum_causal","causal_sequence","","","","",""
"","","","","","html-keyboard-response","115","393059","0.0-115.0","07F6CDA8ED48423E874BAE793DE79FB0","019cf713-ead8-70ce-a1e4-474b0f3c3f06","019cf6fe-235e-7d95-bb9b-b011d2fe188e","","null","
                <div class=""stimulus-container"">
                    <img src=""images/causal_sequence/museum_causal/museum_causal_8.png"" class=""exp-image"">
                    <div class=""question-area""></div> 
                </div>","null","","","","","","","","",""
"","","","","","html-button-response","116","393929","0.0-116.0","07F6CDA8ED48423E874BAE793DE79FB0","019cf713-ead8-70ce-a1e4-474b0f3c3f06","019cf6fe-235e-7d95-bb9b-b011d2fe188e","","869","
                <div class=""stimulus-container"">
                    <img src=""images/causal_sequence/museum_causal/museum_causal_8.png"" class=""exp-image"">
                    <div class=""question-area"">
                        <p style=""font-size: 20px; font-weight: bold; margin: 0;"">Is there a person in this image?</p>
                    </div>
                </div>","0","main_experiment_trial","8","museum_causal","causal_sequence","","","","",""
"","","","","","html-keyboard-response","117","398932","0.0-117.0","07F6CDA8ED48423E874BAE793DE79FB0","019cf713-ead8-70ce-a1e4-474b0f3c3f06","019cf6fe-235e-7d95-bb9b-b011d2fe188e","","null","
                <div class=""stimulus-container"">
                    <img src=""images/causal_sequence/museum_causal/museum_causal_9.png"" class=""exp-image"">
                    <div class=""question-area""></div> 
                </div>","null","","","","","","","","",""
"","","","","","html-button-response","118","399925","0.0-118.0","07F6CDA8ED48423E874BAE793DE79FB0","019cf713-ead8-70ce-a1e4-474b0f3c3f06","019cf6fe-235e-7d95-bb9b-b011d2fe188e","","991","
                <div class=""stimulus-container"">
                    <img src=""images/causal_sequence/museum_causal/museum_causal_9.png"" class=""exp-image"">
                    <div class=""question-area"">
                        <p style=""font-size: 20px; font-weight: bold; margin: 0;"">Is there a person in this image?</p>
                    </div>
                </div>","1","main_experiment_trial","9","museum_causal","causal_sequence","","","","",""
"","","","","","html-keyboard-response","119","404942","0.0-119.0","07F6CDA8ED48423E874BAE793DE79FB0","019cf713-ead8-70ce-a1e4-474b0f3c3f06","019cf6fe-235e-7d95-bb9b-b011d2fe188e","","null","
                <div class=""stimulus-container"">
                    <img src=""images/causal_sequence/museum_causal/museum_causal_ten.png"" class=""exp-image"">
                    <div class=""question-area""></div> 
                </div>","null","","","","","","","","",""
"","","","","","html-button-response","120","406121","0.0-120.0","07F6CDA8ED48423E874BAE793DE79FB0","019cf713-ead8-70ce-a1e4-474b0f3c3f06","019cf6fe-235e-7d95-bb9b-b011d2fe188e","","1177","
                <div class=""stimulus-container"">
                    <img src=""images/causal_sequence/museum_causal/museum_causal_ten.png"" class=""exp-image"">
                    <div class=""question-area"">
                        <p style=""font-size: 20px; font-weight: bold; margin: 0;"">Is there a person in this image?</p>
                    </div>
                </div>","0","main_experiment_trial","ten","museum_causal","causal_sequence","","","","",""
"","","","","","html-keyboard-response","121","407130","0.0-121.0","07F6CDA8ED48423E874BAE793DE79FB0","019cf713-ead8-70ce-a1e4-474b0f3c3f06","019cf6fe-235e-7d95-bb9b-b011d2fe188e","","null","<div style=""background-color: white; width: 100vw; height: 100vh;""></div>","null","","","","","","","","",""
"","","","","","html-keyboard-response","122","412138","0.0-122.0","07F6CDA8ED48423E874BAE793DE79FB0","019cf713-ead8-70ce-a1e4-474b0f3c3f06","019cf6fe-235e-7d95-bb9b-b011d2fe188e","","null","
                <div class=""stimulus-container"">
                    <img src=""images/causal_sequence/the_performance_causal/the_performance_causal_1.png"" class=""exp-image"">
                    <div class=""question-area""></div> 
                </div>","null","","","","","","","","",""
"","","","","","html-button-response","123","412637","0.0-123.0","07F6CDA8ED48423E874BAE793DE79FB0","019cf713-ead8-70ce-a1e4-474b0f3c3f06","019cf6fe-235e-7d95-bb9b-b011d2fe188e","","497","
                <div class=""stimulus-container"">
                    <img src=""images/causal_sequence/the_performance_causal/the_performance_causal_1.png"" class=""exp-image"">
                    <div class=""question-area"">
                        <p style=""font-size: 20px; font-weight: bold; margin: 0;"">Is there a person in this image?</p>
                    </div>
                </div>","0","main_experiment_trial","1","the_performance_causal","causal_sequence","","","","",""
"","","","","","html-keyboard-response","124","417646","0.0-124.0","07F6CDA8ED48423E874BAE793DE79FB0","019cf713-ead8-70ce-a1e4-474b0f3c3f06","019cf6fe-235e-7d95-bb9b-b011d2fe188e","","null","
                <div class=""stimulus-container"">
                    <img src=""images/causal_sequence/the_performance_causal/the_performance_causal_2.png"" class=""exp-image"">
                    <div class=""question-area""></div> 
                </div>","null","","","","","","","","",""
"","","","","","html-button-response","125","418102","0.0-125.0","07F6CDA8ED48423E874BAE793DE79FB0","019cf713-ead8-70ce-a1e4-474b0f3c3f06","019cf6fe-235e-7d95-bb9b-b011d2fe188e","","454","
                <div class=""stimulus-container"">
                    <img src=""images/causal_sequence/the_performance_causal/the_performance_causal_2.png"" class=""exp-image"">
                    <div class=""question-area"">
                        <p style=""font-size: 20px; font-weight: bold; margin: 0;"">Is there a person in this image?</p>
                    </div>
                </div>","0","main_experiment_trial","2","the_performance_causal","causal_sequence","","","","",""
"","","","","","html-keyboard-response","126","423118","0.0-126.0","07F6CDA8ED48423E874BAE793DE79FB0","019cf713-ead8-70ce-a1e4-474b0f3c3f06","019cf6fe-235e-7d95-bb9b-b011d2fe188e","","null","
                <div class=""stimulus-container"">
                    <img src=""images/causal_sequence/the_performance_causal/the_performance_causal_3.png"" class=""exp-image"">
                    <div class=""question-area""></div> 
                </div>","null","","","","","","","","",""
"","","","","","html-button-response","127","423685","0.0-127.0","07F6CDA8ED48423E874BAE793DE79FB0","019cf713-ead8-70ce-a1e4-474b0f3c3f06","019cf6fe-235e-7d95-bb9b-b011d2fe188e","","565","
                <div class=""stimulus-container"">
                    <img src=""images/causal_sequence/the_performance_causal/the_performance_causal_3.png"" class=""exp-image"">
                    <div class=""question-area"">
                        <p style=""font-size: 20px; font-weight: bold; margin: 0;"">Is there a person in this image?</p>
                    </div>
                </div>","0","main_experiment_trial","3","the_performance_causal","causal_sequence","","","","",""
"","","","","","html-keyboard-response","128","428706","0.0-128.0","07F6CDA8ED48423E874BAE793DE79FB0","019cf713-ead8-70ce-a1e4-474b0f3c3f06","019cf6fe-235e-7d95-bb9b-b011d2fe188e","","null","
                <div class=""stimulus-container"">
                    <img src=""images/causal_sequence/the_performance_causal/the_performance_causal_4.png"" class=""exp-image"">
                    <div class=""question-area""></div> 
                </div>","null","","","","","","","","",""
"","","","","","html-button-response","129","429784","0.0-129.0","07F6CDA8ED48423E874BAE793DE79FB0","019cf713-ead8-70ce-a1e4-474b0f3c3f06","019cf6fe-235e-7d95-bb9b-b011d2fe188e","","1076","
                <div class=""stimulus-container"">
                    <img src=""images/causal_sequence/the_performance_causal/the_performance_causal_4.png"" class=""exp-image"">
                    <div class=""question-area"">
                        <p style=""font-size: 20px; font-weight: bold; margin: 0;"">Is there a person in this image?</p>
                    </div>
                </div>","0","main_experiment_trial","4","the_performance_causal","causal_sequence","","","","",""
"","","","","","html-keyboard-response","130","434787","0.0-130.0","07F6CDA8ED48423E874BAE793DE79FB0","019cf713-ead8-70ce-a1e4-474b0f3c3f06","019cf6fe-235e-7d95-bb9b-b011d2fe188e","","null","
                <div class=""stimulus-container"">
                    <img src=""images/causal_sequence/the_performance_causal/the_performance_causal_5.png"" class=""exp-image"">
                    <div class=""question-area""></div> 
                </div>","null","","","","","","","","",""
"","","","","","html-button-response","131","435521","0.0-131.0","07F6CDA8ED48423E874BAE793DE79FB0","019cf713-ead8-70ce-a1e4-474b0f3c3f06","019cf6fe-235e-7d95-bb9b-b011d2fe188e","","732","
                <div class=""stimulus-container"">
                    <img src=""images/causal_sequence/the_performance_causal/the_performance_causal_5.png"" class=""exp-image"">
                    <div class=""question-area"">
                        <p style=""font-size: 20px; font-weight: bold; margin: 0;"">Is there a person in this image?</p>
                    </div>
                </div>","0","main_experiment_trial","5","the_performance_causal","causal_sequence","","","","",""
"","","","","","html-keyboard-response","132","440530","0.0-132.0","07F6CDA8ED48423E874BAE793DE79FB0","019cf713-ead8-70ce-a1e4-474b0f3c3f06","019cf6fe-235e-7d95-bb9b-b011d2fe188e","","null","
                <div class=""stimulus-container"">
                    <img src=""images/causal_sequence/the_performance_causal/the_performance_causal_6.png"" class=""exp-image"">
                    <div class=""question-area""></div> 
                </div>","null","","","","","","","","",""
"","","","","","html-button-response","133","441197","0.0-133.0","07F6CDA8ED48423E874BAE793DE79FB0","019cf713-ead8-70ce-a1e4-474b0f3c3f06","019cf6fe-235e-7d95-bb9b-b011d2fe188e","","665","
                <div class=""stimulus-container"">
                    <img src=""images/causal_sequence/the_performance_causal/the_performance_causal_6.png"" class=""exp-image"">
                    <div class=""question-area"">
                        <p style=""font-size: 20px; font-weight: bold; margin: 0;"">Is there a person in this image?</p>
                    </div>
                </div>","0","main_experiment_trial","6","the_performance_causal","causal_sequence","","","","",""
"","","","","","html-keyboard-response","134","446199","0.0-134.0","07F6CDA8ED48423E874BAE793DE79FB0","019cf713-ead8-70ce-a1e4-474b0f3c3f06","019cf6fe-235e-7d95-bb9b-b011d2fe188e","","null","
                <div class=""stimulus-container"">
                    <img src=""images/causal_sequence/the_performance_causal/the_performance_causal_7.png"" class=""exp-image"">
                    <div class=""question-area""></div> 
                </div>","null","","","","","","","","",""
"","","","","","html-button-response","135","446794","0.0-135.0","07F6CDA8ED48423E874BAE793DE79FB0","019cf713-ead8-70ce-a1e4-474b0f3c3f06","019cf6fe-235e-7d95-bb9b-b011d2fe188e","","593","
                <div class=""stimulus-container"">
                    <img src=""images/causal_sequence/the_performance_causal/the_performance_causal_7.png"" class=""exp-image"">
                    <div class=""question-area"">
                        <p style=""font-size: 20px; font-weight: bold; margin: 0;"">Is there a person in this image?</p>
                    </div>
                </div>","0","main_experiment_trial","7","the_performance_causal","causal_sequence","","","","",""
"","","","","","html-keyboard-response","136","451804","0.0-136.0","07F6CDA8ED48423E874BAE793DE79FB0","019cf713-ead8-70ce-a1e4-474b0f3c3f06","019cf6fe-235e-7d95-bb9b-b011d2fe188e","","null","
                <div class=""stimulus-container"">
                    <img src=""images/causal_sequence/the_performance_causal/the_performance_causal_8.png"" class=""exp-image"">
                    <div class=""question-area""></div> 
                </div>","null","","","","","","","","",""
"","","","","","html-button-response","137","452471","0.0-137.0","07F6CDA8ED48423E874BAE793DE79FB0","019cf713-ead8-70ce-a1e4-474b0f3c3f06","019cf6fe-235e-7d95-bb9b-b011d2fe188e","","665","
                <div class=""stimulus-container"">
                    <img src=""images/causal_sequence/the_performance_causal/the_performance_causal_8.png"" class=""exp-image"">
                    <div class=""question-area"">
                        <p style=""font-size: 20px; font-weight: bold; margin: 0;"">Is there a person in this image?</p>
                    </div>
                </div>","0","main_experiment_trial","8","the_performance_causal","causal_sequence","","","","",""
"","","","","","html-keyboard-response","138","457487","0.0-138.0","07F6CDA8ED48423E874BAE793DE79FB0","019cf713-ead8-70ce-a1e4-474b0f3c3f06","019cf6fe-235e-7d95-bb9b-b011d2fe188e","","null","
                <div class=""stimulus-container"">
                    <img src=""images/causal_sequence/the_performance_causal/the_performance_causal_9.png"" class=""exp-image"">
                    <div class=""question-area""></div> 
                </div>","null","","","","","","","","",""
"","","","","","html-button-response","139","460505","0.0-139.0","07F6CDA8ED48423E874BAE793DE79FB0","019cf713-ead8-70ce-a1e4-474b0f3c3f06","019cf6fe-235e-7d95-bb9b-b011d2fe188e","","null","
                <div class=""stimulus-container"">
                    <img src=""images/causal_sequence/the_performance_causal/the_performance_causal_9.png"" class=""exp-image"">
                    <div class=""question-area"">
                        <p style=""font-size: 20px; font-weight: bold; margin: 0;"">Is there a person in this image?</p>
                    </div>
                </div>","null","main_experiment_trial","9","the_performance_causal","causal_sequence","","","","",""
"","","","","","html-keyboard-response","140","465511","0.0-140.0","07F6CDA8ED48423E874BAE793DE79FB0","019cf713-ead8-70ce-a1e4-474b0f3c3f06","019cf6fe-235e-7d95-bb9b-b011d2fe188e","","null","
                <div class=""stimulus-container"">
                    <img src=""images/causal_sequence/the_performance_causal/the_performance_causal_ten.png"" class=""exp-image"">
                    <div class=""question-area""></div> 
                </div>","null","","","","","","","","",""
"","","","","","html-button-response","141","466747","0.0-141.0","07F6CDA8ED48423E874BAE793DE79FB0","019cf713-ead8-70ce-a1e4-474b0f3c3f06","019cf6fe-235e-7d95-bb9b-b011d2fe188e","","1234","
                <div class=""stimulus-container"">
                    <img src=""images/causal_sequence/the_performance_causal/the_performance_causal_ten.png"" class=""exp-image"">
                    <div class=""question-area"">
                        <p style=""font-size: 20px; font-weight: bold; margin: 0;"">Is there a person in this image?</p>
                    </div>
                </div>","0","main_experiment_trial","ten","the_performance_causal","causal_sequence","","","","",""
"","","","","","html-keyboard-response","142","467763","0.0-142.0","07F6CDA8ED48423E874BAE793DE79FB0","019cf713-ead8-70ce-a1e4-474b0f3c3f06","019cf6fe-235e-7d95-bb9b-b011d2fe188e","","null","<div style=""background-color: white; width: 100vw; height: 100vh;""></div>","null","","","","","","","","",""
"","","","","","html-keyboard-response","143","472765","0.0-143.0","07F6CDA8ED48423E874BAE793DE79FB0","019cf713-ead8-70ce-a1e4-474b0f3c3f06","019cf6fe-235e-7d95-bb9b-b011d2fe188e","","null","
                <div class=""stimulus-container"">
                    <img src=""images/schematic_sequence/flight_scheme/flight_scheme_1.png"" class=""exp-image"">
                    <div class=""question-area""></div> 
                </div>","null","","","","","","","","",""
"","","","","","html-button-response","144","473581","0.0-144.0","07F6CDA8ED48423E874BAE793DE79FB0","019cf713-ead8-70ce-a1e4-474b0f3c3f06","019cf6fe-235e-7d95-bb9b-b011d2fe188e","","814","
                <div class=""stimulus-container"">
                    <img src=""images/schematic_sequence/flight_scheme/flight_scheme_1.png"" class=""exp-image"">
                    <div class=""question-area"">
                        <p style=""font-size: 20px; font-weight: bold; margin: 0;"">Is there a person in this image?</p>
                    </div>
                </div>","0","main_experiment_trial","1","flight_scheme","schematic_sequence","","","","",""
"","","","","","html-keyboard-response","145","478587","0.0-145.0","07F6CDA8ED48423E874BAE793DE79FB0","019cf713-ead8-70ce-a1e4-474b0f3c3f06","019cf6fe-235e-7d95-bb9b-b011d2fe188e","","null","
                <div class=""stimulus-container"">
                    <img src=""images/schematic_sequence/flight_scheme/flight_scheme_2.png"" class=""exp-image"">
                    <div class=""question-area""></div> 
                </div>","null","","","","","","","","",""
"","","","","","html-button-response","146","479627","0.0-146.0","07F6CDA8ED48423E874BAE793DE79FB0","019cf713-ead8-70ce-a1e4-474b0f3c3f06","019cf6fe-235e-7d95-bb9b-b011d2fe188e","","1037","
                <div class=""stimulus-container"">
                    <img src=""images/schematic_sequence/flight_scheme/flight_scheme_2.png"" class=""exp-image"">
                    <div class=""question-area"">
                        <p style=""font-size: 20px; font-weight: bold; margin: 0;"">Is there a person in this image?</p>
                    </div>
                </div>","1","main_experiment_trial","2","flight_scheme","schematic_sequence","","","","",""
"","","","","","html-keyboard-response","147","484636","0.0-147.0","07F6CDA8ED48423E874BAE793DE79FB0","019cf713-ead8-70ce-a1e4-474b0f3c3f06","019cf6fe-235e-7d95-bb9b-b011d2fe188e","","null","
                <div class=""stimulus-container"">
                    <img src=""images/schematic_sequence/flight_scheme/flight_scheme_3.png"" class=""exp-image"">
                    <div class=""question-area""></div> 
                </div>","null","","","","","","","","",""
"","","","","","html-button-response","148","485327","0.0-148.0","07F6CDA8ED48423E874BAE793DE79FB0","019cf713-ead8-70ce-a1e4-474b0f3c3f06","019cf6fe-235e-7d95-bb9b-b011d2fe188e","","690","
                <div class=""stimulus-container"">
                    <img src=""images/schematic_sequence/flight_scheme/flight_scheme_3.png"" class=""exp-image"">
                    <div class=""question-area"">
                        <p style=""font-size: 20px; font-weight: bold; margin: 0;"">Is there a person in this image?</p>
                    </div>
                </div>","0","main_experiment_trial","3","flight_scheme","schematic_sequence","","","","",""
"","","","","","html-keyboard-response","149","490359","0.0-149.0","07F6CDA8ED48423E874BAE793DE79FB0","019cf713-ead8-70ce-a1e4-474b0f3c3f06","019cf6fe-235e-7d95-bb9b-b011d2fe188e","","null","
                <div class=""stimulus-container"">
                    <img src=""images/schematic_sequence/flight_scheme/flight_scheme_4.png"" class=""exp-image"">
                    <div class=""question-area""></div> 
                </div>","null","","","","","","","","",""
"","","","","","html-button-response","150","490952","0.0-150.0","07F6CDA8ED48423E874BAE793DE79FB0","019cf713-ead8-70ce-a1e4-474b0f3c3f06","019cf6fe-235e-7d95-bb9b-b011d2fe188e","","592","
                <div class=""stimulus-container"">
                    <img src=""images/schematic_sequence/flight_scheme/flight_scheme_4.png"" class=""exp-image"">
                    <div class=""question-area"">
                        <p style=""font-size: 20px; font-weight: bold; margin: 0;"">Is there a person in this image?</p>
                    </div>
                </div>","0","main_experiment_trial","4","flight_scheme","schematic_sequence","","","","",""
"","","","","","html-keyboard-response","151","495956","0.0-151.0","07F6CDA8ED48423E874BAE793DE79FB0","019cf713-ead8-70ce-a1e4-474b0f3c3f06","019cf6fe-235e-7d95-bb9b-b011d2fe188e","","null","
                <div class=""stimulus-container"">
                    <img src=""images/schematic_sequence/flight_scheme/flight_scheme_5.png"" class=""exp-image"">
                    <div class=""question-area""></div> 
                </div>","null","","","","","","","","",""
"","","","","","html-button-response","152","496463","0.0-152.0","07F6CDA8ED48423E874BAE793DE79FB0","019cf713-ead8-70ce-a1e4-474b0f3c3f06","019cf6fe-235e-7d95-bb9b-b011d2fe188e","","505","
                <div class=""stimulus-container"">
                    <img src=""images/schematic_sequence/flight_scheme/flight_scheme_5.png"" class=""exp-image"">
                    <div class=""question-area"">
                        <p style=""font-size: 20px; font-weight: bold; margin: 0;"">Is there a person in this image?</p>
                    </div>
                </div>","0","main_experiment_trial","5","flight_scheme","schematic_sequence","","","","",""
"","","","","","html-keyboard-response","153","501478","0.0-153.0","07F6CDA8ED48423E874BAE793DE79FB0","019cf713-ead8-70ce-a1e4-474b0f3c3f06","019cf6fe-235e-7d95-bb9b-b011d2fe188e","","null","
                <div class=""stimulus-container"">
                    <img src=""images/schematic_sequence/flight_scheme/flight_scheme_6.png"" class=""exp-image"">
                    <div class=""question-area""></div> 
                </div>","null","","","","","","","","",""
"","","","","","html-button-response","154","503396","0.0-154.0","07F6CDA8ED48423E874BAE793DE79FB0","019cf713-ead8-70ce-a1e4-474b0f3c3f06","019cf6fe-235e-7d95-bb9b-b011d2fe188e","","1916","
                <div class=""stimulus-container"">
                    <img src=""images/schematic_sequence/flight_scheme/flight_scheme_6.png"" class=""exp-image"">
                    <div class=""question-area"">
                        <p style=""font-size: 20px; font-weight: bold; margin: 0;"">Is there a person in this image?</p>
                    </div>
                </div>","1","main_experiment_trial","6","flight_scheme","schematic_sequence","","","","",""
"","","","","","html-keyboard-response","155","508399","0.0-155.0","07F6CDA8ED48423E874BAE793DE79FB0","019cf713-ead8-70ce-a1e4-474b0f3c3f06","019cf6fe-235e-7d95-bb9b-b011d2fe188e","","null","
                <div class=""stimulus-container"">
                    <img src=""images/schematic_sequence/flight_scheme/flight_scheme_7.png"" class=""exp-image"">
                    <div class=""question-area""></div> 
                </div>","null","","","","","","","","",""
"","","","","","html-button-response","156","509054","0.0-156.0","07F6CDA8ED48423E874BAE793DE79FB0","019cf713-ead8-70ce-a1e4-474b0f3c3f06","019cf6fe-235e-7d95-bb9b-b011d2fe188e","","654","
                <div class=""stimulus-container"">
                    <img src=""images/schematic_sequence/flight_scheme/flight_scheme_7.png"" class=""exp-image"">
                    <div class=""question-area"">
                        <p style=""font-size: 20px; font-weight: bold; margin: 0;"">Is there a person in this image?</p>
                    </div>
                </div>","1","main_experiment_trial","7","flight_scheme","schematic_sequence","","","","",""
"","","","","","html-keyboard-response","157","514068","0.0-157.0","07F6CDA8ED48423E874BAE793DE79FB0","019cf713-ead8-70ce-a1e4-474b0f3c3f06","019cf6fe-235e-7d95-bb9b-b011d2fe188e","","null","
                <div class=""stimulus-container"">
                    <img src=""images/schematic_sequence/flight_scheme/flight_scheme_8.png"" class=""exp-image"">
                    <div class=""question-area""></div> 
                </div>","null","","","","","","","","",""
"","","","","","html-button-response","158","514802","0.0-158.0","07F6CDA8ED48423E874BAE793DE79FB0","019cf713-ead8-70ce-a1e4-474b0f3c3f06","019cf6fe-235e-7d95-bb9b-b011d2fe188e","","732","
                <div class=""stimulus-container"">
                    <img src=""images/schematic_sequence/flight_scheme/flight_scheme_8.png"" class=""exp-image"">
                    <div class=""question-area"">
                        <p style=""font-size: 20px; font-weight: bold; margin: 0;"">Is there a person in this image?</p>
                    </div>
                </div>","1","main_experiment_trial","8","flight_scheme","schematic_sequence","","","","",""
"","","","","","html-keyboard-response","159","519807","0.0-159.0","07F6CDA8ED48423E874BAE793DE79FB0","019cf713-ead8-70ce-a1e4-474b0f3c3f06","019cf6fe-235e-7d95-bb9b-b011d2fe188e","","null","
                <div class=""stimulus-container"">
                    <img src=""images/schematic_sequence/flight_scheme/flight_scheme_9.png"" class=""exp-image"">
                    <div class=""question-area""></div> 
                </div>","null","","","","","","","","",""
"","","","","","html-button-response","160","520648","0.0-160.0","07F6CDA8ED48423E874BAE793DE79FB0","019cf713-ead8-70ce-a1e4-474b0f3c3f06","019cf6fe-235e-7d95-bb9b-b011d2fe188e","","839","
                <div class=""stimulus-container"">
                    <img src=""images/schematic_sequence/flight_scheme/flight_scheme_9.png"" class=""exp-image"">
                    <div class=""question-area"">
                        <p style=""font-size: 20px; font-weight: bold; margin: 0;"">Is there a person in this image?</p>
                    </div>
                </div>","0","main_experiment_trial","9","flight_scheme","schematic_sequence","","","","",""
"","","","","","html-keyboard-response","161","525650","0.0-161.0","07F6CDA8ED48423E874BAE793DE79FB0","019cf713-ead8-70ce-a1e4-474b0f3c3f06","019cf6fe-235e-7d95-bb9b-b011d2fe188e","","null","
                <div class=""stimulus-container"">
                    <img src=""images/schematic_sequence/flight_scheme/flight_scheme_ten.png"" class=""exp-image"">
                    <div class=""question-area""></div> 
                </div>","null","","","","","","","","",""
"","","","","","html-button-response","162","526372","0.0-162.0","07F6CDA8ED48423E874BAE793DE79FB0","019cf713-ead8-70ce-a1e4-474b0f3c3f06","019cf6fe-235e-7d95-bb9b-b011d2fe188e","","719","
                <div class=""stimulus-container"">
                    <img src=""images/schematic_sequence/flight_scheme/flight_scheme_ten.png"" class=""exp-image"">
                    <div class=""question-area"">
                        <p style=""font-size: 20px; font-weight: bold; margin: 0;"">Is there a person in this image?</p>
                    </div>
                </div>","0","main_experiment_trial","ten","flight_scheme","schematic_sequence","","","","",""
"","","","","","html-keyboard-response","163","527374","0.0-163.0","07F6CDA8ED48423E874BAE793DE79FB0","019cf713-ead8-70ce-a1e4-474b0f3c3f06","019cf6fe-235e-7d95-bb9b-b011d2fe188e","","null","<div style=""background-color: white; width: 100vw; height: 100vh;""></div>","null","","","","","","","","",""
"","","","","","html-keyboard-response","164","532376","0.0-164.0","07F6CDA8ED48423E874BAE793DE79FB0","019cf713-ead8-70ce-a1e4-474b0f3c3f06","019cf6fe-235e-7d95-bb9b-b011d2fe188e","","null","
                <div class=""stimulus-container"">
                    <img src=""images/schematic_sequence/supermarket_scheme/supermarket_scheme_1.png"" class=""exp-image"">
                    <div class=""question-area""></div> 
                </div>","null","","","","","","","","",""
"","","","","","html-button-response","165","533115","0.0-165.0","07F6CDA8ED48423E874BAE793DE79FB0","019cf713-ead8-70ce-a1e4-474b0f3c3f06","019cf6fe-235e-7d95-bb9b-b011d2fe188e","","737","
                <div class=""stimulus-container"">
                    <img src=""images/schematic_sequence/supermarket_scheme/supermarket_scheme_1.png"" class=""exp-image"">
                    <div class=""question-area"">
                        <p style=""font-size: 20px; font-weight: bold; margin: 0;"">Is there a person in this image?</p>
                    </div>
                </div>","1","main_experiment_trial","1","supermarket_scheme","schematic_sequence","","","","",""
"","","","","","html-keyboard-response","166","538130","0.0-166.0","07F6CDA8ED48423E874BAE793DE79FB0","019cf713-ead8-70ce-a1e4-474b0f3c3f06","019cf6fe-235e-7d95-bb9b-b011d2fe188e","","null","
                <div class=""stimulus-container"">
                    <img src=""images/schematic_sequence/supermarket_scheme/supermarket_scheme_2.png"" class=""exp-image"">
                    <div class=""question-area""></div> 
                </div>","null","","","","","","","","",""
"","","","","","html-button-response","167","538803","0.0-167.0","07F6CDA8ED48423E874BAE793DE79FB0","019cf713-ead8-70ce-a1e4-474b0f3c3f06","019cf6fe-235e-7d95-bb9b-b011d2fe188e","","671","
                <div class=""stimulus-container"">
                    <img src=""images/schematic_sequence/supermarket_scheme/supermarket_scheme_2.png"" class=""exp-image"">
                    <div class=""question-area"">
                        <p style=""font-size: 20px; font-weight: bold; margin: 0;"">Is there a person in this image?</p>
                    </div>
                </div>","1","main_experiment_trial","2","supermarket_scheme","schematic_sequence","","","","",""
"","","","","","html-keyboard-response","168","543820","0.0-168.0","07F6CDA8ED48423E874BAE793DE79FB0","019cf713-ead8-70ce-a1e4-474b0f3c3f06","019cf6fe-235e-7d95-bb9b-b011d2fe188e","","null","
                <div class=""stimulus-container"">
                    <img src=""images/schematic_sequence/supermarket_scheme/supermarket_scheme_3.png"" class=""exp-image"">
                    <div class=""question-area""></div> 
                </div>","null","","","","","","","","",""
"","","","","","html-button-response","169","544561","0.0-169.0","07F6CDA8ED48423E874BAE793DE79FB0","019cf713-ead8-70ce-a1e4-474b0f3c3f06","019cf6fe-235e-7d95-bb9b-b011d2fe188e","","739","
                <div class=""stimulus-container"">
                    <img src=""images/schematic_sequence/supermarket_scheme/supermarket_scheme_3.png"" class=""exp-image"">
                    <div class=""question-area"">
                        <p style=""font-size: 20px; font-weight: bold; margin: 0;"">Is there a person in this image?</p>
                    </div>
                </div>","1","main_experiment_trial","3","supermarket_scheme","schematic_sequence","","","","",""
"","","","","","html-keyboard-response","170","549562","0.0-170.0","07F6CDA8ED48423E874BAE793DE79FB0","019cf713-ead8-70ce-a1e4-474b0f3c3f06","019cf6fe-235e-7d95-bb9b-b011d2fe188e","","null","
                <div class=""stimulus-container"">
                    <img src=""images/schematic_sequence/supermarket_scheme/supermarket_scheme_4.png"" class=""exp-image"">
                    <div class=""question-area""></div> 
                </div>","null","","","","","","","","",""
"","","","","","html-button-response","171","550272","0.0-171.0","07F6CDA8ED48423E874BAE793DE79FB0","019cf713-ead8-70ce-a1e4-474b0f3c3f06","019cf6fe-235e-7d95-bb9b-b011d2fe188e","","707","
                <div class=""stimulus-container"">
                    <img src=""images/schematic_sequence/supermarket_scheme/supermarket_scheme_4.png"" class=""exp-image"">
                    <div class=""question-area"">
                        <p style=""font-size: 20px; font-weight: bold; margin: 0;"">Is there a person in this image?</p>
                    </div>
                </div>","0","main_experiment_trial","4","supermarket_scheme","schematic_sequence","","","","",""
"","","","","","html-keyboard-response","172","555299","0.0-172.0","07F6CDA8ED48423E874BAE793DE79FB0","019cf713-ead8-70ce-a1e4-474b0f3c3f06","019cf6fe-235e-7d95-bb9b-b011d2fe188e","","null","
                <div class=""stimulus-container"">
                    <img src=""images/schematic_sequence/supermarket_scheme/supermarket_scheme_5.png"" class=""exp-image"">
                    <div class=""question-area""></div> 
                </div>","null","","","","","","","","",""
"","","","","","html-button-response","173","557006","0.0-173.0","07F6CDA8ED48423E874BAE793DE79FB0","019cf713-ead8-70ce-a1e4-474b0f3c3f06","019cf6fe-235e-7d95-bb9b-b011d2fe188e","","1705","
                <div class=""stimulus-container"">
                    <img src=""images/schematic_sequence/supermarket_scheme/supermarket_scheme_5.png"" class=""exp-image"">
                    <div class=""question-area"">
                        <p style=""font-size: 20px; font-weight: bold; margin: 0;"">Is there a person in this image?</p>
                    </div>
                </div>","1","main_experiment_trial","5","supermarket_scheme","schematic_sequence","","","","",""
"","","","","","html-keyboard-response","174","562019","0.0-174.0","07F6CDA8ED48423E874BAE793DE79FB0","019cf713-ead8-70ce-a1e4-474b0f3c3f06","019cf6fe-235e-7d95-bb9b-b011d2fe188e","","null","
                <div class=""stimulus-container"">
                    <img src=""images/schematic_sequence/supermarket_scheme/supermarket_scheme_6.png"" class=""exp-image"">
                    <div class=""question-area""></div> 
                </div>","null","","","","","","","","",""
"","","","","","html-button-response","175","562806","0.0-175.0","07F6CDA8ED48423E874BAE793DE79FB0","019cf713-ead8-70ce-a1e4-474b0f3c3f06","019cf6fe-235e-7d95-bb9b-b011d2fe188e","","785","
                <div class=""stimulus-container"">
                    <img src=""images/schematic_sequence/supermarket_scheme/supermarket_scheme_6.png"" class=""exp-image"">
                    <div class=""question-area"">
                        <p style=""font-size: 20px; font-weight: bold; margin: 0;"">Is there a person in this image?</p>
                    </div>
                </div>","0","main_experiment_trial","6","supermarket_scheme","schematic_sequence","","","","",""
"","","","","","html-keyboard-response","176","567822","0.0-176.0","07F6CDA8ED48423E874BAE793DE79FB0","019cf713-ead8-70ce-a1e4-474b0f3c3f06","019cf6fe-235e-7d95-bb9b-b011d2fe188e","","null","
                <div class=""stimulus-container"">
                    <img src=""images/schematic_sequence/supermarket_scheme/supermarket_scheme_7.png"" class=""exp-image"">
                    <div class=""question-area""></div> 
                </div>","null","","","","","","","","",""
"","","","","","html-button-response","177","570140","0.0-177.0","07F6CDA8ED48423E874BAE793DE79FB0","019cf713-ead8-70ce-a1e4-474b0f3c3f06","019cf6fe-235e-7d95-bb9b-b011d2fe188e","","2317","
                <div class=""stimulus-container"">
                    <img src=""images/schematic_sequence/supermarket_scheme/supermarket_scheme_7.png"" class=""exp-image"">
                    <div class=""question-area"">
                        <p style=""font-size: 20px; font-weight: bold; margin: 0;"">Is there a person in this image?</p>
                    </div>
                </div>","0","main_experiment_trial","7","supermarket_scheme","schematic_sequence","","","","",""
"","","","","","html-keyboard-response","178","575149","0.0-178.0","07F6CDA8ED48423E874BAE793DE79FB0","019cf713-ead8-70ce-a1e4-474b0f3c3f06","019cf6fe-235e-7d95-bb9b-b011d2fe188e","","null","
                <div class=""stimulus-container"">
                    <img src=""images/schematic_sequence/supermarket_scheme/supermarket_scheme_8.png"" class=""exp-image"">
                    <div class=""question-area""></div> 
                </div>","null","","","","","","","","",""
"","","","","","html-button-response","179","575766","0.0-179.0","07F6CDA8ED48423E874BAE793DE79FB0","019cf713-ead8-70ce-a1e4-474b0f3c3f06","019cf6fe-235e-7d95-bb9b-b011d2fe188e","","615","
                <div class=""stimulus-container"">
                    <img src=""images/schematic_sequence/supermarket_scheme/supermarket_scheme_8.png"" class=""exp-image"">
                    <div class=""question-area"">
                        <p style=""font-size: 20px; font-weight: bold; margin: 0;"">Is there a person in this image?</p>
                    </div>
                </div>","0","main_experiment_trial","8","supermarket_scheme","schematic_sequence","","","","",""
"","","","","","html-keyboard-response","180","580768","0.0-180.0","07F6CDA8ED48423E874BAE793DE79FB0","019cf713-ead8-70ce-a1e4-474b0f3c3f06","019cf6fe-235e-7d95-bb9b-b011d2fe188e","","null","
                <div class=""stimulus-container"">
                    <img src=""images/schematic_sequence/supermarket_scheme/supermarket_scheme_9.png"" class=""exp-image"">
                    <div class=""question-area""></div> 
                </div>","null","","","","","","","","",""
"","","","","","html-button-response","181","581948","0.0-181.0","07F6CDA8ED48423E874BAE793DE79FB0","019cf713-ead8-70ce-a1e4-474b0f3c3f06","019cf6fe-235e-7d95-bb9b-b011d2fe188e","","1178","
                <div class=""stimulus-container"">
                    <img src=""images/schematic_sequence/supermarket_scheme/supermarket_scheme_9.png"" class=""exp-image"">
                    <div class=""question-area"">
                        <p style=""font-size: 20px; font-weight: bold; margin: 0;"">Is there a person in this image?</p>
                    </div>
                </div>","0","main_experiment_trial","9","supermarket_scheme","schematic_sequence","","","","",""
"","","","","","html-keyboard-response","182","586955","0.0-182.0","07F6CDA8ED48423E874BAE793DE79FB0","019cf713-ead8-70ce-a1e4-474b0f3c3f06","019cf6fe-235e-7d95-bb9b-b011d2fe188e","","null","
                <div class=""stimulus-container"">
                    <img src=""images/schematic_sequence/supermarket_scheme/supermarket_scheme_ten.png"" class=""exp-image"">
                    <div class=""question-area""></div> 
                </div>","null","","","","","","","","",""
"","","","","","html-button-response","183","588337","0.0-183.0","07F6CDA8ED48423E874BAE793DE79FB0","019cf713-ead8-70ce-a1e4-474b0f3c3f06","019cf6fe-235e-7d95-bb9b-b011d2fe188e","","1381","
                <div class=""stimulus-container"">
