"success","timeout","failed_images","failed_audio","failed_video","trial_type","trial_index","time_elapsed","internal_node_id","rt","view_history","stimulus","response","task","folder","image_index","valuable_image_index","reward_type","distance_from_x","v_index","n_index","sequence_type","valuable_folder","neutral_folder","chosen_valuable"
"true","false","[]","[]","[]","preload","0","7879","0.0-0.0","","","","","","","","","","","","","","","",""
"true","","","","","fullscreen","1","15556","0.0-1.0","6667","","","","","","","","","","","","","","",""
"","","","","","instructions","2","18314","0.0-2.0","2757","[{""page_index"":0,""viewing_time"":2757}]","","","","","","","","","","","","","",""
"","","","","","html-keyboard-response","3","21315","0.0-3.0","null","","<div style=""background-color: white; width: 100vw; height: 100vh;""></div>","null","","","","","","","","","","","",""
"","","","","","html-keyboard-response","4","25326","0.0-4.0","null","","<div class=""stimulus-container""><img src=""images/schematic_sequence/supermarket_scheme/supermarket_scheme_1.png"" class=""exp-image""></div>","null","","","","","","","","","","","",""
"","","","","","html-button-response","5","27915","0.0-5.0","2587","","<div class=""stimulus-container""><img src=""images/schematic_sequence/supermarket_scheme/supermarket_scheme_1.png"" class=""exp-image""><div class=""question-area""><b>Is there a person?</b></div></div>","1","person_check","supermarket_scheme","1","","","","","","","","",""
"","","","","","html-keyboard-response","6","31917","0.0-6.0","null","","<div class=""stimulus-container""><img src=""images/schematic_sequence/supermarket_scheme/supermarket_scheme_2.png"" class=""exp-image""></div>","null","","","","","","","","","","","",""
"","","","","","html-button-response","7","35644","0.0-7.0","3726","","<div class=""stimulus-container""><img src=""images/schematic_sequence/supermarket_scheme/supermarket_scheme_2.png"" class=""exp-image""><div class=""question-area""><b>Is there a person?</b></div></div>","1","person_check","supermarket_scheme","2","","","","","","","","",""
"","","","","","html-keyboard-response","8","39658","0.0-8.0","null","","<div class=""stimulus-container""><img src=""images/schematic_sequence/supermarket_scheme/supermarket_scheme_3.png"" class=""exp-image""></div>","null","","","","","","","","","","","",""
"","","","","","html-button-response","9","40787","0.0-9.0","1127","","<div class=""stimulus-container""><img src=""images/schematic_sequence/supermarket_scheme/supermarket_scheme_3.png"" class=""exp-image""><div class=""question-area""><b>Is there a person?</b></div></div>","1","person_check","supermarket_scheme","3","","","","","","","","",""
"","","","","","html-keyboard-response","10","44792","0.0-10.0","null","","<div class=""stimulus-container""><img src=""images/schematic_sequence/supermarket_scheme/supermarket_scheme_4.png"" class=""exp-image""></div>","null","","","","","","","","","","","",""
"","","","","","html-button-response","11","46517","0.0-11.0","1725","","<div class=""stimulus-container""><img src=""images/schematic_sequence/supermarket_scheme/supermarket_scheme_4.png"" class=""exp-image""><div class=""question-area""><b>Is there a person?</b></div></div>","0","person_check","supermarket_scheme","4","","","","","","","","",""
"","","","","","html-keyboard-response","12","50518","0.0-12.0","null","","<div class=""stimulus-container""><img src=""images/schematic_sequence/supermarket_scheme/supermarket_scheme_5.png"" class=""exp-image""></div>","null","","","","","","","","","","","",""
"","","","","","html-button-response","13","51731","0.0-13.0","1212","","<div class=""stimulus-container""><img src=""images/schematic_sequence/supermarket_scheme/supermarket_scheme_5.png"" class=""exp-image""><div class=""question-area""><b>Is there a person?</b></div></div>","1","person_check","supermarket_scheme","5","","","","","","","","",""
"","","","","","html-keyboard-response","14","55735","0.0-14.0","null","","<div class=""stimulus-container""><img src=""images/schematic_sequence/supermarket_scheme/supermarket_scheme_6.png"" class=""exp-image""></div>","null","","","","","","","","","","","",""
"","","","","","html-button-response","15","56366","0.0-15.0","630","","<div class=""stimulus-container""><img src=""images/schematic_sequence/supermarket_scheme/supermarket_scheme_6.png"" class=""exp-image""><div class=""question-area""><b>Is there a person?</b></div></div>","0","person_check","supermarket_scheme","6","","","","","","","","",""
"","","","","","html-keyboard-response","16","60371","0.0-16.0","null","","<div class=""stimulus-container""><img src=""images/schematic_sequence/supermarket_scheme/supermarket_scheme_7.png"" class=""exp-image""></div>","null","","","","","","","","","","","",""
"","","","","","html-button-response","17","62208","0.0-17.0","1835","","<div class=""stimulus-container""><img src=""images/schematic_sequence/supermarket_scheme/supermarket_scheme_7.png"" class=""exp-image""><div class=""question-area""><b>Is there a person?</b></div></div>","0","person_check","supermarket_scheme","7","","","","","","","","",""
"","","","","","html-keyboard-response","18","66218","0.0-18.0","null","","<div class=""stimulus-container""><img src=""images/schematic_sequence/supermarket_scheme/supermarket_scheme_8.png"" class=""exp-image""></div>","null","","","","","","","","","","","",""
"","","","","","html-button-response","19","68381","0.0-19.0","2162","","<div class=""stimulus-container""><img src=""images/schematic_sequence/supermarket_scheme/supermarket_scheme_8.png"" class=""exp-image""><div class=""question-area""><b>Is there a person?</b></div></div>","0","person_check","supermarket_scheme","8","","","","","","","","",""
"","","","","","html-keyboard-response","20","72395","0.0-20.0","null","","<div class=""stimulus-container""><img src=""images/schematic_sequence/supermarket_scheme/supermarket_scheme_9.png"" class=""exp-image""></div>","null","","","","","","","","","","","",""
"","","","","","html-button-response","21","73318","0.0-21.0","922","","<div class=""stimulus-container""><img src=""images/schematic_sequence/supermarket_scheme/supermarket_scheme_9.png"" class=""exp-image""><div class=""question-area""><b>Is there a person?</b></div></div>","0","person_check","supermarket_scheme","9","","","","","","","","",""
"","","","","","html-keyboard-response","22","77334","0.0-22.0","null","","<div class=""stimulus-container""><img src=""images/schematic_sequence/supermarket_scheme/supermarket_scheme_ten.png"" class=""exp-image""></div>","null","","","","","","","","","","","",""
"","","","","","html-button-response","23","78809","0.0-23.0","1475","","<div class=""stimulus-container""><img src=""images/schematic_sequence/supermarket_scheme/supermarket_scheme_ten.png"" class=""exp-image""><div class=""question-area""><b>Is there a person?</b></div></div>","1","person_check","supermarket_scheme","10","","","","","","","","",""
"","","","","","html-keyboard-response","24","81816","0.0-24.0","null","","<div style=""background-color: white; width: 100vw; height: 100vh;""></div>","null","","","","","","","","","","","",""
"","","","","","html-keyboard-response","25","85823","0.0-25.0","null","","<div class=""stimulus-container""><img src=""images/semantic_sequence/visiting_cities_semantic/visiting_cities_semantic_1.png"" class=""exp-image""></div>","null","","","","","","","","","","","",""
"","","","","","html-button-response","26","88948","0.0-26.0","3123","","<div class=""stimulus-container""><img src=""images/semantic_sequence/visiting_cities_semantic/visiting_cities_semantic_1.png"" class=""exp-image""><div class=""question-area""><b>Is there a person?</b></div></div>","1","person_check","visiting_cities_semantic","1","","","","","","","","",""
"","","","","","html-keyboard-response","27","92955","0.0-27.0","null","","<div class=""stimulus-container""><img src=""images/semantic_sequence/visiting_cities_semantic/visiting_cities_semantic_2.png"" class=""exp-image""></div>","null","","","","","","","","","","","",""
"","","","","","html-button-response","28","94941","0.0-28.0","1985","","<div class=""stimulus-container""><img src=""images/semantic_sequence/visiting_cities_semantic/visiting_cities_semantic_2.png"" class=""exp-image""><div class=""question-area""><b>Is there a person?</b></div></div>","1","person_check","visiting_cities_semantic","2","","","","","","","","",""
"","","","","","html-keyboard-response","29","98950","0.0-29.0","null","","<div class=""stimulus-container""><img src=""images/semantic_sequence/visiting_cities_semantic/visiting_cities_semantic_3.png"" class=""exp-image""></div>","null","","","","","","","","","","","",""
"","","","","","html-button-response","30","107881","0.0-30.0","8931","","<div class=""stimulus-container""><img src=""images/semantic_sequence/visiting_cities_semantic/visiting_cities_semantic_3.png"" class=""exp-image""><div class=""question-area""><b>Is there a person?</b></div></div>","1","person_check","visiting_cities_semantic","3","","","","","","","","",""
"","","","","","html-keyboard-response","31","111890","0.0-31.0","null","","<div class=""stimulus-container""><img src=""images/semantic_sequence/visiting_cities_semantic/visiting_cities_semantic_4.png"" class=""exp-image""></div>","null","","","","","","","","","","","",""
"","","","","","html-button-response","32","121975","0.0-32.0","10085","","<div class=""stimulus-container""><img src=""images/semantic_sequence/visiting_cities_semantic/visiting_cities_semantic_4.png"" class=""exp-image""><div class=""question-area""><b>Is there a person?</b></div></div>","1","person_check","visiting_cities_semantic","4","","","","","","","","",""
"","","","","","html-keyboard-response","33","125984","0.0-33.0","null","","<div class=""stimulus-container""><img src=""images/semantic_sequence/visiting_cities_semantic/visiting_cities_semantic_5.png"" class=""exp-image""></div>","null","","","","","","","","","","","",""
"","","","","","html-button-response","34","128734","0.0-34.0","2749","","<div class=""stimulus-container""><img src=""images/semantic_sequence/visiting_cities_semantic/visiting_cities_semantic_5.png"" class=""exp-image""><div class=""question-area""><b>Is there a person?</b></div></div>","1","person_check","visiting_cities_semantic","5","","","","","","","","",""
"","","","","","html-keyboard-response","35","132745","0.0-35.0","null","","<div class=""stimulus-container""><img src=""images/semantic_sequence/visiting_cities_semantic/visiting_cities_semantic_6.png"" class=""exp-image""></div>","null","","","","","","","","","","","",""
"","","","","","html-button-response","36","134826","0.0-36.0","2081","","<div class=""stimulus-container""><img src=""images/semantic_sequence/visiting_cities_semantic/visiting_cities_semantic_6.png"" class=""exp-image""><div class=""question-area""><b>Is there a person?</b></div></div>","1","person_check","visiting_cities_semantic","6","","","","","","","","",""
"","","","","","html-keyboard-response","37","138838","0.0-37.0","null","","<div class=""stimulus-container""><img src=""images/semantic_sequence/visiting_cities_semantic/visiting_cities_semantic_7.png"" class=""exp-image""></div>","null","","","","","","","","","","","",""
"","","","","","html-button-response","38","161481","0.0-38.0","22642","","<div class=""stimulus-container""><img src=""images/semantic_sequence/visiting_cities_semantic/visiting_cities_semantic_7.png"" class=""exp-image""><div class=""question-area""><b>Is there a person?</b></div></div>","1","person_check","visiting_cities_semantic","7","","","","","","","","",""
"","","","","","html-keyboard-response","39","165486","0.0-39.0","null","","<div class=""stimulus-container""><img src=""images/semantic_sequence/visiting_cities_semantic/visiting_cities_semantic_8.png"" class=""exp-image""></div>","null","","","","","","","","","","","",""
"","","","","","html-button-response","40","166613","0.0-40.0","1125","","<div class=""stimulus-container""><img src=""images/semantic_sequence/visiting_cities_semantic/visiting_cities_semantic_8.png"" class=""exp-image""><div class=""question-area""><b>Is there a person?</b></div></div>","1","person_check","visiting_cities_semantic","8","","","","","","","","",""
"","","","","","html-keyboard-response","41","170625","0.0-41.0","null","","<div class=""stimulus-container""><img src=""images/semantic_sequence/visiting_cities_semantic/visiting_cities_semantic_9.png"" class=""exp-image""></div>","null","","","","","","","","","","","",""
"","","","","","html-button-response","42","171650","0.0-42.0","1024","","<div class=""stimulus-container""><img src=""images/semantic_sequence/visiting_cities_semantic/visiting_cities_semantic_9.png"" class=""exp-image""><div class=""question-area""><b>Is there a person?</b></div></div>","1","person_check","visiting_cities_semantic","9","","","","","","","","",""
"","","","","","html-keyboard-response","43","175654","0.0-43.0","null","","<div class=""stimulus-container""><img src=""images/semantic_sequence/visiting_cities_semantic/visiting_cities_semantic_ten.png"" class=""exp-image""></div>","null","","","","","","","","","","","",""
"","","","","","html-button-response","44","176813","0.0-44.0","1158","","<div class=""stimulus-container""><img src=""images/semantic_sequence/visiting_cities_semantic/visiting_cities_semantic_ten.png"" class=""exp-image""><div class=""question-area""><b>Is there a person?</b></div></div>","1","person_check","visiting_cities_semantic","10","","","","","","","","",""
"","","","","","html-keyboard-response","45","179820","0.0-45.0","null","","<div style=""background-color: white; width: 100vw; height: 100vh;""></div>","null","","","","","","","","","","","",""
"","","","","","html-keyboard-response","46","183825","0.0-46.0","null","","<div class=""stimulus-container""><img src=""images/semantic_sequence/self_care_activities_semantic/self_care_activities_semantic_1.png"" class=""exp-image""></div>","null","","","","","","","","","","","",""
"","","","","","html-button-response","47","186193","0.0-47.0","2367","","<div class=""stimulus-container""><img src=""images/semantic_sequence/self_care_activities_semantic/self_care_activities_semantic_1.png"" class=""exp-image""><div class=""question-area""><b>Is there a person?</b></div></div>","0","person_check","self_care_activities_semantic","1","","","","","","","","",""
"","","","","","html-keyboard-response","48","190201","0.0-48.0","null","","<div class=""stimulus-container""><img src=""images/semantic_sequence/self_care_activities_semantic/self_care_activities_semantic_2.png"" class=""exp-image""></div>","null","","","","","","","","","","","",""
"","","","","","html-button-response","49","190825","0.0-49.0","623","","<div class=""stimulus-container""><img src=""images/semantic_sequence/self_care_activities_semantic/self_care_activities_semantic_2.png"" class=""exp-image""><div class=""question-area""><b>Is there a person?</b></div></div>","0","person_check","self_care_activities_semantic","2","","","","","","","","",""
"","","","","","html-keyboard-response","50","194838","0.0-50.0","null","","<div class=""stimulus-container""><img src=""images/semantic_sequence/self_care_activities_semantic/self_care_activities_semantic_3.png"" class=""exp-image""></div>","null","","","","","","","","","","","",""
"","","","","","html-button-response","51","196211","0.0-51.0","1371","","<div class=""stimulus-container""><img src=""images/semantic_sequence/self_care_activities_semantic/self_care_activities_semantic_3.png"" class=""exp-image""><div class=""question-area""><b>Is there a person?</b></div></div>","0","person_check","self_care_activities_semantic","3","","","","","","","","",""
"","","","","","html-keyboard-response","52","200228","0.0-52.0","null","","<div class=""stimulus-container""><img src=""images/semantic_sequence/self_care_activities_semantic/self_care_activities_semantic_4.png"" class=""exp-image""></div>","null","","","","","","","","","","","",""
"","","","","","html-button-response","53","200864","0.0-53.0","636","","<div class=""stimulus-container""><img src=""images/semantic_sequence/self_care_activities_semantic/self_care_activities_semantic_4.png"" class=""exp-image""><div class=""question-area""><b>Is there a person?</b></div></div>","0","person_check","self_care_activities_semantic","4","","","","","","","","",""
"","","","","","html-keyboard-response","54","204868","0.0-54.0","null","","<div class=""stimulus-container""><img src=""images/semantic_sequence/self_care_activities_semantic/self_care_activities_semantic_5.png"" class=""exp-image""></div>","null","","","","","","","","","","","",""
"","","","","","html-button-response","55","216387","0.0-55.0","11517","","<div class=""stimulus-container""><img src=""images/semantic_sequence/self_care_activities_semantic/self_care_activities_semantic_5.png"" class=""exp-image""><div class=""question-area""><b>Is there a person?</b></div></div>","0","person_check","self_care_activities_semantic","5","","","","","","","","",""
"","","","","","html-keyboard-response","56","220403","0.0-56.0","null","","<div class=""stimulus-container""><img src=""images/semantic_sequence/self_care_activities_semantic/self_care_activities_semantic_6.png"" class=""exp-image""></div>","null","","","","","","","","","","","",""
"","","","","","html-button-response","57","235534","0.0-57.0","15131","","<div class=""stimulus-container""><img src=""images/semantic_sequence/self_care_activities_semantic/self_care_activities_semantic_6.png"" class=""exp-image""><div class=""question-area""><b>Is there a person?</b></div></div>","1","person_check","self_care_activities_semantic","6","","","","","","","","",""
"","","","","","html-keyboard-response","58","239537","0.0-58.0","null","","<div class=""stimulus-container""><img src=""images/semantic_sequence/self_care_activities_semantic/self_care_activities_semantic_7.png"" class=""exp-image""></div>","null","","","","","","","","","","","",""
"","","","","","html-button-response","59","241733","0.0-59.0","2195","","<div class=""stimulus-container""><img src=""images/semantic_sequence/self_care_activities_semantic/self_care_activities_semantic_7.png"" class=""exp-image""><div class=""question-area""><b>Is there a person?</b></div></div>","0","person_check","self_care_activities_semantic","7","","","","","","","","",""
"","","","","","html-keyboard-response","60","245748","0.0-60.0","null","","<div class=""stimulus-container""><img src=""images/semantic_sequence/self_care_activities_semantic/self_care_activities_semantic_8.png"" class=""exp-image""></div>","null","","","","","","","","","","","",""
"","","","","","html-button-response","61","265362","0.0-61.0","19613","","<div class=""stimulus-container""><img src=""images/semantic_sequence/self_care_activities_semantic/self_care_activities_semantic_8.png"" class=""exp-image""><div class=""question-area""><b>Is there a person?</b></div></div>","0","person_check","self_care_activities_semantic","8","","","","","","","","",""
"","","","","","html-keyboard-response","62","269375","0.0-62.0","null","","<div class=""stimulus-container""><img src=""images/semantic_sequence/self_care_activities_semantic/self_care_activities_semantic_9.png"" class=""exp-image""></div>","null","","","","","","","","","","","",""
"","","","","","html-button-response","63","270518","0.0-63.0","1142","","<div class=""stimulus-container""><img src=""images/semantic_sequence/self_care_activities_semantic/self_care_activities_semantic_9.png"" class=""exp-image""><div class=""question-area""><b>Is there a person?</b></div></div>","0","person_check","self_care_activities_semantic","9","","","","","","","","",""
"","","","","","html-keyboard-response","64","274525","0.0-64.0","null","","<div class=""stimulus-container""><img src=""images/semantic_sequence/self_care_activities_semantic/self_care_activities_semantic_ten.png"" class=""exp-image""></div>","null","","","","","","","","","","","",""
"","","","","","html-button-response","65","275213","0.0-65.0","687","","<div class=""stimulus-container""><img src=""images/semantic_sequence/self_care_activities_semantic/self_care_activities_semantic_ten.png"" class=""exp-image""><div class=""question-area""><b>Is there a person?</b></div></div>","0","person_check","self_care_activities_semantic","10","","","","","","","","",""
"","","","","","html-keyboard-response","66","278225","0.0-66.0","null","","<div style=""background-color: white; width: 100vw; height: 100vh;""></div>","null","","","","","","","","","","","",""
"","","","","","html-keyboard-response","67","282235","0.0-67.0","null","","<div class=""stimulus-container""><img src=""images/causal_sequence/dog_causal/dog_causal_1.png"" class=""exp-image""></div>","null","","","","","","","","","","","",""
"","","","","","html-button-response","68","284033","0.0-68.0","1796","","<div class=""stimulus-container""><img src=""images/causal_sequence/dog_causal/dog_causal_1.png"" class=""exp-image""><div class=""question-area""><b>Is there a person?</b></div></div>","0","person_check","dog_causal","1","","","","","","","","",""
"","","","","","html-keyboard-response","69","288035","0.0-69.0","null","","<div class=""stimulus-container""><img src=""images/causal_sequence/dog_causal/dog_causal_2.png"" class=""exp-image""></div>","null","","","","","","","","","","","",""
"","","","","","html-button-response","70","290205","0.0-70.0","2170","","<div class=""stimulus-container""><img src=""images/causal_sequence/dog_causal/dog_causal_2.png"" class=""exp-image""><div class=""question-area""><b>Is there a person?</b></div></div>","0","person_check","dog_causal","2","","","","","","","","",""
"","","","","","html-keyboard-response","71","294214","0.0-71.0","null","","<div class=""stimulus-container""><img src=""images/causal_sequence/dog_causal/dog_causal_3.png"" class=""exp-image""></div>","null","","","","","","","","","","","",""
"","","","","","html-button-response","72","300887","0.0-72.0","6671","","<div class=""stimulus-container""><img src=""images/causal_sequence/dog_causal/dog_causal_3.png"" class=""exp-image""><div class=""question-area""><b>Is there a person?</b></div></div>","0","person_check","dog_causal","3","","","","","","","","",""
"","","","","","html-keyboard-response","73","304901","0.0-73.0","null","","<div class=""stimulus-container""><img src=""images/causal_sequence/dog_causal/dog_causal_4.png"" class=""exp-image""></div>","null","","","","","","","","","","","",""
"","","","","","html-button-response","74","310198","0.0-74.0","5296","","<div class=""stimulus-container""><img src=""images/causal_sequence/dog_causal/dog_causal_4.png"" class=""exp-image""><div class=""question-area""><b>Is there a person?</b></div></div>","0","person_check","dog_causal","4","","","","","","","","",""
"","","","","","html-keyboard-response","75","314206","0.0-75.0","null","","<div class=""stimulus-container""><img src=""images/causal_sequence/dog_causal/dog_causal_5.png"" class=""exp-image""></div>","null","","","","","","","","","","","",""
"","","","","","html-button-response","76","315944","0.0-76.0","1737","","<div class=""stimulus-container""><img src=""images/causal_sequence/dog_causal/dog_causal_5.png"" class=""exp-image""><div class=""question-area""><b>Is there a person?</b></div></div>","0","person_check","dog_causal","5","","","","","","","","",""
"","","","","","html-keyboard-response","77","319946","0.0-77.0","null","","<div class=""stimulus-container""><img src=""images/causal_sequence/dog_causal/dog_causal_6.png"" class=""exp-image""></div>","null","","","","","","","","","","","",""
"","","","","","html-button-response","78","373137","0.0-78.0","53190","","<div class=""stimulus-container""><img src=""images/causal_sequence/dog_causal/dog_causal_6.png"" class=""exp-image""><div class=""question-area""><b>Is there a person?</b></div></div>","0","person_check","dog_causal","6","","","","","","","","",""
"","","","","","html-keyboard-response","79","377144","0.0-79.0","null","","<div class=""stimulus-container""><img src=""images/causal_sequence/dog_causal/dog_causal_7.png"" class=""exp-image""></div>","null","","","","","","","","","","","",""
"","","","","","html-button-response","80","378242","0.0-80.0","1097","","<div class=""stimulus-container""><img src=""images/causal_sequence/dog_causal/dog_causal_7.png"" class=""exp-image""><div class=""question-area""><b>Is there a person?</b></div></div>","0","person_check","dog_causal","7","","","","","","","","",""
"","","","","","html-keyboard-response","81","382251","0.0-81.0","null","","<div class=""stimulus-container""><img src=""images/causal_sequence/dog_causal/dog_causal_8.png"" class=""exp-image""></div>","null","","","","","","","","","","","",""
"","","","","","html-button-response","82","384636","0.0-82.0","2383","","<div class=""stimulus-container""><img src=""images/causal_sequence/dog_causal/dog_causal_8.png"" class=""exp-image""><div class=""question-area""><b>Is there a person?</b></div></div>","0","person_check","dog_causal","8","","","","","","","","",""
"","","","","","html-keyboard-response","83","388645","0.0-83.0","null","","<div class=""stimulus-container""><img src=""images/causal_sequence/dog_causal/dog_causal_9.png"" class=""exp-image""></div>","null","","","","","","","","","","","",""
"","","","","","html-button-response","84","391390","0.0-84.0","2744","","<div class=""stimulus-container""><img src=""images/causal_sequence/dog_causal/dog_causal_9.png"" class=""exp-image""><div class=""question-area""><b>Is there a person?</b></div></div>","0","person_check","dog_causal","9","","","","","","","","",""
"","","","","","html-keyboard-response","85","395401","0.0-85.0","null","","<div class=""stimulus-container""><img src=""images/causal_sequence/dog_causal/dog_causal_ten.png"" class=""exp-image""></div>","null","","","","","","","","","","","",""
"","","","","","html-button-response","86","413364","0.0-86.0","17962","","<div class=""stimulus-container""><img src=""images/causal_sequence/dog_causal/dog_causal_ten.png"" class=""exp-image""><div class=""question-area""><b>Is there a person?</b></div></div>","0","person_check","dog_causal","10","","","","","","","","",""
"","","","","","html-keyboard-response","87","416365","0.0-87.0","null","","<div style=""background-color: white; width: 100vw; height: 100vh;""></div>","null","","","","","","","","","","","",""
"","","","","","html-keyboard-response","88","420375","0.0-88.0","null","","<div class=""stimulus-container""><img src=""images/schematic_sequence/flight_scheme/flight_scheme_1.png"" class=""exp-image""></div>","null","","","","","","","","","","","",""
"","","","","","html-button-response","89","423663","0.0-89.0","3287","","<div class=""stimulus-container""><img src=""images/schematic_sequence/flight_scheme/flight_scheme_1.png"" class=""exp-image""><div class=""question-area""><b>Is there a person?</b></div></div>","1","person_check","flight_scheme","1","","","","","","","","",""
"","","","","","html-keyboard-response","90","427674","0.0-90.0","null","","<div class=""stimulus-container""><img src=""images/schematic_sequence/flight_scheme/flight_scheme_2.png"" class=""exp-image""></div>","null","","","","","","","","","","","",""
"","","","","","html-button-response","91","428653","0.0-91.0","978","","<div class=""stimulus-container""><img src=""images/schematic_sequence/flight_scheme/flight_scheme_2.png"" class=""exp-image""><div class=""question-area""><b>Is there a person?</b></div></div>","1","person_check","flight_scheme","2","","","","","","","","",""
"","","","","","html-keyboard-response","92","432667","0.0-92.0","null","","<div class=""stimulus-container""><img src=""images/schematic_sequence/flight_scheme/flight_scheme_3.png"" class=""exp-image""></div>","null","","","","","","","","","","","",""
"","","","","","html-button-response","93","436940","0.0-93.0","4271","","<div class=""stimulus-container""><img src=""images/schematic_sequence/flight_scheme/flight_scheme_3.png"" class=""exp-image""><div class=""question-area""><b>Is there a person?</b></div></div>","0","person_check","flight_scheme","3","","","","","","","","",""
"","","","","","html-keyboard-response","94","440954","0.0-94.0","null","","<div class=""stimulus-container""><img src=""images/schematic_sequence/flight_scheme/flight_scheme_4.png"" class=""exp-image""></div>","null","","","","","","","","","","","",""
"","","","","","html-button-response","95","445393","0.0-95.0","4438","","<div class=""stimulus-container""><img src=""images/schematic_sequence/flight_scheme/flight_scheme_4.png"" class=""exp-image""><div class=""question-area""><b>Is there a person?</b></div></div>","0","person_check","flight_scheme","4","","","","","","","","",""
"","","","","","html-keyboard-response","96","449405","0.0-96.0","null","","<div class=""stimulus-container""><img src=""images/schematic_sequence/flight_scheme/flight_scheme_5.png"" class=""exp-image""></div>","null","","","","","","","","","","","",""
"","","","","","html-button-response","97","451231","0.0-97.0","1825","","<div class=""stimulus-container""><img src=""images/schematic_sequence/flight_scheme/flight_scheme_5.png"" class=""exp-image""><div class=""question-area""><b>Is there a person?</b></div></div>","0","person_check","flight_scheme","5","","","","","","","","",""
"","","","","","html-keyboard-response","98","455246","0.0-98.0","null","","<div class=""stimulus-container""><img src=""images/schematic_sequence/flight_scheme/flight_scheme_6.png"" class=""exp-image""></div>","null","","","","","","","","","","","",""
"","","","","","html-button-response","99","459608","0.0-99.0","4361","","<div class=""stimulus-container""><img src=""images/schematic_sequence/flight_scheme/flight_scheme_6.png"" class=""exp-image""><div class=""question-area""><b>Is there a person?</b></div></div>","1","person_check","flight_scheme","6","","","","","","","","",""
"","","","","","html-keyboard-response","100","463610","0.0-100.0","null","","<div class=""stimulus-container""><img src=""images/schematic_sequence/flight_scheme/flight_scheme_7.png"" class=""exp-image""></div>","null","","","","","","","","","","","",""
"","","","","","html-button-response","101","464445","0.0-101.0","834","","<div class=""stimulus-container""><img src=""images/schematic_sequence/flight_scheme/flight_scheme_7.png"" class=""exp-image""><div class=""question-area""><b>Is there a person?</b></div></div>","1","person_check","flight_scheme","7","","","","","","","","",""
"","","","","","html-keyboard-response","102","468451","0.0-102.0","null","","<div class=""stimulus-container""><img src=""images/schematic_sequence/flight_scheme/flight_scheme_8.png"" class=""exp-image""></div>","null","","","","","","","","","","","",""
"","","","","","html-button-response","103","469029","0.0-103.0","577","","<div class=""stimulus-container""><img src=""images/schematic_sequence/flight_scheme/flight_scheme_8.png"" class=""exp-image""><div class=""question-area""><b>Is there a person?</b></div></div>","1","person_check","flight_scheme","8","","","","","","","","",""
"","","","","","html-keyboard-response","104","473041","0.0-104.0","null","","<div class=""stimulus-container""><img src=""images/schematic_sequence/flight_scheme/flight_scheme_9.png"" class=""exp-image""></div>","null","","","","","","","","","","","",""
"","","","","","html-button-response","105","483113","0.0-105.0","10071","","<div class=""stimulus-container""><img src=""images/schematic_sequence/flight_scheme/flight_scheme_9.png"" class=""exp-image""><div class=""question-area""><b>Is there a person?</b></div></div>","0","person_check","flight_scheme","9","","","","","","","","",""
"","","","","","html-keyboard-response","106","487122","0.0-106.0","null","","<div class=""stimulus-container""><img src=""images/schematic_sequence/flight_scheme/flight_scheme_ten.png"" class=""exp-image""></div>","null","","","","","","","","","","","",""
"","","","","","html-button-response","107","489587","0.0-107.0","2463","","<div class=""stimulus-container""><img src=""images/schematic_sequence/flight_scheme/flight_scheme_ten.png"" class=""exp-image""><div class=""question-area""><b>Is there a person?</b></div></div>","0","person_check","flight_scheme","10","","","","","","","","",""
"","","","","","html-keyboard-response","108","492595","0.0-108.0","null","","<div style=""background-color: white; width: 100vw; height: 100vh;""></div>","null","","","","","","","","","","","",""
"","","","","","html-keyboard-response","109","496604","0.0-109.0","null","","<div class=""stimulus-container""><img src=""images/causal_sequence/saving_a_cat_causal/saving_a_cat_causal_1.png"" class=""exp-image""></div>","null","","","","","","","","","","","",""
"","","","","","html-button-response","110","499426","0.0-110.0","2821","","<div class=""stimulus-container""><img src=""images/causal_sequence/saving_a_cat_causal/saving_a_cat_causal_1.png"" class=""exp-image""><div class=""question-area""><b>Is there a person?</b></div></div>","0","person_check","saving_a_cat_causal","1","","","","","","","","",""
"","","","","","html-keyboard-response","111","503427","0.0-111.0","null","","<div class=""stimulus-container""><img src=""images/causal_sequence/saving_a_cat_causal/saving_a_cat_causal_2.png"" class=""exp-image""></div>","null","","","","","","","","","","","",""
"","","","","","html-button-response","112","505054","0.0-112.0","1626","","<div class=""stimulus-container""><img src=""images/causal_sequence/saving_a_cat_causal/saving_a_cat_causal_2.png"" class=""exp-image""><div class=""question-area""><b>Is there a person?</b></div></div>","1","person_check","saving_a_cat_causal","2","","","","","","","","",""
"","","","","","html-keyboard-response","113","509067","0.0-113.0","null","","<div class=""stimulus-container""><img src=""images/causal_sequence/saving_a_cat_causal/saving_a_cat_causal_3.png"" class=""exp-image""></div>","null","","","","","","","","","","","",""
"","","","","","html-button-response","114","509772","0.0-114.0","703","","<div class=""stimulus-container""><img src=""images/causal_sequence/saving_a_cat_causal/saving_a_cat_causal_3.png"" class=""exp-image""><div class=""question-area""><b>Is there a person?</b></div></div>","1","person_check","saving_a_cat_causal","3","","","","","","","","",""
"","","","","","html-keyboard-response","115","513783","0.0-115.0","null","","<div class=""stimulus-container""><img src=""images/causal_sequence/saving_a_cat_causal/saving_a_cat_causal_4.png"" class=""exp-image""></div>","null","","","","","","","","","","","",""
"","","","","","html-button-response","116","520555","0.0-116.0","6770","","<div class=""stimulus-container""><img src=""images/causal_sequence/saving_a_cat_causal/saving_a_cat_causal_4.png"" class=""exp-image""><div class=""question-area""><b>Is there a person?</b></div></div>","0","person_check","saving_a_cat_causal","4","","","","","","","","",""
"","","","","","html-keyboard-response","117","524563","0.0-117.0","null","","<div class=""stimulus-container""><img src=""images/causal_sequence/saving_a_cat_causal/saving_a_cat_causal_5.png"" class=""exp-image""></div>","null","","","","","","","","","","","",""
"","","","","","html-button-response","118","526046","0.0-118.0","1482","","<div class=""stimulus-container""><img src=""images/causal_sequence/saving_a_cat_causal/saving_a_cat_causal_5.png"" class=""exp-image""><div class=""question-area""><b>Is there a person?</b></div></div>","0","person_check","saving_a_cat_causal","5","","","","","","","","",""
"","","","","","html-keyboard-response","119","530062","0.0-119.0","null","","<div class=""stimulus-container""><img src=""images/causal_sequence/saving_a_cat_causal/saving_a_cat_causal_6.png"" class=""exp-image""></div>","null","","","","","","","","","","","",""
"","","","","","html-button-response","120","531874","0.0-120.0","1812","","<div class=""stimulus-container""><img src=""images/causal_sequence/saving_a_cat_causal/saving_a_cat_causal_6.png"" class=""exp-image""><div class=""question-area""><b>Is there a person?</b></div></div>","0","person_check","saving_a_cat_causal","6","","","","","","","","",""
"","","","","","html-keyboard-response","121","535891","0.0-121.0","null","","<div class=""stimulus-container""><img src=""images/causal_sequence/saving_a_cat_causal/saving_a_cat_causal_7.png"" class=""exp-image""></div>","null","","","","","","","","","","","",""
"","","","","","html-button-response","122","536863","0.0-122.0","970","","<div class=""stimulus-container""><img src=""images/causal_sequence/saving_a_cat_causal/saving_a_cat_causal_7.png"" class=""exp-image""><div class=""question-area""><b>Is there a person?</b></div></div>","0","person_check","saving_a_cat_causal","7","","","","","","","","",""
"","","","","","html-keyboard-response","123","540873","0.0-123.0","null","","<div class=""stimulus-container""><img src=""images/causal_sequence/saving_a_cat_causal/saving_a_cat_causal_8.png"" class=""exp-image""></div>","null","","","","","","","","","","","",""
"","","","","","html-button-response","124","542794","0.0-124.0","1919","","<div class=""stimulus-container""><img src=""images/causal_sequence/saving_a_cat_causal/saving_a_cat_causal_8.png"" class=""exp-image""><div class=""question-area""><b>Is there a person?</b></div></div>","0","person_check","saving_a_cat_causal","8","","","","","","","","",""
"","","","","","html-keyboard-response","125","546804","0.0-125.0","null","","<div class=""stimulus-container""><img src=""images/causal_sequence/saving_a_cat_causal/saving_a_cat_causal_9.png"" class=""exp-image""></div>","null","","","","","","","","","","","",""
"","","","","","html-button-response","126","547919","0.0-126.0","1114","","<div class=""stimulus-container""><img src=""images/causal_sequence/saving_a_cat_causal/saving_a_cat_causal_9.png"" class=""exp-image""><div class=""question-area""><b>Is there a person?</b></div></div>","0","person_check","saving_a_cat_causal","9","","","","","","","","",""
"","","","","","html-keyboard-response","127","551926","0.0-127.0","null","","<div class=""stimulus-container""><img src=""images/causal_sequence/saving_a_cat_causal/saving_a_cat_causal_ten.png"" class=""exp-image""></div>","null","","","","","","","","","","","",""
"","","","","","html-button-response","128","554190","0.0-128.0","2263","","<div class=""stimulus-container""><img src=""images/causal_sequence/saving_a_cat_causal/saving_a_cat_causal_ten.png"" class=""exp-image""><div class=""question-area""><b>Is there a person?</b></div></div>","0","person_check","saving_a_cat_causal","10","","","","","","","","",""
"","","","","","html-keyboard-response","129","557205","0.0-129.0","null","","<div style=""background-color: white; width: 100vw; height: 100vh;""></div>","null","","","","","","","","","","","",""
"","","","","","html-keyboard-response","130","561214","0.0-130.0","null","","<div class=""stimulus-container""><img src=""images/causal_sequence/package_causal/package_causal_1.png"" class=""exp-image""></div>","null","","","","","","","","","","","",""
"","","","","","html-button-response","131","572151","0.0-131.0","10936","","<div class=""stimulus-container""><img src=""images/causal_sequence/package_causal/package_causal_1.png"" class=""exp-image""><div class=""question-area""><b>Is there a person?</b></div></div>","0","person_check","package_causal","1","","","","","","","","",""
"","","","","","html-keyboard-response","132","576166","0.0-132.0","null","","<div class=""stimulus-container""><img src=""images/causal_sequence/package_causal/package_causal_2.png"" class=""exp-image""></div>","null","","","","","","","","","","","",""
"","","","","","html-button-response","133","602201","0.0-133.0","26034","","<div class=""stimulus-container""><img src=""images/causal_sequence/package_causal/package_causal_2.png"" class=""exp-image""><div class=""question-area""><b>Is there a person?</b></div></div>","0","person_check","package_causal","2","","","","","","","","",""
"","","","","","html-keyboard-response","134","606213","0.0-134.0","null","","<div class=""stimulus-container""><img src=""images/causal_sequence/package_causal/package_causal_3.png"" class=""exp-image""></div>","null","","","","","","","","","","","",""
"","","","","","html-button-response","135","607712","0.0-135.0","1498","","<div class=""stimulus-container""><img src=""images/causal_sequence/package_causal/package_causal_3.png"" class=""exp-image""><div class=""question-area""><b>Is there a person?</b></div></div>","0","person_check","package_causal","3","","","","","","","","",""
"","","","","","html-keyboard-response","136","611719","0.0-136.0","null","","<div class=""stimulus-container""><img src=""images/causal_sequence/package_causal/package_causal_4.png"" class=""exp-image""></div>","null","","","","","","","","","","","",""
"","","","","","html-button-response","137","613268","0.0-137.0","1547","","<div class=""stimulus-container""><img src=""images/causal_sequence/package_causal/package_causal_4.png"" class=""exp-image""><div class=""question-area""><b>Is there a person?</b></div></div>","1","person_check","package_causal","4","","","","","","","","",""
"","","","","","html-keyboard-response","138","617269","0.0-138.0","null","","<div class=""stimulus-container""><img src=""images/causal_sequence/package_causal/package_causal_5.png"" class=""exp-image""></div>","null","","","","","","","","","","","",""
"","","","","","html-button-response","139","618204","0.0-139.0","935","","<div class=""stimulus-container""><img src=""images/causal_sequence/package_causal/package_causal_5.png"" class=""exp-image""><div class=""question-area""><b>Is there a person?</b></div></div>","0","person_check","package_causal","5","","","","","","","","",""
"","","","","","html-keyboard-response","140","622217","0.0-140.0","null","","<div class=""stimulus-container""><img src=""images/causal_sequence/package_causal/package_causal_6.png"" class=""exp-image""></div>","null","","","","","","","","","","","",""
"","","","","","html-button-response","141","640720","0.0-141.0","18502","","<div class=""stimulus-container""><img src=""images/causal_sequence/package_causal/package_causal_6.png"" class=""exp-image""><div class=""question-area""><b>Is there a person?</b></div></div>","0","person_check","package_causal","6","","","","","","","","",""
"","","","","","html-keyboard-response","142","644734","0.0-142.0","null","","<div class=""stimulus-container""><img src=""images/causal_sequence/package_causal/package_causal_7.png"" class=""exp-image""></div>","null","","","","","","","","","","","",""
"","","","","","html-button-response","143","647436","0.0-143.0","2701","","<div class=""stimulus-container""><img src=""images/causal_sequence/package_causal/package_causal_7.png"" class=""exp-image""><div class=""question-area""><b>Is there a person?</b></div></div>","0","person_check","package_causal","7","","","","","","","","",""
"","","","","","html-keyboard-response","144","651448","0.0-144.0","null","","<div class=""stimulus-container""><img src=""images/causal_sequence/package_causal/package_causal_8.png"" class=""exp-image""></div>","null","","","","","","","","","","","",""
"","","","","","html-button-response","145","651965","0.0-145.0","516","","<div class=""stimulus-container""><img src=""images/causal_sequence/package_causal/package_causal_8.png"" class=""exp-image""><div class=""question-area""><b>Is there a person?</b></div></div>","0","person_check","package_causal","8","","","","","","","","",""
"","","","","","html-keyboard-response","146","655979","0.0-146.0","null","","<div class=""stimulus-container""><img src=""images/causal_sequence/package_causal/package_causal_9.png"" class=""exp-image""></div>","null","","","","","","","","","","","",""
"","","","","","html-button-response","147","657210","0.0-147.0","1230","","<div class=""stimulus-container""><img src=""images/causal_sequence/package_causal/package_causal_9.png"" class=""exp-image""><div class=""question-area""><b>Is there a person?</b></div></div>","0","person_check","package_causal","9","","","","","","","","",""
"","","","","","html-keyboard-response","148","661225","0.0-148.0","null","","<div class=""stimulus-container""><img src=""images/causal_sequence/package_causal/package_causal_ten.png"" class=""exp-image""></div>","null","","","","","","","","","","","",""
"","","","","","html-button-response","149","663518","0.0-149.0","2292","","<div class=""stimulus-container""><img src=""images/causal_sequence/package_causal/package_causal_ten.png"" class=""exp-image""><div class=""question-area""><b>Is there a person?</b></div></div>","0","person_check","package_causal","10","","","","","","","","",""
"","","","","","html-keyboard-response","150","666523","0.0-150.0","null","","<div style=""background-color: white; width: 100vw; height: 100vh;""></div>","null","","","","","","","","","","","",""
"","","","","","html-keyboard-response","151","670527","0.0-151.0","null","","<div class=""stimulus-container""><img src=""images/semantic_sequence/housework_semantic/housework_semantic_1.png"" class=""exp-image""></div>","null","","","","","","","","","","","",""
"","","","","","html-button-response","152","672655","0.0-152.0","2127","","<div class=""stimulus-container""><img src=""images/semantic_sequence/housework_semantic/housework_semantic_1.png"" class=""exp-image""><div class=""question-area""><b>Is there a person?</b></div></div>","1","person_check","housework_semantic","1","","","","","","","","",""
"","","","","","html-keyboard-response","153","676670","0.0-153.0","null","","<div class=""stimulus-container""><img src=""images/semantic_sequence/housework_semantic/housework_semantic_2.png"" class=""exp-image""></div>","null","","","","","","","","","","","",""
"","","","","","html-button-response","154","679607","0.0-154.0","2936","","<div class=""stimulus-container""><img src=""images/semantic_sequence/housework_semantic/housework_semantic_2.png"" class=""exp-image""><div class=""question-area""><b>Is there a person?</b></div></div>","0","person_check","housework_semantic","2","","","","","","","","",""
"","","","","","html-keyboard-response","155","683608","0.0-155.0","null","","<div class=""stimulus-container""><img src=""images/semantic_sequence/housework_semantic/housework_semantic_3.png"" class=""exp-image""></div>","null","","","","","","","","","","","",""
"","","","","","html-button-response","156","686540","0.0-156.0","2931","","<div class=""stimulus-container""><img src=""images/semantic_sequence/housework_semantic/housework_semantic_3.png"" class=""exp-image""><div class=""question-area""><b>Is there a person?</b></div></div>","0","person_check","housework_semantic","3","","","","","","","","",""
"","","","","","html-keyboard-response","157","690544","0.0-157.0","null","","<div class=""stimulus-container""><img src=""images/semantic_sequence/housework_semantic/housework_semantic_4.png"" class=""exp-image""></div>","null","","","","","","","","","","","",""
"","","","","","html-button-response","158","691871","0.0-158.0","1326","","<div class=""stimulus-container""><img src=""images/semantic_sequence/housework_semantic/housework_semantic_4.png"" class=""exp-image""><div class=""question-area""><b>Is there a person?</b></div></div>","0","person_check","housework_semantic","4","","","","","","","","",""
"","","","","","html-keyboard-response","159","695881","0.0-159.0","null","","<div class=""stimulus-container""><img src=""images/semantic_sequence/housework_semantic/housework_semantic_5.png"" class=""exp-image""></div>","null","","","","","","","","","","","",""
"","","","","","html-button-response","160","696695","0.0-160.0","813","","<div class=""stimulus-container""><img src=""images/semantic_sequence/housework_semantic/housework_semantic_5.png"" class=""exp-image""><div class=""question-area""><b>Is there a person?</b></div></div>","0","person_check","housework_semantic","5","","","","","","","","",""
"","","","","","html-keyboard-response","161","700703","0.0-161.0","null","","<div class=""stimulus-container""><img src=""images/semantic_sequence/housework_semantic/housework_semantic_6.png"" class=""exp-image""></div>","null","","","","","","","","","","","",""
"","","","","","html-button-response","162","706510","0.0-162.0","5806","","<div class=""stimulus-container""><img src=""images/semantic_sequence/housework_semantic/housework_semantic_6.png"" class=""exp-image""><div class=""question-area""><b>Is there a person?</b></div></div>","0","person_check","housework_semantic","6","","","","","","","","",""
"","","","","","html-keyboard-response","163","710513","0.0-163.0","null","","<div class=""stimulus-container""><img src=""images/semantic_sequence/housework_semantic/housework_semantic_7.png"" class=""exp-image""></div>","null","","","","","","","","","","","",""
"","","","","","html-button-response","164","712744","0.0-164.0","2230","","<div class=""stimulus-container""><img src=""images/semantic_sequence/housework_semantic/housework_semantic_7.png"" class=""exp-image""><div class=""question-area""><b>Is there a person?</b></div></div>","1","person_check","housework_semantic","7","","","","","","","","",""
"","","","","","html-keyboard-response","165","716748","0.0-165.0","null","","<div class=""stimulus-container""><img src=""images/semantic_sequence/housework_semantic/housework_semantic_8.png"" class=""exp-image""></div>","null","","","","","","","","","","","",""
"","","","","","html-button-response","166","719032","0.0-166.0","2284","","<div class=""stimulus-container""><img src=""images/semantic_sequence/housework_semantic/housework_semantic_8.png"" class=""exp-image""><div class=""question-area""><b>Is there a person?</b></div></div>","0","person_check","housework_semantic","8","","","","","","","","",""
"","","","","","html-keyboard-response","167","723035","0.0-167.0","null","","<div class=""stimulus-container""><img src=""images/semantic_sequence/housework_semantic/housework_semantic_9.png"" class=""exp-image""></div>","null","","","","","","","","","","","",""
"","","","","","html-button-response","168","724866","0.0-168.0","1831","","<div class=""stimulus-container""><img src=""images/semantic_sequence/housework_semantic/housework_semantic_9.png"" class=""exp-image""><div class=""question-area""><b>Is there a person?</b></div></div>","0","person_check","housework_semantic","9","","","","","","","","",""
"","","","","","html-keyboard-response","169","728870","0.0-169.0","null","","<div class=""stimulus-container""><img src=""images/semantic_sequence/housework_semantic/housework_semantic_ten.png"" class=""exp-image""></div>","null","","","","","","","","","","","",""
"","","","","","html-button-response","170","729604","0.0-170.0","734","","<div class=""stimulus-container""><img src=""images/semantic_sequence/housework_semantic/housework_semantic_ten.png"" class=""exp-image""><div class=""question-area""><b>Is there a person?</b></div></div>","0","person_check","housework_semantic","10","","","","","","","","",""
"","","","","","html-keyboard-response","171","732615","0.0-171.0","null","","<div style=""background-color: white; width: 100vw; height: 100vh;""></div>","null","","","","","","","","","","","",""
"","","","","","html-keyboard-response","172","736620","0.0-172.0","null","","<div class=""stimulus-container""><img src=""images/schematic_sequence/dinner_party_scheme/dinner_party_scheme_1.png"" class=""exp-image""></div>","null","","","","","","","","","","","",""
"","","","","","html-button-response","173","738825","0.0-173.0","2204","","<div class=""stimulus-container""><img src=""images/schematic_sequence/dinner_party_scheme/dinner_party_scheme_1.png"" class=""exp-image""><div class=""question-area""><b>Is there a person?</b></div></div>","0","person_check","dinner_party_scheme","1","","","","","","","","",""
"","","","","","html-keyboard-response","174","742838","0.0-174.0","null","","<div class=""stimulus-container""><img src=""images/schematic_sequence/dinner_party_scheme/dinner_party_scheme_2.png"" class=""exp-image""></div>","null","","","","","","","","","","","",""
"","","","","","html-button-response","175","746117","0.0-175.0","3278","","<div class=""stimulus-container""><img src=""images/schematic_sequence/dinner_party_scheme/dinner_party_scheme_2.png"" class=""exp-image""><div class=""question-area""><b>Is there a person?</b></div></div>","1","person_check","dinner_party_scheme","2","","","","","","","","",""
"","","","","","html-keyboard-response","176","750121","0.0-176.0","null","","<div class=""stimulus-container""><img src=""images/schematic_sequence/dinner_party_scheme/dinner_party_scheme_3.png"" class=""exp-image""></div>","null","","","","","","","","","","","",""
"","","","","","html-button-response","177","757759","0.0-177.0","7637","","<div class=""stimulus-container""><img src=""images/schematic_sequence/dinner_party_scheme/dinner_party_scheme_3.png"" class=""exp-image""><div class=""question-area""><b>Is there a person?</b></div></div>","0","person_check","dinner_party_scheme","3","","","","","","","","",""
"","","","","","html-keyboard-response","178","761773","0.0-178.0","null","","<div class=""stimulus-container""><img src=""images/schematic_sequence/dinner_party_scheme/dinner_party_scheme_4.png"" class=""exp-image""></div>","null","","","","","","","","","","","",""
"","","","","","html-button-response","179","764153","0.0-179.0","2379","","<div class=""stimulus-container""><img src=""images/schematic_sequence/dinner_party_scheme/dinner_party_scheme_4.png"" class=""exp-image""><div class=""question-area""><b>Is there a person?</b></div></div>","0","person_check","dinner_party_scheme","4","","","","","","","","",""
"","","","","","html-keyboard-response","180","768157","0.0-180.0","null","","<div class=""stimulus-container""><img src=""images/schematic_sequence/dinner_party_scheme/dinner_party_scheme_5.png"" class=""exp-image""></div>","null","","","","","","","","","","","",""
"","","","","","html-button-response","181","771078","0.0-181.0","2920","","<div class=""stimulus-container""><img src=""images/schematic_sequence/dinner_party_scheme/dinner_party_scheme_5.png"" class=""exp-image""><div class=""question-area""><b>Is there a person?</b></div></div>","0","person_check","dinner_party_scheme","5","","","","","","","","",""
"","","","","","html-keyboard-response","182","775085","0.0-182.0","null","","<div class=""stimulus-container""><img src=""images/schematic_sequence/dinner_party_scheme/dinner_party_scheme_6.png"" class=""exp-image""></div>","null","","","","","","","","","","","",""
"","","","","","html-button-response","183","780946","0.0-183.0","5860","","<div class=""stimulus-container""><img src=""images/schematic_sequence/dinner_party_scheme/dinner_party_scheme_6.png"" class=""exp-image""><div class=""question-area""><b>Is there a person?</b></div></div>","0","person_check","dinner_party_scheme","6","","","","","","","","",""
"","","","","","html-keyboard-response","184","784948","0.0-184.0","null","","<div class=""stimulus-container""><img src=""images/schematic_sequence/dinner_party_scheme/dinner_party_scheme_7.png"" class=""exp-image""></div>","null","","","","","","","","","","","",""
"","","","","","html-button-response","185","795516","0.0-185.0","10566","","<div class=""stimulus-container""><img src=""images/schematic_sequence/dinner_party_scheme/dinner_party_scheme_7.png"" class=""exp-image""><div class=""question-area""><b>Is there a person?</b></div></div>","0","person_check","dinner_party_scheme","7","","","","","","","","",""
"","","","","","html-keyboard-response","186","799519","0.0-186.0","null","","<div class=""stimulus-container""><img src=""images/schematic_sequence/dinner_party_scheme/dinner_party_scheme_8.png"" class=""exp-image""></div>","null","","","","","","","","","","","",""
"","","","","","html-button-response","187","801289","0.0-187.0","1769","","<div class=""stimulus-container""><img src=""images/schematic_sequence/dinner_party_scheme/dinner_party_scheme_8.png"" class=""exp-image""><div class=""question-area""><b>Is there a person?</b></div></div>","0","person_check","dinner_party_scheme","8","","","","","","","","",""
"","","","","","html-keyboard-response","188","805291","0.0-188.0","null","","<div class=""stimulus-container""><img src=""images/schematic_sequence/dinner_party_scheme/dinner_party_scheme_9.png"" class=""exp-image""></div>","null","","","","","","","","","","","",""
"","","","","","html-button-response","189","806618","0.0-189.0","1326","","<div class=""stimulus-container""><img src=""images/schematic_sequence/dinner_party_scheme/dinner_party_scheme_9.png"" class=""exp-image""><div class=""question-area""><b>Is there a person?</b></div></div>","0","person_check","dinner_party_scheme","9","","","","","","","","",""
"","","","","","html-keyboard-response","190","810623","0.0-190.0","null","","<div class=""stimulus-container""><img src=""images/schematic_sequence/dinner_party_scheme/dinner_party_scheme_ten.png"" class=""exp-image""></div>","null","","","","","","","","","","","",""
"","","","","","html-button-response","191","812577","0.0-191.0","1953","","<div class=""stimulus-container""><img src=""images/schematic_sequence/dinner_party_scheme/dinner_party_scheme_ten.png"" class=""exp-image""><div class=""question-area""><b>Is there a person?</b></div></div>","0","person_check","dinner_party_scheme","10","","","","","","","","",""
"","","","","","html-keyboard-response","192","815580","0.0-192.0","null","","<div style=""background-color: white; width: 100vw; height: 100vh;""></div>","null","","","","","","","","","","","",""
"","","","","","html-keyboard-response","193","819596","0.0-193.0","null","","<div class=""stimulus-container""><img src=""images/semantic_sequence/maintaining_a_car_semantic/maintaining_a_car_semantic_1.png"" class=""exp-image""></div>","null","","","","","","","","","","","",""
"","","","","","html-button-response","194","821092","0.0-194.0","1495","","<div class=""stimulus-container""><img src=""images/semantic_sequence/maintaining_a_car_semantic/maintaining_a_car_semantic_1.png"" class=""exp-image""><div class=""question-area""><b>Is there a person?</b></div></div>","0","person_check","maintaining_a_car_semantic","1","","","","","","","","",""
"","","","","","html-keyboard-response","195","825104","0.0-195.0","null","","<div class=""stimulus-container""><img src=""images/semantic_sequence/maintaining_a_car_semantic/maintaining_a_car_semantic_2.png"" class=""exp-image""></div>","null","","","","","","","","","","","",""
"","","","","","html-button-response","196","826839","0.0-196.0","1734","","<div class=""stimulus-container""><img src=""images/semantic_sequence/maintaining_a_car_semantic/maintaining_a_car_semantic_2.png"" class=""exp-image""><div class=""question-area""><b>Is there a person?</b></div></div>","0","person_check","maintaining_a_car_semantic","2","","","","","","","","",""
"","","","","","html-keyboard-response","197","830848","0.0-197.0","null","","<div class=""stimulus-container""><img src=""images/semantic_sequence/maintaining_a_car_semantic/maintaining_a_car_semantic_3.png"" class=""exp-image""></div>","null","","","","","","","","","","","",""
"","","","","","html-button-response","198","832226","0.0-198.0","1377","","<div class=""stimulus-container""><img src=""images/semantic_sequence/maintaining_a_car_semantic/maintaining_a_car_semantic_3.png"" class=""exp-image""><div class=""question-area""><b>Is there a person?</b></div></div>","0","person_check","maintaining_a_car_semantic","3","","","","","","","","",""
"","","","","","html-keyboard-response","199","836231","0.0-199.0","null","","<div class=""stimulus-container""><img src=""images/semantic_sequence/maintaining_a_car_semantic/maintaining_a_car_semantic_4.png"" class=""exp-image""></div>","null","","","","","","","","","","","",""
"","","","","","html-button-response","200","836838","0.0-200.0","606","","<div class=""stimulus-container""><img src=""images/semantic_sequence/maintaining_a_car_semantic/maintaining_a_car_semantic_4.png"" class=""exp-image""><div class=""question-area""><b>Is there a person?</b></div></div>","0","person_check","maintaining_a_car_semantic","4","","","","","","","","",""
"","","","","","html-keyboard-response","201","840849","0.0-201.0","null","","<div class=""stimulus-container""><img src=""images/semantic_sequence/maintaining_a_car_semantic/maintaining_a_car_semantic_5.png"" class=""exp-image""></div>","null","","","","","","","","","","","",""
"","","","","","html-button-response","202","841755","0.0-202.0","905","","<div class=""stimulus-container""><img src=""images/semantic_sequence/maintaining_a_car_semantic/maintaining_a_car_semantic_5.png"" class=""exp-image""><div class=""question-area""><b>Is there a person?</b></div></div>","0","person_check","maintaining_a_car_semantic","5","","","","","","","","",""
"","","","","","html-keyboard-response","203","845770","0.0-203.0","null","","<div class=""stimulus-container""><img src=""images/semantic_sequence/maintaining_a_car_semantic/maintaining_a_car_semantic_6.png"" class=""exp-image""></div>","null","","","","","","","","","","","",""
"","","","","","html-button-response","204","847325","0.0-204.0","1554","","<div class=""stimulus-container""><img src=""images/semantic_sequence/maintaining_a_car_semantic/maintaining_a_car_semantic_6.png"" class=""exp-image""><div class=""question-area""><b>Is there a person?</b></div></div>","0","person_check","maintaining_a_car_semantic","6","","","","","","","","",""
"","","","","","html-keyboard-response","205","851339","0.0-205.0","null","","<div class=""stimulus-container""><img src=""images/semantic_sequence/maintaining_a_car_semantic/maintaining_a_car_semantic_7.png"" class=""exp-image""></div>","null","","","","","","","","","","","",""
"","","","","","html-button-response","206","860462","0.0-206.0","9122","","<div class=""stimulus-container""><img src=""images/semantic_sequence/maintaining_a_car_semantic/maintaining_a_car_semantic_7.png"" class=""exp-image""><div class=""question-area""><b>Is there a person?</b></div></div>","0","person_check","maintaining_a_car_semantic","7","","","","","","","","",""
"","","","","","html-keyboard-response","207","864464","0.0-207.0","null","","<div class=""stimulus-container""><img src=""images/semantic_sequence/maintaining_a_car_semantic/maintaining_a_car_semantic_8.png"" class=""exp-image""></div>","null","","","","","","","","","","","",""
"","","","","","html-button-response","208","869233","0.0-208.0","4768","","<div class=""stimulus-container""><img src=""images/semantic_sequence/maintaining_a_car_semantic/maintaining_a_car_semantic_8.png"" class=""exp-image""><div class=""question-area""><b>Is there a person?</b></div></div>","0","person_check","maintaining_a_car_semantic","8","","","","","","","","",""
"","","","","","html-keyboard-response","209","873235","0.0-209.0","null","","<div class=""stimulus-container""><img src=""images/semantic_sequence/maintaining_a_car_semantic/maintaining_a_car_semantic_9.png"" class=""exp-image""></div>","null","","","","","","","","","","","",""
"","","","","","html-button-response","210","874514","0.0-210.0","1279","","<div class=""stimulus-container""><img src=""images/semantic_sequence/maintaining_a_car_semantic/maintaining_a_car_semantic_9.png"" class=""exp-image""><div class=""question-area""><b>Is there a person?</b></div></div>","0","person_check","maintaining_a_car_semantic","9","","","","","","","","",""
"","","","","","html-keyboard-response","211","878518","0.0-211.0","null","","<div class=""stimulus-container""><img src=""images/semantic_sequence/maintaining_a_car_semantic/maintaining_a_car_semantic_ten.png"" class=""exp-image""></div>","null","","","","","","","","","","","",""
"","","","","","html-button-response","212","879390","0.0-212.0","871","","<div class=""stimulus-container""><img src=""images/semantic_sequence/maintaining_a_car_semantic/maintaining_a_car_semantic_ten.png"" class=""exp-image""><div class=""question-area""><b>Is there a person?</b></div></div>","0","person_check","maintaining_a_car_semantic","10","","","","","","","","",""
"","","","","","html-keyboard-response","213","882403","0.0-213.0","null","","<div style=""background-color: white; width: 100vw; height: 100vh;""></div>","null","","","","","","","","","","","",""
"","","","","","html-keyboard-response","214","886407","0.0-214.0","null","","<div class=""stimulus-container""><img src=""images/semantic_sequence/kitchen_operations_semantic/kitchen_operations_semantic_1.png"" class=""exp-image""></div>","null","","","","","","","","","","","",""
"","","","","","html-button-response","215","888242","0.0-215.0","1834","","<div class=""stimulus-container""><img src=""images/semantic_sequence/kitchen_operations_semantic/kitchen_operations_semantic_1.png"" class=""exp-image""><div class=""question-area""><b>Is there a person?</b></div></div>","0","person_check","kitchen_operations_semantic","1","","","","","","","","",""
"","","","","","html-keyboard-response","216","892248","0.0-216.0","null","","<div class=""stimulus-container""><img src=""images/semantic_sequence/kitchen_operations_semantic/kitchen_operations_semantic_2.png"" class=""exp-image""></div>","null","","","","","","","","","","","",""
"","","","","","html-button-response","217","894002","0.0-217.0","1752","","<div class=""stimulus-container""><img src=""images/semantic_sequence/kitchen_operations_semantic/kitchen_operations_semantic_2.png"" class=""exp-image""><div class=""question-area""><b>Is there a person?</b></div></div>","0","person_check","kitchen_operations_semantic","2","","","","","","","","",""
"","","","","","html-keyboard-response","218","898007","0.0-218.0","null","","<div class=""stimulus-container""><img src=""images/semantic_sequence/kitchen_operations_semantic/kitchen_operations_semantic_3.png"" class=""exp-image""></div>","null","","","","","","","","","","","",""
"","","","","","html-button-response","219","899349","0.0-219.0","1340","","<div class=""stimulus-container""><img src=""images/semantic_sequence/kitchen_operations_semantic/kitchen_operations_semantic_3.png"" class=""exp-image""><div class=""question-area""><b>Is there a person?</b></div></div>","0","person_check","kitchen_operations_semantic","3","","","","","","","","",""
"","","","","","html-keyboard-response","220","903364","0.0-220.0","null","","<div class=""stimulus-container""><img src=""images/semantic_sequence/kitchen_operations_semantic/kitchen_operations_semantic_4.png"" class=""exp-image""></div>","null","","","","","","","","","","","",""
"","","","","","html-button-response","221","903878","0.0-221.0","514","","<div class=""stimulus-container""><img src=""images/semantic_sequence/kitchen_operations_semantic/kitchen_operations_semantic_4.png"" class=""exp-image""><div class=""question-area""><b>Is there a person?</b></div></div>","0","person_check","kitchen_operations_semantic","4","","","","","","","","",""
"","","","","","html-keyboard-response","222","907894","0.0-222.0","null","","<div class=""stimulus-container""><img src=""images/semantic_sequence/kitchen_operations_semantic/kitchen_operations_semantic_5.png"" class=""exp-image""></div>","null","","","","","","","","","","","",""
"","","","","","html-button-response","223","909302","0.0-223.0","1408","","<div class=""stimulus-container""><img src=""images/semantic_sequence/kitchen_operations_semantic/kitchen_operations_semantic_5.png"" class=""exp-image""><div class=""question-area""><b>Is there a person?</b></div></div>","0","person_check","kitchen_operations_semantic","5","","","","","","","","",""
"","","","","","html-keyboard-response","224","913308","0.0-224.0","null","","<div class=""stimulus-container""><img src=""images/semantic_sequence/kitchen_operations_semantic/kitchen_operations_semantic_6.png"" class=""exp-image""></div>","null","","","","","","","","","","","",""
"","","","","","html-button-response","225","914446","0.0-225.0","1138","","<div class=""stimulus-container""><img src=""images/semantic_sequence/kitchen_operations_semantic/kitchen_operations_semantic_6.png"" class=""exp-image""><div class=""question-area""><b>Is there a person?</b></div></div>","0","person_check","kitchen_operations_semantic","6","","","","","","","","",""
"","","","","","html-keyboard-response","226","918450","0.0-226.0","null","","<div class=""stimulus-container""><img src=""images/semantic_sequence/kitchen_operations_semantic/kitchen_operations_semantic_7.png"" class=""exp-image""></div>","null","","","","","","","","","","","",""
"","","","","","html-button-response","227","920006","0.0-227.0","1555","","<div class=""stimulus-container""><img src=""images/semantic_sequence/kitchen_operations_semantic/kitchen_operations_semantic_7.png"" class=""exp-image""><div class=""question-area""><b>Is there a person?</b></div></div>","0","person_check","kitchen_operations_semantic","7","","","","","","","","",""
"","","","","","html-keyboard-response","228","924014","0.0-228.0","null","","<div class=""stimulus-container""><img src=""images/semantic_sequence/kitchen_operations_semantic/kitchen_operations_semantic_8.png"" class=""exp-image""></div>","null","","","","","","","","","","","",""
"","","","","","html-button-response","229","925454","0.0-229.0","1439","","<div class=""stimulus-container""><img src=""images/semantic_sequence/kitchen_operations_semantic/kitchen_operations_semantic_8.png"" class=""exp-image""><div class=""question-area""><b>Is there a person?</b></div></div>","0","person_check","kitchen_operations_semantic","8","","","","","","","","",""
"","","","","","html-keyboard-response","230","929458","0.0-230.0","null","","<div class=""stimulus-container""><img src=""images/semantic_sequence/kitchen_operations_semantic/kitchen_operations_semantic_9.png"" class=""exp-image""></div>","null","","","","","","","","","","","",""
"","","","","","html-button-response","231","933031","0.0-231.0","3572","","<div class=""stimulus-container""><img src=""images/semantic_sequence/kitchen_operations_semantic/kitchen_operations_semantic_9.png"" class=""exp-image""><div class=""question-area""><b>Is there a person?</b></div></div>","0","person_check","kitchen_operations_semantic","9","","","","","","","","",""
"","","","","","html-keyboard-response","232","937033","0.0-232.0","null","","<div class=""stimulus-container""><img src=""images/semantic_sequence/kitchen_operations_semantic/kitchen_operations_semantic_ten.png"" class=""exp-image""></div>","null","","","","","","","","","","","",""
"","","","","","html-button-response","233","948989","0.0-233.0","11956","","<div class=""stimulus-container""><img src=""images/semantic_sequence/kitchen_operations_semantic/kitchen_operations_semantic_ten.png"" class=""exp-image""><div class=""question-area""><b>Is there a person?</b></div></div>","0","person_check","kitchen_operations_semantic","10","","","","","","","","",""
"","","","","","html-keyboard-response","234","952004","0.0-234.0","null","","<div style=""background-color: white; width: 100vw; height: 100vh;""></div>","null","","","","","","","","","","","",""
"","","","","","html-keyboard-response","235","956019","0.0-235.0","null","","<div class=""stimulus-container""><img src=""images/schematic_sequence/hotel_scheme/hotel_scheme_1.png"" class=""exp-image""></div>","null","","","","","","","","","","","",""
"","","","","","html-button-response","236","956765","0.0-236.0","745","","<div class=""stimulus-container""><img src=""images/schematic_sequence/hotel_scheme/hotel_scheme_1.png"" class=""exp-image""><div class=""question-area""><b>Is there a person?</b></div></div>","1","person_check","hotel_scheme","1","","","","","","","","",""
"","","","","","html-keyboard-response","237","960771","0.0-237.0","null","","<div class=""stimulus-container""><img src=""images/schematic_sequence/hotel_scheme/hotel_scheme_2.png"" class=""exp-image""></div>","null","","","","","","","","","","","",""
"","","","","","html-button-response","238","962418","0.0-238.0","1647","","<div class=""stimulus-container""><img src=""images/schematic_sequence/hotel_scheme/hotel_scheme_2.png"" class=""exp-image""><div class=""question-area""><b>Is there a person?</b></div></div>","0","person_check","hotel_scheme","2","","","","","","","","",""
"","","","","","html-keyboard-response","239","966433","0.0-239.0","null","","<div class=""stimulus-container""><img src=""images/schematic_sequence/hotel_scheme/hotel_scheme_3.png"" class=""exp-image""></div>","null","","","","","","","","","","","",""
"","","","","","html-button-response","240","973939","0.0-240.0","7505","","<div class=""stimulus-container""><img src=""images/schematic_sequence/hotel_scheme/hotel_scheme_3.png"" class=""exp-image""><div class=""question-area""><b>Is there a person?</b></div></div>","0","person_check","hotel_scheme","3","","","","","","","","",""
"","","","","","html-keyboard-response","241","977942","0.0-241.0","null","","<div class=""stimulus-container""><img src=""images/schematic_sequence/hotel_scheme/hotel_scheme_4.png"" class=""exp-image""></div>","null","","","","","","","","","","","",""
"","","","","","html-button-response","242","982191","0.0-242.0","4248","","<div class=""stimulus-container""><img src=""images/schematic_sequence/hotel_scheme/hotel_scheme_4.png"" class=""exp-image""><div class=""question-area""><b>Is there a person?</b></div></div>","1","person_check","hotel_scheme","4","","","","","","","","",""
"","","","","","html-keyboard-response","243","986204","0.0-243.0","null","","<div class=""stimulus-container""><img src=""images/schematic_sequence/hotel_scheme/hotel_scheme_5.png"" class=""exp-image""></div>","null","","","","","","","","","","","",""
"","","","","","html-button-response","244","990420","0.0-244.0","4216","","<div class=""stimulus-container""><img src=""images/schematic_sequence/hotel_scheme/hotel_scheme_5.png"" class=""exp-image""><div class=""question-area""><b>Is there a person?</b></div></div>","0","person_check","hotel_scheme","5","","","","","","","","",""
"","","","","","html-keyboard-response","245","994425","0.0-245.0","null","","<div class=""stimulus-container""><img src=""images/schematic_sequence/hotel_scheme/hotel_scheme_6.png"" class=""exp-image""></div>","null","","","","","","","","","","","",""
"","","","","","html-button-response","246","999883","0.0-246.0","5456","","<div class=""stimulus-container""><img src=""images/schematic_sequence/hotel_scheme/hotel_scheme_6.png"" class=""exp-image""><div class=""question-area""><b>Is there a person?</b></div></div>","0","person_check","hotel_scheme","6","","","","","","","","",""
"","","","","","html-keyboard-response","247","1003890","0.0-247.0","null","","<div class=""stimulus-container""><img src=""images/schematic_sequence/hotel_scheme/hotel_scheme_7.png"" class=""exp-image""></div>","null","","","","","","","","","","","",""
"","","","","","html-button-response","248","1004959","0.0-248.0","1068","","<div class=""stimulus-container""><img src=""images/schematic_sequence/hotel_scheme/hotel_scheme_7.png"" class=""exp-image""><div class=""question-area""><b>Is there a person?</b></div></div>","0","person_check","hotel_scheme","7","","","","","","","","",""
"","","","","","html-keyboard-response","249","1008973","0.0-249.0","null","","<div class=""stimulus-container""><img src=""images/schematic_sequence/hotel_scheme/hotel_scheme_8.png"" class=""exp-image""></div>","null","","","","","","","","","","","",""
"","","","","","html-button-response","250","1017269","0.0-250.0","8295","","<div class=""stimulus-container""><img src=""images/schematic_sequence/hotel_scheme/hotel_scheme_8.png"" class=""exp-image""><div class=""question-area""><b>Is there a person?</b></div></div>","0","person_check","hotel_scheme","8","","","","","","","","",""
"","","","","","html-keyboard-response","251","1021276","0.0-251.0","null","","<div class=""stimulus-container""><img src=""images/schematic_sequence/hotel_scheme/hotel_scheme_9.png"" class=""exp-image""></div>","null","","","","","","","","","","","",""
"","","","","","html-button-response","252","1039995","0.0-252.0","18718","","<div class=""stimulus-container""><img src=""images/schematic_sequence/hotel_scheme/hotel_scheme_9.png"" class=""exp-image""><div class=""question-area""><b>Is there a person?</b></div></div>","0","person_check","hotel_scheme","9","","","","","","","","",""
"","","","","","html-keyboard-response","253","1044008","0.0-253.0","null","","<div class=""stimulus-container""><img src=""images/schematic_sequence/hotel_scheme/hotel_scheme_ten.png"" class=""exp-image""></div>","null","","","","","","","","","","","",""
"","","","","","html-button-response","254","1049176","0.0-254.0","5167","","<div class=""stimulus-container""><img src=""images/schematic_sequence/hotel_scheme/hotel_scheme_ten.png"" class=""exp-image""><div class=""question-area""><b>Is there a person?</b></div></div>","0","person_check","hotel_scheme","10","","","","","","","","",""
"","","","","","html-keyboard-response","255","1052186","0.0-255.0","null","","<div style=""background-color: white; width: 100vw; height: 100vh;""></div>","null","","","","","","","","","","","",""
"","","","","","html-keyboard-response","256","1056189","0.0-256.0","null","","<div class=""stimulus-container""><img src=""images/causal_sequence/the_performance_causal/the_performance_causal_1.png"" class=""exp-image""></div>","null","","","","","","","","","","","",""
"","","","","","html-button-response","257","1057580","0.0-257.0","1391","","<div class=""stimulus-container""><img src=""images/causal_sequence/the_performance_causal/the_performance_causal_1.png"" class=""exp-image""><div class=""question-area""><b>Is there a person?</b></div></div>","0","person_check","the_performance_causal","1","","","","","","","","",""
"","","","","","html-keyboard-response","258","1061583","0.0-258.0","null","","<div class=""stimulus-container""><img src=""images/causal_sequence/the_performance_causal/the_performance_causal_2.png"" class=""exp-image""></div>","null","","","","","","","","","","","",""
"","","","","","html-button-response","259","1062756","0.0-259.0","1172","","<div class=""stimulus-container""><img src=""images/causal_sequence/the_performance_causal/the_performance_causal_2.png"" class=""exp-image""><div class=""question-area""><b>Is there a person?</b></div></div>","0","person_check","the_performance_causal","2","","","","","","","","",""
"","","","","","html-keyboard-response","260","1066763","0.0-260.0","null","","<div class=""stimulus-container""><img src=""images/causal_sequence/the_performance_causal/the_performance_causal_3.png"" class=""exp-image""></div>","null","","","","","","","","","","","",""
"","","","","","html-button-response","261","1067534","0.0-261.0","771","","<div class=""stimulus-container""><img src=""images/causal_sequence/the_performance_causal/the_performance_causal_3.png"" class=""exp-image""><div class=""question-area""><b>Is there a person?</b></div></div>","0","person_check","the_performance_causal","3","","","","","","","","",""
"","","","","","html-keyboard-response","262","1071548","0.0-262.0","null","","<div class=""stimulus-container""><img src=""images/causal_sequence/the_performance_causal/the_performance_causal_4.png"" class=""exp-image""></div>","null","","","","","","","","","","","",""
"","","","","","html-button-response","263","1072588","0.0-263.0","1040","","<div class=""stimulus-container""><img src=""images/causal_sequence/the_performance_causal/the_performance_causal_4.png"" class=""exp-image""><div class=""question-area""><b>Is there a person?</b></div></div>","0","person_check","the_performance_causal","4","","","","","","","","",""
"","","","","","html-keyboard-response","264","1076603","0.0-264.0","null","","<div class=""stimulus-container""><img src=""images/causal_sequence/the_performance_causal/the_performance_causal_5.png"" class=""exp-image""></div>","null","","","","","","","","","","","",""
"","","","","","html-button-response","265","1077395","0.0-265.0","791","","<div class=""stimulus-container""><img src=""images/causal_sequence/the_performance_causal/the_performance_causal_5.png"" class=""exp-image""><div class=""question-area""><b>Is there a person?</b></div></div>","0","person_check","the_performance_causal","5","","","","","","","","",""
"","","","","","html-keyboard-response","266","1081405","0.0-266.0","null","","<div class=""stimulus-container""><img src=""images/causal_sequence/the_performance_causal/the_performance_causal_6.png"" class=""exp-image""></div>","null","","","","","","","","","","","",""
"","","","","","html-button-response","267","1082450","0.0-267.0","1044","","<div class=""stimulus-container""><img src=""images/causal_sequence/the_performance_causal/the_performance_causal_6.png"" class=""exp-image""><div class=""question-area""><b>Is there a person?</b></div></div>","0","person_check","the_performance_causal","6","","","","","","","","",""
"","","","","","html-keyboard-response","268","1086455","0.0-268.0","null","","<div class=""stimulus-container""><img src=""images/causal_sequence/the_performance_causal/the_performance_causal_7.png"" class=""exp-image""></div>","null","","","","","","","","","","","",""
"","","","","","html-button-response","269","1094150","0.0-269.0","7694","","<div class=""stimulus-container""><img src=""images/causal_sequence/the_performance_causal/the_performance_causal_7.png"" class=""exp-image""><div class=""question-area""><b>Is there a person?</b></div></div>","0","person_check","the_performance_causal","7","","","","","","","","",""
"","","","","","html-keyboard-response","270","1098166","0.0-270.0","null","","<div class=""stimulus-container""><img src=""images/causal_sequence/the_performance_causal/the_performance_causal_8.png"" class=""exp-image""></div>","null","","","","","","","","","","","",""
"","","","","","html-button-response","271","1100860","0.0-271.0","2694","","<div class=""stimulus-container""><img src=""images/causal_sequence/the_performance_causal/the_performance_causal_8.png"" class=""exp-image""><div class=""question-area""><b>Is there a person?</b></div></div>","0","person_check","the_performance_causal","8","","","","","","","","",""
"","","","","","html-keyboard-response","272","1104871","0.0-272.0","null","","<div class=""stimulus-container""><img src=""images/causal_sequence/the_performance_causal/the_performance_causal_9.png"" class=""exp-image""></div>","null","","","","","","","","","","","",""
"","","","","","html-button-response","273","1106975","0.0-273.0","2103","","<div class=""stimulus-container""><img src=""images/causal_sequence/the_performance_causal/the_performance_causal_9.png"" class=""exp-image""><div class=""question-area""><b>Is there a person?</b></div></div>","0","person_check","the_performance_causal","9","","","","","","","","",""
"","","","","","html-keyboard-response","274","1110990","0.0-274.0","null","","<div class=""stimulus-container""><img src=""images/causal_sequence/the_performance_causal/the_performance_causal_ten.png"" class=""exp-image""></div>","null","","","","","","","","","","","",""
"","","","","","html-button-response","275","1113215","0.0-275.0","2224","","<div class=""stimulus-container""><img src=""images/causal_sequence/the_performance_causal/the_performance_causal_ten.png"" class=""exp-image""><div class=""question-area""><b>Is there a person?</b></div></div>","0","person_check","the_performance_causal","10","","","","","","","","",""
"","","","","","html-keyboard-response","276","1116227","0.0-276.0","null","","<div style=""background-color: white; width: 100vw; height: 100vh;""></div>","null","","","","","","","","","","","",""
"","","","","","html-keyboard-response","277","1120239","0.0-277.0","null","","<div class=""stimulus-container""><img src=""images/causal_sequence/museum_causal/museum_causal_1.png"" class=""exp-image""></div>","null","","","","","","","","","","","",""
"","","","","","html-button-response","278","1121769","0.0-278.0","1529","","<div class=""stimulus-container""><img src=""images/causal_sequence/museum_causal/museum_causal_1.png"" class=""exp-image""><div class=""question-area""><b>Is there a person?</b></div></div>","0","person_check","museum_causal","1","","","","","","","","",""
"","","","","","html-keyboard-response","279","1125776","0.0-279.0","null","","<div class=""stimulus-container""><img src=""images/causal_sequence/museum_causal/museum_causal_2.png"" class=""exp-image""></div>","null","","","","","","","","","","","",""
"","","","","","html-button-response","280","1136799","0.0-280.0","11021","","<div class=""stimulus-container""><img src=""images/causal_sequence/museum_causal/museum_causal_2.png"" class=""exp-image""><div class=""question-area""><b>Is there a person?</b></div></div>","1","person_check","museum_causal","2","","","","","","","","",""
"","","","","","html-keyboard-response","281","1140800","0.0-281.0","null","","<div class=""stimulus-container""><img src=""images/causal_sequence/museum_causal/museum_causal_3.png"" class=""exp-image""></div>","null","","","","","","","","","","","",""
"","","","","","html-button-response","282","1141595","0.0-282.0","794","","<div class=""stimulus-container""><img src=""images/causal_sequence/museum_causal/museum_causal_3.png"" class=""exp-image""><div class=""question-area""><b>Is there a person?</b></div></div>","0","person_check","museum_causal","3","","","","","","","","",""
"","","","","","html-keyboard-response","283","1145596","0.0-283.0","null","","<div class=""stimulus-container""><img src=""images/causal_sequence/museum_causal/museum_causal_4.png"" class=""exp-image""></div>","null","","","","","","","","","","","",""
"","","","","","html-button-response","284","1146723","0.0-284.0","1126","","<div class=""stimulus-container""><img src=""images/causal_sequence/museum_causal/museum_causal_4.png"" class=""exp-image""><div class=""question-area""><b>Is there a person?</b></div></div>","1","person_check","museum_causal","4","","","","","","","","",""
"","","","","","html-keyboard-response","285","1150731","0.0-285.0","null","","<div class=""stimulus-container""><img src=""images/causal_sequence/museum_causal/museum_causal_5.png"" class=""exp-image""></div>","null","","","","","","","","","","","",""
"","","","","","html-button-response","286","1151660","0.0-286.0","928","","<div class=""stimulus-container""><img src=""images/causal_sequence/museum_causal/museum_causal_5.png"" class=""exp-image""><div class=""question-area""><b>Is there a person?</b></div></div>","0","person_check","museum_causal","5","","","","","","","","",""
"","","","","","html-keyboard-response","287","1155675","0.0-287.0","null","","<div class=""stimulus-container""><img src=""images/causal_sequence/museum_causal/museum_causal_6.png"" class=""exp-image""></div>","null","","","","","","","","","","","",""
"","","","","","html-button-response","288","1156419","0.0-288.0","743","","<div class=""stimulus-container""><img src=""images/causal_sequence/museum_causal/museum_causal_6.png"" class=""exp-image""><div class=""question-area""><b>Is there a person?</b></div></div>","0","person_check","museum_causal","6","","","","","","","","",""
"","","","","","html-keyboard-response","289","1160431","0.0-289.0","null","","<div class=""stimulus-container""><img src=""images/causal_sequence/museum_causal/museum_causal_7.png"" class=""exp-image""></div>","null","","","","","","","","","","","",""
"","","","","","html-button-response","290","1161871","0.0-290.0","1439","","<div class=""stimulus-container""><img src=""images/causal_sequence/museum_causal/museum_causal_7.png"" class=""exp-image""><div class=""question-area""><b>Is there a person?</b></div></div>","1","person_check","museum_causal","7","","","","","","","","",""
"","","","","","html-keyboard-response","291","1165879","0.0-291.0","null","","<div class=""stimulus-container""><img src=""images/causal_sequence/museum_causal/museum_causal_8.png"" class=""exp-image""></div>","null","","","","","","","","","","","",""
"","","","","","html-button-response","292","1167245","0.0-292.0","1365","","<div class=""stimulus-container""><img src=""images/causal_sequence/museum_causal/museum_causal_8.png"" class=""exp-image""><div class=""question-area""><b>Is there a person?</b></div></div>","0","person_check","museum_causal","8","","","","","","","","",""
"","","","","","html-keyboard-response","293","1171260","0.0-293.0","null","","<div class=""stimulus-container""><img src=""images/causal_sequence/museum_causal/museum_causal_9.png"" class=""exp-image""></div>","null","","","","","","","","","","","",""
"","","","","","html-button-response","294","1172764","0.0-294.0","1503","","<div class=""stimulus-container""><img src=""images/causal_sequence/museum_causal/museum_causal_9.png"" class=""exp-image""><div class=""question-area""><b>Is there a person?</b></div></div>","1","person_check","museum_causal","9","","","","","","","","",""
"","","","","","html-keyboard-response","295","1176775","0.0-295.0","null","","<div class=""stimulus-container""><img src=""images/causal_sequence/museum_causal/museum_causal_ten.png"" class=""exp-image""></div>","null","","","","","","","","","","","",""
"","","","","","html-button-response","296","1178381","0.0-296.0","1605","","<div class=""stimulus-container""><img src=""images/causal_sequence/museum_causal/museum_causal_ten.png"" class=""exp-image""><div class=""question-area""><b>Is there a person?</b></div></div>","0","person_check","museum_causal","10","","","","","","","","",""
"","","","","","html-keyboard-response","297","1181397","0.0-297.0","null","","<div style=""background-color: white; width: 100vw; height: 100vh;""></div>","null","","","","","","","","","","","",""
"","","","","","html-keyboard-response","298","1185405","0.0-298.0","null","","<div class=""stimulus-container""><img src=""images/schematic_sequence/restaurant_scheme/restaurant_scheme_1.png"" class=""exp-image""></div>","null","","","","","","","","","","","",""
"","","","","","html-button-response","299","1186443","0.0-299.0","1037","","<div class=""stimulus-container""><img src=""images/schematic_sequence/restaurant_scheme/restaurant_scheme_1.png"" class=""exp-image""><div class=""question-area""><b>Is there a person?</b></div></div>","0","person_check","restaurant_scheme","1","","","","","","","","",""
"","","","","","html-keyboard-response","300","1190452","0.0-300.0","null","","<div class=""stimulus-container""><img src=""images/schematic_sequence/restaurant_scheme/restaurant_scheme_2.png"" class=""exp-image""></div>","null","","","","","","","","","","","",""
"","","","","","html-button-response","301","1191528","0.0-301.0","1076","","<div class=""stimulus-container""><img src=""images/schematic_sequence/restaurant_scheme/restaurant_scheme_2.png"" class=""exp-image""><div class=""question-area""><b>Is there a person?</b></div></div>","1","person_check","restaurant_scheme","2","","","","","","","","",""
"","","","","","html-keyboard-response","302","1195537","0.0-302.0","null","","<div class=""stimulus-container""><img src=""images/schematic_sequence/restaurant_scheme/restaurant_scheme_3.png"" class=""exp-image""></div>","null","","","","","","","","","","","",""
"","","","","","html-button-response","303","1201875","0.0-303.0","6337","","<div class=""stimulus-container""><img src=""images/schematic_sequence/restaurant_scheme/restaurant_scheme_3.png"" class=""exp-image""><div class=""question-area""><b>Is there a person?</b></div></div>","1","person_check","restaurant_scheme","3","","","","","","","","",""
"","","","","","html-keyboard-response","304","1205890","0.0-304.0","null","","<div class=""stimulus-container""><img src=""images/schematic_sequence/restaurant_scheme/restaurant_scheme_4.png"" class=""exp-image""></div>","null","","","","","","","","","","","",""
"","","","","","html-button-response","305","1206934","0.0-305.0","1043","","<div class=""stimulus-container""><img src=""images/schematic_sequence/restaurant_scheme/restaurant_scheme_4.png"" class=""exp-image""><div class=""question-area""><b>Is there a person?</b></div></div>","0","person_check","restaurant_scheme","4","","","","","","","","",""
"","","","","","html-keyboard-response","306","1210947","0.0-306.0","null","","<div class=""stimulus-container""><img src=""images/schematic_sequence/restaurant_scheme/restaurant_scheme_5.png"" class=""exp-image""></div>","null","","","","","","","","","","","",""
"","","","","","html-button-response","307","1212662","0.0-307.0","1714","","<div class=""stimulus-container""><img src=""images/schematic_sequence/restaurant_scheme/restaurant_scheme_5.png"" class=""exp-image""><div class=""question-area""><b>Is there a person?</b></div></div>","0","person_check","restaurant_scheme","5","","","","","","","","",""
"","","","","","html-keyboard-response","308","1216676","0.0-308.0","null","","<div class=""stimulus-container""><img src=""images/schematic_sequence/restaurant_scheme/restaurant_scheme_6.png"" class=""exp-image""></div>","null","","","","","","","","","","","",""
"","","","","","html-button-response","309","1218971","0.0-309.0","2294","","<div class=""stimulus-container""><img src=""images/schematic_sequence/restaurant_scheme/restaurant_scheme_6.png"" class=""exp-image""><div class=""question-area""><b>Is there a person?</b></div></div>","1","person_check","restaurant_scheme","6","","","","","","","","",""
"","","","","","html-keyboard-response","310","1222986","0.0-310.0","null","","<div class=""stimulus-container""><img src=""images/schematic_sequence/restaurant_scheme/restaurant_scheme_7.png"" class=""exp-image""></div>","null","","","","","","","","","","","",""
"","","","","","html-button-response","311","1224140","0.0-311.0","1153","","<div class=""stimulus-container""><img src=""images/schematic_sequence/restaurant_scheme/restaurant_scheme_7.png"" class=""exp-image""><div class=""question-area""><b>Is there a person?</b></div></div>","1","person_check","restaurant_scheme","7","","","","","","","","",""
"","","","","","html-keyboard-response","312","1228148","0.0-312.0","null","","<div class=""stimulus-container""><img src=""images/schematic_sequence/restaurant_scheme/restaurant_scheme_8.png"" class=""exp-image""></div>","null","","","","","","","","","","","",""
"","","","","","html-button-response","313","1239916","0.0-313.0","11767","","<div class=""stimulus-container""><img src=""images/schematic_sequence/restaurant_scheme/restaurant_scheme_8.png"" class=""exp-image""><div class=""question-area""><b>Is there a person?</b></div></div>","1","person_check","restaurant_scheme","8","","","","","","","","",""
"","","","","","html-keyboard-response","314","1243922","0.0-314.0","null","","<div class=""stimulus-container""><img src=""images/schematic_sequence/restaurant_scheme/restaurant_scheme_9.png"" class=""exp-image""></div>","null","","","","","","","","","","","",""
"","","","","","html-button-response","315","1245599","0.0-315.0","1677","","<div class=""stimulus-container""><img src=""images/schematic_sequence/restaurant_scheme/restaurant_scheme_9.png"" class=""exp-image""><div class=""question-area""><b>Is there a person?</b></div></div>","0","person_check","restaurant_scheme","9","","","","","","","","",""
"","","","","","html-keyboard-response","316","1249610","0.0-316.0","null","","<div class=""stimulus-container""><img src=""images/schematic_sequence/restaurant_scheme/restaurant_scheme_ten.png"" class=""exp-image""></div>","null","","","","","","","","","","","",""
"","","","","","html-button-response","317","1250256","0.0-317.0","644","","<div class=""stimulus-container""><img src=""images/schematic_sequence/restaurant_scheme/restaurant_scheme_ten.png"" class=""exp-image""><div class=""question-area""><b>Is there a person?</b></div></div>","0","person_check","restaurant_scheme","10","","","","","","","","",""
"","","","","","html-keyboard-response","318","1253257","0.0-318.0","null","","<div style=""background-color: white; width: 100vw; height: 100vh;""></div>","null","","","","","","","","","","","",""
"","","","","","html-keyboard-response","319","1257265","0.0-319.0","null","","<div class=""stimulus-container""><img src=""images/causal_sequence/coin_causal/coin_causal_1.png"" class=""exp-image""></div>","null","","","","","","","","","","","",""
"","","","","","html-button-response","320","1257972","0.0-320.0","706","","<div class=""stimulus-container""><img src=""images/causal_sequence/coin_causal/coin_causal_1.png"" class=""exp-image""><div class=""question-area""><b>Is there a person?</b></div></div>","0","person_check","coin_causal","1","","","","","","","","",""
"","","","","","html-keyboard-response","321","1261987","0.0-321.0","null","","<div class=""stimulus-container""><img src=""images/causal_sequence/coin_causal/coin_causal_2.png"" class=""exp-image""></div>","null","","","","","","","","","","","",""
"","","","","","html-button-response","322","1262726","0.0-322.0","738","","<div class=""stimulus-container""><img src=""images/causal_sequence/coin_causal/coin_causal_2.png"" class=""exp-image""><div class=""question-area""><b>Is there a person?</b></div></div>","0","person_check","coin_causal","2","","","","","","","","",""
"","","","","","html-keyboard-response","323","1266727","0.0-323.0","null","","<div class=""stimulus-container""><img src=""images/causal_sequence/coin_causal/coin_causal_3.png"" class=""exp-image""></div>","null","","","","","","","","","","","",""
"","","","","","html-button-response","324","1267578","0.0-324.0","849","","<div class=""stimulus-container""><img src=""images/causal_sequence/coin_causal/coin_causal_3.png"" class=""exp-image""><div class=""question-area""><b>Is there a person?</b></div></div>","0","person_check","coin_causal","3","","","","","","","","",""
"","","","","","html-keyboard-response","325","1271591","0.0-325.0","null","","<div class=""stimulus-container""><img src=""images/causal_sequence/coin_causal/coin_causal_4.png"" class=""exp-image""></div>","null","","","","","","","","","","","",""
"","","","","","html-button-response","326","1272156","0.0-326.0","564","","<div class=""stimulus-container""><img src=""images/causal_sequence/coin_causal/coin_causal_4.png"" class=""exp-image""><div class=""question-area""><b>Is there a person?</b></div></div>","0","person_check","coin_causal","4","","","","","","","","",""
"","","","","","html-keyboard-response","327","1276161","0.0-327.0","null","","<div class=""stimulus-container""><img src=""images/causal_sequence/coin_causal/coin_causal_5.png"" class=""exp-image""></div>","null","","","","","","","","","","","",""
"","","","","","html-button-response","328","1276897","0.0-328.0","736","","<div class=""stimulus-container""><img src=""images/causal_sequence/coin_causal/coin_causal_5.png"" class=""exp-image""><div class=""question-area""><b>Is there a person?</b></div></div>","0","person_check","coin_causal","5","","","","","","","","",""
