"success","timeout","failed_images","failed_audio","failed_video","trial_type","trial_index","time_elapsed","internal_node_id","subject_id","study_id","session_id","view_history","rt","stimulus","response","task","image_index","folder","sequence_type","valuable_image_index","reward_type","chosen_image_index","target_X","correct_choice"
"true","false","[]","[]","[]","preload","0","7292","0.0-0.0","EE50FE4297774D8B955D4C33BA4B9BFE","019cf0cb-cb7d-7c17-b2fd-efe7b65065ab","019cf037-5203-781a-b900-108ccb1cab86","","","","","","","","","","","","",""
"","","","","","instructions","1","9978","0.0-1.0","EE50FE4297774D8B955D4C33BA4B9BFE","019cf0cb-cb7d-7c17-b2fd-efe7b65065ab","019cf037-5203-781a-b900-108ccb1cab86","[{""page_index"":0,""viewing_time"":2686}]","2686","","","","","","","","","","",""
"","","","","","instructions","2","33559","0.0-2.0","EE50FE4297774D8B955D4C33BA4B9BFE","019cf0cb-cb7d-7c17-b2fd-efe7b65065ab","019cf037-5203-781a-b900-108ccb1cab86","[{""page_index"":0,""viewing_time"":23578}]","23578","","","","","","","","","","",""
"true","","","","","fullscreen","3","36377","0.0-3.0","EE50FE4297774D8B955D4C33BA4B9BFE","019cf0cb-cb7d-7c17-b2fd-efe7b65065ab","019cf037-5203-781a-b900-108ccb1cab86","","1763","","","","","","","","","","",""
"","","","","","instructions","4","203529","0.0-4.0","EE50FE4297774D8B955D4C33BA4B9BFE","019cf0cb-cb7d-7c17-b2fd-efe7b65065ab","019cf037-5203-781a-b900-108ccb1cab86","[{""page_index"":0,""viewing_time"":167146}]","167147","","","","","","","","","","",""
"","","","","","instructions","5","213656","0.0-5.0","EE50FE4297774D8B955D4C33BA4B9BFE","019cf0cb-cb7d-7c17-b2fd-efe7b65065ab","019cf037-5203-781a-b900-108ccb1cab86","[{""page_index"":0,""viewing_time"":10123}]","10123","","","","","","","","","","",""
"","","","","","html-keyboard-response","6","217935","0.0-6.0","EE50FE4297774D8B955D4C33BA4B9BFE","019cf0cb-cb7d-7c17-b2fd-efe7b65065ab","019cf037-5203-781a-b900-108ccb1cab86","","null","
                <div class=""stimulus-container"">
                    <img src=""images/instructions/movie_1.png"" class=""exp-image"">
                    <div class=""question-area""></div> 
                </div>","null","","","","","","","","",""
"","","","","","html-button-response","7","220115","0.0-7.0","EE50FE4297774D8B955D4C33BA4B9BFE","019cf0cb-cb7d-7c17-b2fd-efe7b65065ab","019cf037-5203-781a-b900-108ccb1cab86","","2178","
                <div class=""stimulus-container"">
                    <img src=""images/instructions/movie_1.png"" class=""exp-image"">
                    <div class=""question-area"">
                        <p style=""font-size: 20px; font-weight: bold; margin: 0;"">Was there a person in this image?</p>
                    </div>
                </div>","0","example_question","1","","","","","","",""
"","","","","","html-keyboard-response","8","224122","0.0-8.0","EE50FE4297774D8B955D4C33BA4B9BFE","019cf0cb-cb7d-7c17-b2fd-efe7b65065ab","019cf037-5203-781a-b900-108ccb1cab86","","null","
                <div class=""stimulus-container"">
                    <img src=""images/instructions/movie_2.png"" class=""exp-image"">
                    <div class=""question-area""></div> 
                </div>","null","","","","","","","","",""
"","","","","","html-button-response","9","227123","0.0-9.0","EE50FE4297774D8B955D4C33BA4B9BFE","019cf0cb-cb7d-7c17-b2fd-efe7b65065ab","019cf037-5203-781a-b900-108ccb1cab86","","null","
                <div class=""stimulus-container"">
                    <img src=""images/instructions/movie_2.png"" class=""exp-image"">
                    <div class=""question-area"">
                        <p style=""font-size: 20px; font-weight: bold; margin: 0;"">Was there a person in this image?</p>
                    </div>
                </div>","null","example_question","2","","","","","","",""
"","","","","","html-keyboard-response","10","231263","0.0-10.0","EE50FE4297774D8B955D4C33BA4B9BFE","019cf0cb-cb7d-7c17-b2fd-efe7b65065ab","019cf037-5203-781a-b900-108ccb1cab86","","null","
                <div class=""stimulus-container"">
                    <img src=""images/instructions/movie_3.png"" class=""exp-image"">
                    <div class=""question-area""></div> 
                </div>","null","","","","","","","","",""
"","","","","","html-button-response","11","231918","0.0-11.0","EE50FE4297774D8B955D4C33BA4B9BFE","019cf0cb-cb7d-7c17-b2fd-efe7b65065ab","019cf037-5203-781a-b900-108ccb1cab86","","654","
                <div class=""stimulus-container"">
                    <img src=""images/instructions/movie_3.png"" class=""exp-image"">
                    <div class=""question-area"">
                        <p style=""font-size: 20px; font-weight: bold; margin: 0;"">Was there a person in this image?</p>
                    </div>
                </div>","0","example_question","3","","","","","","",""
"","","","","","html-keyboard-response","12","236131","0.0-12.0","EE50FE4297774D8B955D4C33BA4B9BFE","019cf0cb-cb7d-7c17-b2fd-efe7b65065ab","019cf037-5203-781a-b900-108ccb1cab86","","null","
                <div class=""stimulus-container"">
                    <img src=""images/instructions/movie_4.png"" class=""exp-image"">
                    <div class=""question-area""></div> 
                </div>","null","","","","","","","","",""
"","","","","","html-button-response","13","236706","0.0-13.0","EE50FE4297774D8B955D4C33BA4B9BFE","019cf0cb-cb7d-7c17-b2fd-efe7b65065ab","019cf037-5203-781a-b900-108ccb1cab86","","574","
                <div class=""stimulus-container"">
                    <img src=""images/instructions/movie_4.png"" class=""exp-image"">
                    <div class=""question-area"">
                        <p style=""font-size: 20px; font-weight: bold; margin: 0;"">Was there a person in this image?</p>
                    </div>
                </div>","0","example_question","4","","","","","","",""
"","","","","","instructions","14","238417","0.0-14.0","EE50FE4297774D8B955D4C33BA4B9BFE","019cf0cb-cb7d-7c17-b2fd-efe7b65065ab","019cf037-5203-781a-b900-108ccb1cab86","[{""page_index"":0,""viewing_time"":1710}]","1710","","","","","","","","","","",""
"","","","","","instructions","15","242271","0.0-15.0","EE50FE4297774D8B955D4C33BA4B9BFE","019cf0cb-cb7d-7c17-b2fd-efe7b65065ab","019cf037-5203-781a-b900-108ccb1cab86","[{""page_index"":0,""viewing_time"":3851}]","3852","","","","","","","","","","",""
"","","","","","html-keyboard-response","16","243277","0.0-16.0","EE50FE4297774D8B955D4C33BA4B9BFE","019cf0cb-cb7d-7c17-b2fd-efe7b65065ab","019cf037-5203-781a-b900-108ccb1cab86","","null","<div style=""background-color: white; width: 100vw; height: 100vh;""></div>","null","","","","","","","","",""
"","","","","","html-keyboard-response","17","248534","0.0-17.0","EE50FE4297774D8B955D4C33BA4B9BFE","019cf0cb-cb7d-7c17-b2fd-efe7b65065ab","019cf037-5203-781a-b900-108ccb1cab86","","null","
                <div class=""stimulus-container"">
                    <img src=""images/causal_sequence/coin_causal/coin_causal_1.png"" class=""exp-image"">
                    <div class=""question-area""></div> 
                </div>","null","","","","","","","","",""
"","","","","","html-button-response","18","249639","0.0-18.0","EE50FE4297774D8B955D4C33BA4B9BFE","019cf0cb-cb7d-7c17-b2fd-efe7b65065ab","019cf037-5203-781a-b900-108ccb1cab86","","1103","
                <div class=""stimulus-container"">
                    <img src=""images/causal_sequence/coin_causal/coin_causal_1.png"" class=""exp-image"">
                    <div class=""question-area"">
                        <p style=""font-size: 20px; font-weight: bold; margin: 0;"">Is there a person in this image?</p>
                    </div>
                </div>","0","main_experiment_trial","1","coin_causal","causal_sequence","","","","",""
"","","","","","html-keyboard-response","19","254843","0.0-19.0","EE50FE4297774D8B955D4C33BA4B9BFE","019cf0cb-cb7d-7c17-b2fd-efe7b65065ab","019cf037-5203-781a-b900-108ccb1cab86","","null","
                <div class=""stimulus-container"">
                    <img src=""images/causal_sequence/coin_causal/coin_causal_2.png"" class=""exp-image"">
                    <div class=""question-area""></div> 
                </div>","null","","","","","","","","",""
"","","","","","html-button-response","20","255652","0.0-20.0","EE50FE4297774D8B955D4C33BA4B9BFE","019cf0cb-cb7d-7c17-b2fd-efe7b65065ab","019cf037-5203-781a-b900-108ccb1cab86","","808","
                <div class=""stimulus-container"">
                    <img src=""images/causal_sequence/coin_causal/coin_causal_2.png"" class=""exp-image"">
                    <div class=""question-area"">
                        <p style=""font-size: 20px; font-weight: bold; margin: 0;"">Is there a person in this image?</p>
                    </div>
                </div>","0","main_experiment_trial","2","coin_causal","causal_sequence","","","","",""
"","","","","","html-keyboard-response","21","260870","0.0-21.0","EE50FE4297774D8B955D4C33BA4B9BFE","019cf0cb-cb7d-7c17-b2fd-efe7b65065ab","019cf037-5203-781a-b900-108ccb1cab86","","null","
                <div class=""stimulus-container"">
                    <img src=""images/causal_sequence/coin_causal/coin_causal_3.png"" class=""exp-image"">
                    <div class=""question-area""></div> 
                </div>","null","","","","","","","","",""
"","","","","","html-button-response","22","261706","0.0-22.0","EE50FE4297774D8B955D4C33BA4B9BFE","019cf0cb-cb7d-7c17-b2fd-efe7b65065ab","019cf037-5203-781a-b900-108ccb1cab86","","834","
                <div class=""stimulus-container"">
                    <img src=""images/causal_sequence/coin_causal/coin_causal_3.png"" class=""exp-image"">
                    <div class=""question-area"">
                        <p style=""font-size: 20px; font-weight: bold; margin: 0;"">Is there a person in this image?</p>
                    </div>
                </div>","0","main_experiment_trial","3","coin_causal","causal_sequence","","","","",""
"","","","","","html-keyboard-response","23","266712","0.0-23.0","EE50FE4297774D8B955D4C33BA4B9BFE","019cf0cb-cb7d-7c17-b2fd-efe7b65065ab","019cf037-5203-781a-b900-108ccb1cab86","","null","
                <div class=""stimulus-container"">
                    <img src=""images/causal_sequence/coin_causal/coin_causal_4.png"" class=""exp-image"">
                    <div class=""question-area""></div> 
                </div>","null","","","","","","","","",""
"","","","","","html-button-response","24","267291","0.0-24.0","EE50FE4297774D8B955D4C33BA4B9BFE","019cf0cb-cb7d-7c17-b2fd-efe7b65065ab","019cf037-5203-781a-b900-108ccb1cab86","","577","
                <div class=""stimulus-container"">
                    <img src=""images/causal_sequence/coin_causal/coin_causal_4.png"" class=""exp-image"">
                    <div class=""question-area"">
                        <p style=""font-size: 20px; font-weight: bold; margin: 0;"">Is there a person in this image?</p>
                    </div>
                </div>","0","main_experiment_trial","4","coin_causal","causal_sequence","","","","",""
"","","","","","html-keyboard-response","25","272491","0.0-25.0","EE50FE4297774D8B955D4C33BA4B9BFE","019cf0cb-cb7d-7c17-b2fd-efe7b65065ab","019cf037-5203-781a-b900-108ccb1cab86","","null","
                <div class=""stimulus-container"">
                    <img src=""images/causal_sequence/coin_causal/coin_causal_5.png"" class=""exp-image"">
                    <div class=""question-area""></div> 
                </div>","null","","","","","","","","",""
"","","","","","html-button-response","26","273213","0.0-26.0","EE50FE4297774D8B955D4C33BA4B9BFE","019cf0cb-cb7d-7c17-b2fd-efe7b65065ab","019cf037-5203-781a-b900-108ccb1cab86","","721","
                <div class=""stimulus-container"">
                    <img src=""images/causal_sequence/coin_causal/coin_causal_5.png"" class=""exp-image"">
                    <div class=""question-area"">
                        <p style=""font-size: 20px; font-weight: bold; margin: 0;"">Is there a person in this image?</p>
                    </div>
                </div>","0","main_experiment_trial","5","coin_causal","causal_sequence","","","","",""
"","","","","","html-keyboard-response","27","278316","0.0-27.0","EE50FE4297774D8B955D4C33BA4B9BFE","019cf0cb-cb7d-7c17-b2fd-efe7b65065ab","019cf037-5203-781a-b900-108ccb1cab86","","null","
                <div class=""stimulus-container"">
                    <img src=""images/causal_sequence/coin_causal/coin_causal_6.png"" class=""exp-image"">
                    <div class=""question-area""></div> 
                </div>","null","","","","","","","","",""
"","","","","","html-button-response","28","278816","0.0-28.0","EE50FE4297774D8B955D4C33BA4B9BFE","019cf0cb-cb7d-7c17-b2fd-efe7b65065ab","019cf037-5203-781a-b900-108ccb1cab86","","500","
                <div class=""stimulus-container"">
                    <img src=""images/causal_sequence/coin_causal/coin_causal_6.png"" class=""exp-image"">
                    <div class=""question-area"">
                        <p style=""font-size: 20px; font-weight: bold; margin: 0;"">Is there a person in this image?</p>
                    </div>
                </div>","0","main_experiment_trial","6","coin_causal","causal_sequence","","","","",""
"","","","","","html-keyboard-response","29","283823","0.0-29.0","EE50FE4297774D8B955D4C33BA4B9BFE","019cf0cb-cb7d-7c17-b2fd-efe7b65065ab","019cf037-5203-781a-b900-108ccb1cab86","","null","
                <div class=""stimulus-container"">
                    <img src=""images/causal_sequence/coin_causal/coin_causal_7.png"" class=""exp-image"">
                    <div class=""question-area""></div> 
                </div>","null","","","","","","","","",""
"","","","","","html-button-response","30","284423","0.0-30.0","EE50FE4297774D8B955D4C33BA4B9BFE","019cf0cb-cb7d-7c17-b2fd-efe7b65065ab","019cf037-5203-781a-b900-108ccb1cab86","","599","
                <div class=""stimulus-container"">
                    <img src=""images/causal_sequence/coin_causal/coin_causal_7.png"" class=""exp-image"">
                    <div class=""question-area"">
                        <p style=""font-size: 20px; font-weight: bold; margin: 0;"">Is there a person in this image?</p>
                    </div>
                </div>","1","main_experiment_trial","7","coin_causal","causal_sequence","","","","",""
"","","","","","html-keyboard-response","31","289429","0.0-31.0","EE50FE4297774D8B955D4C33BA4B9BFE","019cf0cb-cb7d-7c17-b2fd-efe7b65065ab","019cf037-5203-781a-b900-108ccb1cab86","","null","
                <div class=""stimulus-container"">
                    <img src=""images/causal_sequence/coin_causal/coin_causal_8.png"" class=""exp-image"">
                    <div class=""question-area""></div> 
                </div>","null","","","","","","","","",""
"","","","","","html-button-response","32","289985","0.0-32.0","EE50FE4297774D8B955D4C33BA4B9BFE","019cf0cb-cb7d-7c17-b2fd-efe7b65065ab","019cf037-5203-781a-b900-108ccb1cab86","","555","
                <div class=""stimulus-container"">
                    <img src=""images/causal_sequence/coin_causal/coin_causal_8.png"" class=""exp-image"">
                    <div class=""question-area"">
                        <p style=""font-size: 20px; font-weight: bold; margin: 0;"">Is there a person in this image?</p>
                    </div>
                </div>","0","main_experiment_trial","8","coin_causal","causal_sequence","","","","",""
"","","","","","html-keyboard-response","33","294992","0.0-33.0","EE50FE4297774D8B955D4C33BA4B9BFE","019cf0cb-cb7d-7c17-b2fd-efe7b65065ab","019cf037-5203-781a-b900-108ccb1cab86","","null","
                <div class=""stimulus-container"">
                    <img src=""images/causal_sequence/coin_causal/coin_causal_9.png"" class=""exp-image"">
                    <div class=""question-area""></div> 
                </div>","null","","","","","","","","",""
"","","","","","html-button-response","34","295744","0.0-34.0","EE50FE4297774D8B955D4C33BA4B9BFE","019cf0cb-cb7d-7c17-b2fd-efe7b65065ab","019cf037-5203-781a-b900-108ccb1cab86","","751","
                <div class=""stimulus-container"">
                    <img src=""images/causal_sequence/coin_causal/coin_causal_9.png"" class=""exp-image"">
                    <div class=""question-area"">
                        <p style=""font-size: 20px; font-weight: bold; margin: 0;"">Is there a person in this image?</p>
                    </div>
                </div>","0","main_experiment_trial","9","coin_causal","causal_sequence","","","","",""
"","","","","","html-keyboard-response","35","301018","0.0-35.0","EE50FE4297774D8B955D4C33BA4B9BFE","019cf0cb-cb7d-7c17-b2fd-efe7b65065ab","019cf037-5203-781a-b900-108ccb1cab86","","null","
                <div class=""stimulus-container"">
                    <img src=""images/causal_sequence/coin_causal/coin_causal_ten.png"" class=""exp-image"">
                    <div class=""question-area""></div> 
                </div>","null","","","","","","","","",""
"","","","","","html-button-response","36","301690","0.0-36.0","EE50FE4297774D8B955D4C33BA4B9BFE","019cf0cb-cb7d-7c17-b2fd-efe7b65065ab","019cf037-5203-781a-b900-108ccb1cab86","","672","
                <div class=""stimulus-container"">
                    <img src=""images/causal_sequence/coin_causal/coin_causal_ten.png"" class=""exp-image"">
                    <div class=""question-area"">
                        <p style=""font-size: 20px; font-weight: bold; margin: 0;"">Is there a person in this image?</p>
                    </div>
                </div>","0","main_experiment_trial","ten","coin_causal","causal_sequence","","","","",""
"","","","","","html-keyboard-response","37","302698","0.0-37.0","EE50FE4297774D8B955D4C33BA4B9BFE","019cf0cb-cb7d-7c17-b2fd-efe7b65065ab","019cf037-5203-781a-b900-108ccb1cab86","","null","<div style=""background-color: white; width: 100vw; height: 100vh;""></div>","null","","","","","","","","",""
"","","","","","html-keyboard-response","38","307741","0.0-38.0","EE50FE4297774D8B955D4C33BA4B9BFE","019cf0cb-cb7d-7c17-b2fd-efe7b65065ab","019cf037-5203-781a-b900-108ccb1cab86","","null","
                <div class=""stimulus-container"">
                    <img src=""images/schematic_sequence/dinner_party_scheme/dinner_party_scheme_1.png"" class=""exp-image"">
                    <div class=""question-area""></div> 
                </div>","null","","","","","","","","",""
"","","","","","html-button-response","39","308827","0.0-39.0","EE50FE4297774D8B955D4C33BA4B9BFE","019cf0cb-cb7d-7c17-b2fd-efe7b65065ab","019cf037-5203-781a-b900-108ccb1cab86","","1085","
                <div class=""stimulus-container"">
                    <img src=""images/schematic_sequence/dinner_party_scheme/dinner_party_scheme_1.png"" class=""exp-image"">
                    <div class=""question-area"">
                        <p style=""font-size: 20px; font-weight: bold; margin: 0;"">Is there a person in this image?</p>
                    </div>
                </div>","0","main_experiment_trial","1","dinner_party_scheme","schematic_sequence","","","","",""
"","","","","","html-keyboard-response","40","313833","0.0-40.0","EE50FE4297774D8B955D4C33BA4B9BFE","019cf0cb-cb7d-7c17-b2fd-efe7b65065ab","019cf037-5203-781a-b900-108ccb1cab86","","null","
                <div class=""stimulus-container"">
                    <img src=""images/schematic_sequence/dinner_party_scheme/dinner_party_scheme_2.png"" class=""exp-image"">
                    <div class=""question-area""></div> 
                </div>","null","","","","","","","","",""
"","","","","","html-button-response","41","316835","0.0-41.0","EE50FE4297774D8B955D4C33BA4B9BFE","019cf0cb-cb7d-7c17-b2fd-efe7b65065ab","019cf037-5203-781a-b900-108ccb1cab86","","null","
                <div class=""stimulus-container"">
                    <img src=""images/schematic_sequence/dinner_party_scheme/dinner_party_scheme_2.png"" class=""exp-image"">
                    <div class=""question-area"">
                        <p style=""font-size: 20px; font-weight: bold; margin: 0;"">Is there a person in this image?</p>
                    </div>
                </div>","null","main_experiment_trial","2","dinner_party_scheme","schematic_sequence","","","","",""
"","","","","","html-keyboard-response","42","321889","0.0-42.0","EE50FE4297774D8B955D4C33BA4B9BFE","019cf0cb-cb7d-7c17-b2fd-efe7b65065ab","019cf037-5203-781a-b900-108ccb1cab86","","null","
                <div class=""stimulus-container"">
                    <img src=""images/schematic_sequence/dinner_party_scheme/dinner_party_scheme_3.png"" class=""exp-image"">
                    <div class=""question-area""></div> 
                </div>","null","","","","","","","","",""
"","","","","","html-button-response","43","322376","0.0-43.0","EE50FE4297774D8B955D4C33BA4B9BFE","019cf0cb-cb7d-7c17-b2fd-efe7b65065ab","019cf037-5203-781a-b900-108ccb1cab86","","487","
                <div class=""stimulus-container"">
                    <img src=""images/schematic_sequence/dinner_party_scheme/dinner_party_scheme_3.png"" class=""exp-image"">
                    <div class=""question-area"">
                        <p style=""font-size: 20px; font-weight: bold; margin: 0;"">Is there a person in this image?</p>
                    </div>
                </div>","0","main_experiment_trial","3","dinner_party_scheme","schematic_sequence","","","","",""
"","","","","","html-keyboard-response","44","327378","0.0-44.0","EE50FE4297774D8B955D4C33BA4B9BFE","019cf0cb-cb7d-7c17-b2fd-efe7b65065ab","019cf037-5203-781a-b900-108ccb1cab86","","null","
                <div class=""stimulus-container"">
                    <img src=""images/schematic_sequence/dinner_party_scheme/dinner_party_scheme_4.png"" class=""exp-image"">
                    <div class=""question-area""></div> 
                </div>","null","","","","","","","","",""
"","","","","","html-button-response","45","328000","0.0-45.0","EE50FE4297774D8B955D4C33BA4B9BFE","019cf0cb-cb7d-7c17-b2fd-efe7b65065ab","019cf037-5203-781a-b900-108ccb1cab86","","620","
                <div class=""stimulus-container"">
                    <img src=""images/schematic_sequence/dinner_party_scheme/dinner_party_scheme_4.png"" class=""exp-image"">
                    <div class=""question-area"">
                        <p style=""font-size: 20px; font-weight: bold; margin: 0;"">Is there a person in this image?</p>
                    </div>
                </div>","0","main_experiment_trial","4","dinner_party_scheme","schematic_sequence","","","","",""
"","","","","","html-keyboard-response","46","333052","0.0-46.0","EE50FE4297774D8B955D4C33BA4B9BFE","019cf0cb-cb7d-7c17-b2fd-efe7b65065ab","019cf037-5203-781a-b900-108ccb1cab86","","null","
                <div class=""stimulus-container"">
                    <img src=""images/schematic_sequence/dinner_party_scheme/dinner_party_scheme_5.png"" class=""exp-image"">
                    <div class=""question-area""></div> 
                </div>","null","","","","","","","","",""
"","","","","","html-button-response","47","333610","0.0-47.0","EE50FE4297774D8B955D4C33BA4B9BFE","019cf0cb-cb7d-7c17-b2fd-efe7b65065ab","019cf037-5203-781a-b900-108ccb1cab86","","557","
                <div class=""stimulus-container"">
                    <img src=""images/schematic_sequence/dinner_party_scheme/dinner_party_scheme_5.png"" class=""exp-image"">
                    <div class=""question-area"">
                        <p style=""font-size: 20px; font-weight: bold; margin: 0;"">Is there a person in this image?</p>
                    </div>
                </div>","0","main_experiment_trial","5","dinner_party_scheme","schematic_sequence","","","","",""
"","","","","","html-keyboard-response","48","338616","0.0-48.0","EE50FE4297774D8B955D4C33BA4B9BFE","019cf0cb-cb7d-7c17-b2fd-efe7b65065ab","019cf037-5203-781a-b900-108ccb1cab86","","null","
                <div class=""stimulus-container"">
                    <img src=""images/schematic_sequence/dinner_party_scheme/dinner_party_scheme_6.png"" class=""exp-image"">
                    <div class=""question-area""></div> 
                </div>","null","","","","","","","","",""
"","","","","","html-button-response","49","339212","0.0-49.0","EE50FE4297774D8B955D4C33BA4B9BFE","019cf0cb-cb7d-7c17-b2fd-efe7b65065ab","019cf037-5203-781a-b900-108ccb1cab86","","594","
                <div class=""stimulus-container"">
                    <img src=""images/schematic_sequence/dinner_party_scheme/dinner_party_scheme_6.png"" class=""exp-image"">
                    <div class=""question-area"">
                        <p style=""font-size: 20px; font-weight: bold; margin: 0;"">Is there a person in this image?</p>
                    </div>
                </div>","0","main_experiment_trial","6","dinner_party_scheme","schematic_sequence","","","","",""
"","","","","","html-keyboard-response","50","344622","0.0-50.0","EE50FE4297774D8B955D4C33BA4B9BFE","019cf0cb-cb7d-7c17-b2fd-efe7b65065ab","019cf037-5203-781a-b900-108ccb1cab86","","null","
                <div class=""stimulus-container"">
                    <img src=""images/schematic_sequence/dinner_party_scheme/dinner_party_scheme_7.png"" class=""exp-image"">
                    <div class=""question-area""></div> 
                </div>","null","","","","","","","","",""
"","","","","","html-button-response","51","345121","0.0-51.0","EE50FE4297774D8B955D4C33BA4B9BFE","019cf0cb-cb7d-7c17-b2fd-efe7b65065ab","019cf037-5203-781a-b900-108ccb1cab86","","496","
                <div class=""stimulus-container"">
                    <img src=""images/schematic_sequence/dinner_party_scheme/dinner_party_scheme_7.png"" class=""exp-image"">
                    <div class=""question-area"">
                        <p style=""font-size: 20px; font-weight: bold; margin: 0;"">Is there a person in this image?</p>
                    </div>
                </div>","0","main_experiment_trial","7","dinner_party_scheme","schematic_sequence","","","","",""
"","","","","","html-keyboard-response","52","350128","0.0-52.0","EE50FE4297774D8B955D4C33BA4B9BFE","019cf0cb-cb7d-7c17-b2fd-efe7b65065ab","019cf037-5203-781a-b900-108ccb1cab86","","null","
                <div class=""stimulus-container"">
                    <img src=""images/schematic_sequence/dinner_party_scheme/dinner_party_scheme_8.png"" class=""exp-image"">
                    <div class=""question-area""></div> 
                </div>","null","","","","","","","","",""
"","","","","","html-button-response","53","350650","0.0-53.0","EE50FE4297774D8B955D4C33BA4B9BFE","019cf0cb-cb7d-7c17-b2fd-efe7b65065ab","019cf037-5203-781a-b900-108ccb1cab86","","521","
                <div class=""stimulus-container"">
                    <img src=""images/schematic_sequence/dinner_party_scheme/dinner_party_scheme_8.png"" class=""exp-image"">
                    <div class=""question-area"">
                        <p style=""font-size: 20px; font-weight: bold; margin: 0;"">Is there a person in this image?</p>
                    </div>
                </div>","0","main_experiment_trial","8","dinner_party_scheme","schematic_sequence","","","","",""
"","","","","","html-keyboard-response","54","355658","0.0-54.0","EE50FE4297774D8B955D4C33BA4B9BFE","019cf0cb-cb7d-7c17-b2fd-efe7b65065ab","019cf037-5203-781a-b900-108ccb1cab86","","null","
                <div class=""stimulus-container"">
                    <img src=""images/schematic_sequence/dinner_party_scheme/dinner_party_scheme_9.png"" class=""exp-image"">
                    <div class=""question-area""></div> 
                </div>","null","","","","","","","","",""
"","","","","","html-button-response","55","356151","0.0-55.0","EE50FE4297774D8B955D4C33BA4B9BFE","019cf0cb-cb7d-7c17-b2fd-efe7b65065ab","019cf037-5203-781a-b900-108ccb1cab86","","493","
                <div class=""stimulus-container"">
                    <img src=""images/schematic_sequence/dinner_party_scheme/dinner_party_scheme_9.png"" class=""exp-image"">
                    <div class=""question-area"">
                        <p style=""font-size: 20px; font-weight: bold; margin: 0;"">Is there a person in this image?</p>
                    </div>
                </div>","0","main_experiment_trial","9","dinner_party_scheme","schematic_sequence","","","","",""
"","","","","","html-keyboard-response","56","361158","0.0-56.0","EE50FE4297774D8B955D4C33BA4B9BFE","019cf0cb-cb7d-7c17-b2fd-efe7b65065ab","019cf037-5203-781a-b900-108ccb1cab86","","null","
                <div class=""stimulus-container"">
                    <img src=""images/schematic_sequence/dinner_party_scheme/dinner_party_scheme_ten.png"" class=""exp-image"">
                    <div class=""question-area""></div> 
                </div>","null","","","","","","","","",""
"","","","","","html-button-response","57","361658","0.0-57.0","EE50FE4297774D8B955D4C33BA4B9BFE","019cf0cb-cb7d-7c17-b2fd-efe7b65065ab","019cf037-5203-781a-b900-108ccb1cab86","","500","
                <div class=""stimulus-container"">
                    <img src=""images/schematic_sequence/dinner_party_scheme/dinner_party_scheme_ten.png"" class=""exp-image"">
                    <div class=""question-area"">
                        <p style=""font-size: 20px; font-weight: bold; margin: 0;"">Is there a person in this image?</p>
                    </div>
                </div>","0","main_experiment_trial","ten","dinner_party_scheme","schematic_sequence","","","","",""
"","","","","","html-keyboard-response","58","362664","0.0-58.0","EE50FE4297774D8B955D4C33BA4B9BFE","019cf0cb-cb7d-7c17-b2fd-efe7b65065ab","019cf037-5203-781a-b900-108ccb1cab86","","null","<div style=""background-color: white; width: 100vw; height: 100vh;""></div>","null","","","","","","","","",""
"","","","","","html-keyboard-response","59","367666","0.0-59.0","EE50FE4297774D8B955D4C33BA4B9BFE","019cf0cb-cb7d-7c17-b2fd-efe7b65065ab","019cf037-5203-781a-b900-108ccb1cab86","","null","
                <div class=""stimulus-container"">
                    <img src=""images/causal_sequence/museum_causal/museum_causal_1.png"" class=""exp-image"">
                    <div class=""question-area""></div> 
                </div>","null","","","","","","","","",""
"","","","","","html-button-response","60","368199","0.0-60.0","EE50FE4297774D8B955D4C33BA4B9BFE","019cf0cb-cb7d-7c17-b2fd-efe7b65065ab","019cf037-5203-781a-b900-108ccb1cab86","","534","
                <div class=""stimulus-container"">
                    <img src=""images/causal_sequence/museum_causal/museum_causal_1.png"" class=""exp-image"">
                    <div class=""question-area"">
                        <p style=""font-size: 20px; font-weight: bold; margin: 0;"">Is there a person in this image?</p>
                    </div>
                </div>","0","main_experiment_trial","1","museum_causal","causal_sequence","","","","",""
"","","","","","html-keyboard-response","61","373367","0.0-61.0","EE50FE4297774D8B955D4C33BA4B9BFE","019cf0cb-cb7d-7c17-b2fd-efe7b65065ab","019cf037-5203-781a-b900-108ccb1cab86","","null","
                <div class=""stimulus-container"">
                    <img src=""images/causal_sequence/museum_causal/museum_causal_2.png"" class=""exp-image"">
                    <div class=""question-area""></div> 
                </div>","null","","","","","","","","",""
"","","","","","html-button-response","62","373925","0.0-62.0","EE50FE4297774D8B955D4C33BA4B9BFE","019cf0cb-cb7d-7c17-b2fd-efe7b65065ab","019cf037-5203-781a-b900-108ccb1cab86","","557","
                <div class=""stimulus-container"">
                    <img src=""images/causal_sequence/museum_causal/museum_causal_2.png"" class=""exp-image"">
                    <div class=""question-area"">
                        <p style=""font-size: 20px; font-weight: bold; margin: 0;"">Is there a person in this image?</p>
                    </div>
                </div>","1","main_experiment_trial","2","museum_causal","causal_sequence","","","","",""
"","","","","","html-keyboard-response","63","379014","0.0-63.0","EE50FE4297774D8B955D4C33BA4B9BFE","019cf0cb-cb7d-7c17-b2fd-efe7b65065ab","019cf037-5203-781a-b900-108ccb1cab86","","null","
                <div class=""stimulus-container"">
                    <img src=""images/causal_sequence/museum_causal/museum_causal_3.png"" class=""exp-image"">
                    <div class=""question-area""></div> 
                </div>","null","","","","","","","","",""
"","","","","","html-button-response","64","379594","0.0-64.0","EE50FE4297774D8B955D4C33BA4B9BFE","019cf0cb-cb7d-7c17-b2fd-efe7b65065ab","019cf037-5203-781a-b900-108ccb1cab86","","581","
                <div class=""stimulus-container"">
                    <img src=""images/causal_sequence/museum_causal/museum_causal_3.png"" class=""exp-image"">
                    <div class=""question-area"">
                        <p style=""font-size: 20px; font-weight: bold; margin: 0;"">Is there a person in this image?</p>
                    </div>
                </div>","0","main_experiment_trial","3","museum_causal","causal_sequence","","","","",""
"","","","","","html-keyboard-response","65","384608","0.0-65.0","EE50FE4297774D8B955D4C33BA4B9BFE","019cf0cb-cb7d-7c17-b2fd-efe7b65065ab","019cf037-5203-781a-b900-108ccb1cab86","","null","
                <div class=""stimulus-container"">
                    <img src=""images/causal_sequence/museum_causal/museum_causal_4.png"" class=""exp-image"">
                    <div class=""question-area""></div> 
                </div>","null","","","","","","","","",""
"","","","","","html-button-response","66","385164","0.0-66.0","EE50FE4297774D8B955D4C33BA4B9BFE","019cf0cb-cb7d-7c17-b2fd-efe7b65065ab","019cf037-5203-781a-b900-108ccb1cab86","","555","
                <div class=""stimulus-container"">
                    <img src=""images/causal_sequence/museum_causal/museum_causal_4.png"" class=""exp-image"">
                    <div class=""question-area"">
                        <p style=""font-size: 20px; font-weight: bold; margin: 0;"">Is there a person in this image?</p>
                    </div>
                </div>","1","main_experiment_trial","4","museum_causal","causal_sequence","","","","",""
"","","","","","html-keyboard-response","67","390166","0.0-67.0","EE50FE4297774D8B955D4C33BA4B9BFE","019cf0cb-cb7d-7c17-b2fd-efe7b65065ab","019cf037-5203-781a-b900-108ccb1cab86","","null","
                <div class=""stimulus-container"">
                    <img src=""images/causal_sequence/museum_causal/museum_causal_5.png"" class=""exp-image"">
                    <div class=""question-area""></div> 
                </div>","null","","","","","","","","",""
"","","","","","html-button-response","68","390698","0.0-68.0","EE50FE4297774D8B955D4C33BA4B9BFE","019cf0cb-cb7d-7c17-b2fd-efe7b65065ab","019cf037-5203-781a-b900-108ccb1cab86","","531","
                <div class=""stimulus-container"">
                    <img src=""images/causal_sequence/museum_causal/museum_causal_5.png"" class=""exp-image"">
                    <div class=""question-area"">
                        <p style=""font-size: 20px; font-weight: bold; margin: 0;"">Is there a person in this image?</p>
                    </div>
                </div>","0","main_experiment_trial","5","museum_causal","causal_sequence","","","","",""
"","","","","","html-keyboard-response","69","395702","0.0-69.0","EE50FE4297774D8B955D4C33BA4B9BFE","019cf0cb-cb7d-7c17-b2fd-efe7b65065ab","019cf037-5203-781a-b900-108ccb1cab86","","null","
                <div class=""stimulus-container"">
                    <img src=""images/causal_sequence/museum_causal/museum_causal_6.png"" class=""exp-image"">
                    <div class=""question-area""></div> 
                </div>","null","","","","","","","","",""
"","","","","","html-button-response","70","396356","0.0-70.0","EE50FE4297774D8B955D4C33BA4B9BFE","019cf0cb-cb7d-7c17-b2fd-efe7b65065ab","019cf037-5203-781a-b900-108ccb1cab86","","653","
                <div class=""stimulus-container"">
                    <img src=""images/causal_sequence/museum_causal/museum_causal_6.png"" class=""exp-image"">
                    <div class=""question-area"">
                        <p style=""font-size: 20px; font-weight: bold; margin: 0;"">Is there a person in this image?</p>
                    </div>
                </div>","0","main_experiment_trial","6","museum_causal","causal_sequence","","","","",""
"","","","","","html-keyboard-response","71","401361","0.0-71.0","EE50FE4297774D8B955D4C33BA4B9BFE","019cf0cb-cb7d-7c17-b2fd-efe7b65065ab","019cf037-5203-781a-b900-108ccb1cab86","","null","
                <div class=""stimulus-container"">
                    <img src=""images/causal_sequence/museum_causal/museum_causal_7.png"" class=""exp-image"">
                    <div class=""question-area""></div> 
                </div>","null","","","","","","","","",""
"","","","","","html-button-response","72","401918","0.0-72.0","EE50FE4297774D8B955D4C33BA4B9BFE","019cf0cb-cb7d-7c17-b2fd-efe7b65065ab","019cf037-5203-781a-b900-108ccb1cab86","","556","
                <div class=""stimulus-container"">
                    <img src=""images/causal_sequence/museum_causal/museum_causal_7.png"" class=""exp-image"">
                    <div class=""question-area"">
                        <p style=""font-size: 20px; font-weight: bold; margin: 0;"">Is there a person in this image?</p>
                    </div>
                </div>","1","main_experiment_trial","7","museum_causal","causal_sequence","","","","",""
"","","","","","html-keyboard-response","73","407027","0.0-73.0","EE50FE4297774D8B955D4C33BA4B9BFE","019cf0cb-cb7d-7c17-b2fd-efe7b65065ab","019cf037-5203-781a-b900-108ccb1cab86","","null","
                <div class=""stimulus-container"">
                    <img src=""images/causal_sequence/museum_causal/museum_causal_8.png"" class=""exp-image"">
                    <div class=""question-area""></div> 
                </div>","null","","","","","","","","",""
"","","","","","html-button-response","74","407567","0.0-74.0","EE50FE4297774D8B955D4C33BA4B9BFE","019cf0cb-cb7d-7c17-b2fd-efe7b65065ab","019cf037-5203-781a-b900-108ccb1cab86","","540","
                <div class=""stimulus-container"">
                    <img src=""images/causal_sequence/museum_causal/museum_causal_8.png"" class=""exp-image"">
                    <div class=""question-area"">
                        <p style=""font-size: 20px; font-weight: bold; margin: 0;"">Is there a person in this image?</p>
                    </div>
                </div>","0","main_experiment_trial","8","museum_causal","causal_sequence","","","","",""
"","","","","","html-keyboard-response","75","412599","0.0-75.0","EE50FE4297774D8B955D4C33BA4B9BFE","019cf0cb-cb7d-7c17-b2fd-efe7b65065ab","019cf037-5203-781a-b900-108ccb1cab86","","null","
                <div class=""stimulus-container"">
                    <img src=""images/causal_sequence/museum_causal/museum_causal_9.png"" class=""exp-image"">
                    <div class=""question-area""></div> 
                </div>","null","","","","","","","","",""
"","","","","","html-button-response","76","413082","0.0-76.0","EE50FE4297774D8B955D4C33BA4B9BFE","019cf0cb-cb7d-7c17-b2fd-efe7b65065ab","019cf037-5203-781a-b900-108ccb1cab86","","483","
                <div class=""stimulus-container"">
                    <img src=""images/causal_sequence/museum_causal/museum_causal_9.png"" class=""exp-image"">
                    <div class=""question-area"">
                        <p style=""font-size: 20px; font-weight: bold; margin: 0;"">Is there a person in this image?</p>
                    </div>
                </div>","1","main_experiment_trial","9","museum_causal","causal_sequence","","","","",""
"","","","","","html-keyboard-response","77","418257","0.0-77.0","EE50FE4297774D8B955D4C33BA4B9BFE","019cf0cb-cb7d-7c17-b2fd-efe7b65065ab","019cf037-5203-781a-b900-108ccb1cab86","","null","
                <div class=""stimulus-container"">
                    <img src=""images/causal_sequence/museum_causal/museum_causal_ten.png"" class=""exp-image"">
                    <div class=""question-area""></div> 
                </div>","null","","","","","","","","",""
"","","","","","html-button-response","78","418716","0.0-78.0","EE50FE4297774D8B955D4C33BA4B9BFE","019cf0cb-cb7d-7c17-b2fd-efe7b65065ab","019cf037-5203-781a-b900-108ccb1cab86","","458","
                <div class=""stimulus-container"">
                    <img src=""images/causal_sequence/museum_causal/museum_causal_ten.png"" class=""exp-image"">
                    <div class=""question-area"">
                        <p style=""font-size: 20px; font-weight: bold; margin: 0;"">Is there a person in this image?</p>
                    </div>
                </div>","0","main_experiment_trial","ten","museum_causal","causal_sequence","","","","",""
"","","","","","html-keyboard-response","79","419722","0.0-79.0","EE50FE4297774D8B955D4C33BA4B9BFE","019cf0cb-cb7d-7c17-b2fd-efe7b65065ab","019cf037-5203-781a-b900-108ccb1cab86","","null","<div style=""background-color: white; width: 100vw; height: 100vh;""></div>","null","","","","","","","","",""
"","","","","","html-keyboard-response","80","424728","0.0-80.0","EE50FE4297774D8B955D4C33BA4B9BFE","019cf0cb-cb7d-7c17-b2fd-efe7b65065ab","019cf037-5203-781a-b900-108ccb1cab86","","null","
                <div class=""stimulus-container"">
                    <img src=""images/schematic_sequence/flight_scheme/flight_scheme_1.png"" class=""exp-image"">
                    <div class=""question-area""></div> 
                </div>","null","","","","","","","","",""
"","","","","","html-button-response","81","425305","0.0-81.0","EE50FE4297774D8B955D4C33BA4B9BFE","019cf0cb-cb7d-7c17-b2fd-efe7b65065ab","019cf037-5203-781a-b900-108ccb1cab86","","576","
                <div class=""stimulus-container"">
                    <img src=""images/schematic_sequence/flight_scheme/flight_scheme_1.png"" class=""exp-image"">
                    <div class=""question-area"">
                        <p style=""font-size: 20px; font-weight: bold; margin: 0;"">Is there a person in this image?</p>
                    </div>
                </div>","0","main_experiment_trial","1","flight_scheme","schematic_sequence","","","","",""
"","","","","","html-keyboard-response","82","430449","0.0-82.0","EE50FE4297774D8B955D4C33BA4B9BFE","019cf0cb-cb7d-7c17-b2fd-efe7b65065ab","019cf037-5203-781a-b900-108ccb1cab86","","null","
                <div class=""stimulus-container"">
                    <img src=""images/schematic_sequence/flight_scheme/flight_scheme_2.png"" class=""exp-image"">
                    <div class=""question-area""></div> 
                </div>","null","","","","","","","","",""
"","","","","","html-button-response","83","430958","0.0-83.0","EE50FE4297774D8B955D4C33BA4B9BFE","019cf0cb-cb7d-7c17-b2fd-efe7b65065ab","019cf037-5203-781a-b900-108ccb1cab86","","509","
                <div class=""stimulus-container"">
                    <img src=""images/schematic_sequence/flight_scheme/flight_scheme_2.png"" class=""exp-image"">
                    <div class=""question-area"">
                        <p style=""font-size: 20px; font-weight: bold; margin: 0;"">Is there a person in this image?</p>
                    </div>
                </div>","1","main_experiment_trial","2","flight_scheme","schematic_sequence","","","","",""
"","","","","","html-keyboard-response","84","435965","0.0-84.0","EE50FE4297774D8B955D4C33BA4B9BFE","019cf0cb-cb7d-7c17-b2fd-efe7b65065ab","019cf037-5203-781a-b900-108ccb1cab86","","null","
                <div class=""stimulus-container"">
                    <img src=""images/schematic_sequence/flight_scheme/flight_scheme_3.png"" class=""exp-image"">
                    <div class=""question-area""></div> 
                </div>","null","","","","","","","","",""
"","","","","","html-button-response","85","437345","0.0-85.0","EE50FE4297774D8B955D4C33BA4B9BFE","019cf0cb-cb7d-7c17-b2fd-efe7b65065ab","019cf037-5203-781a-b900-108ccb1cab86","","1379","
                <div class=""stimulus-container"">
                    <img src=""images/schematic_sequence/flight_scheme/flight_scheme_3.png"" class=""exp-image"">
                    <div class=""question-area"">
                        <p style=""font-size: 20px; font-weight: bold; margin: 0;"">Is there a person in this image?</p>
                    </div>
                </div>","0","main_experiment_trial","3","flight_scheme","schematic_sequence","","","","",""
"","","","","","html-keyboard-response","86","442537","0.0-86.0","EE50FE4297774D8B955D4C33BA4B9BFE","019cf0cb-cb7d-7c17-b2fd-efe7b65065ab","019cf037-5203-781a-b900-108ccb1cab86","","null","
                <div class=""stimulus-container"">
                    <img src=""images/schematic_sequence/flight_scheme/flight_scheme_4.png"" class=""exp-image"">
                    <div class=""question-area""></div> 
                </div>","null","","","","","","","","",""
"","","","","","html-button-response","87","443144","0.0-87.0","EE50FE4297774D8B955D4C33BA4B9BFE","019cf0cb-cb7d-7c17-b2fd-efe7b65065ab","019cf037-5203-781a-b900-108ccb1cab86","","607","
                <div class=""stimulus-container"">
                    <img src=""images/schematic_sequence/flight_scheme/flight_scheme_4.png"" class=""exp-image"">
                    <div class=""question-area"">
                        <p style=""font-size: 20px; font-weight: bold; margin: 0;"">Is there a person in this image?</p>
                    </div>
                </div>","0","main_experiment_trial","4","flight_scheme","schematic_sequence","","","","",""
"","","","","","html-keyboard-response","88","448148","0.0-88.0","EE50FE4297774D8B955D4C33BA4B9BFE","019cf0cb-cb7d-7c17-b2fd-efe7b65065ab","019cf037-5203-781a-b900-108ccb1cab86","","null","
                <div class=""stimulus-container"">
                    <img src=""images/schematic_sequence/flight_scheme/flight_scheme_5.png"" class=""exp-image"">
                    <div class=""question-area""></div> 
                </div>","null","","","","","","","","",""
"","","","","","html-button-response","89","449041","0.0-89.0","EE50FE4297774D8B955D4C33BA4B9BFE","019cf0cb-cb7d-7c17-b2fd-efe7b65065ab","019cf037-5203-781a-b900-108ccb1cab86","","893","
                <div class=""stimulus-container"">
                    <img src=""images/schematic_sequence/flight_scheme/flight_scheme_5.png"" class=""exp-image"">
                    <div class=""question-area"">
                        <p style=""font-size: 20px; font-weight: bold; margin: 0;"">Is there a person in this image?</p>
                    </div>
                </div>","0","main_experiment_trial","5","flight_scheme","schematic_sequence","","","","",""
"","","","","","html-keyboard-response","90","454046","0.0-90.0","EE50FE4297774D8B955D4C33BA4B9BFE","019cf0cb-cb7d-7c17-b2fd-efe7b65065ab","019cf037-5203-781a-b900-108ccb1cab86","","null","
                <div class=""stimulus-container"">
                    <img src=""images/schematic_sequence/flight_scheme/flight_scheme_6.png"" class=""exp-image"">
                    <div class=""question-area""></div> 
                </div>","null","","","","","","","","",""
"","","","","","html-button-response","91","454547","0.0-91.0","EE50FE4297774D8B955D4C33BA4B9BFE","019cf0cb-cb7d-7c17-b2fd-efe7b65065ab","019cf037-5203-781a-b900-108ccb1cab86","","500","
                <div class=""stimulus-container"">
                    <img src=""images/schematic_sequence/flight_scheme/flight_scheme_6.png"" class=""exp-image"">
                    <div class=""question-area"">
                        <p style=""font-size: 20px; font-weight: bold; margin: 0;"">Is there a person in this image?</p>
                    </div>
                </div>","1","main_experiment_trial","6","flight_scheme","schematic_sequence","","","","",""
"","","","","","html-keyboard-response","92","459553","0.0-92.0","EE50FE4297774D8B955D4C33BA4B9BFE","019cf0cb-cb7d-7c17-b2fd-efe7b65065ab","019cf037-5203-781a-b900-108ccb1cab86","","null","
                <div class=""stimulus-container"">
                    <img src=""images/schematic_sequence/flight_scheme/flight_scheme_7.png"" class=""exp-image"">
                    <div class=""question-area""></div> 
                </div>","null","","","","","","","","",""
"","","","","","html-button-response","93","460189","0.0-93.0","EE50FE4297774D8B955D4C33BA4B9BFE","019cf0cb-cb7d-7c17-b2fd-efe7b65065ab","019cf037-5203-781a-b900-108ccb1cab86","","634","
                <div class=""stimulus-container"">
                    <img src=""images/schematic_sequence/flight_scheme/flight_scheme_7.png"" class=""exp-image"">
                    <div class=""question-area"">
                        <p style=""font-size: 20px; font-weight: bold; margin: 0;"">Is there a person in this image?</p>
                    </div>
                </div>","1","main_experiment_trial","7","flight_scheme","schematic_sequence","","","","",""
"","","","","","html-keyboard-response","94","465193","0.0-94.0","EE50FE4297774D8B955D4C33BA4B9BFE","019cf0cb-cb7d-7c17-b2fd-efe7b65065ab","019cf037-5203-781a-b900-108ccb1cab86","","null","
                <div class=""stimulus-container"">
                    <img src=""images/schematic_sequence/flight_scheme/flight_scheme_8.png"" class=""exp-image"">
                    <div class=""question-area""></div> 
                </div>","null","","","","","","","","",""
"","","","","","html-button-response","95","466048","0.0-95.0","EE50FE4297774D8B955D4C33BA4B9BFE","019cf0cb-cb7d-7c17-b2fd-efe7b65065ab","019cf037-5203-781a-b900-108ccb1cab86","","853","
                <div class=""stimulus-container"">
                    <img src=""images/schematic_sequence/flight_scheme/flight_scheme_8.png"" class=""exp-image"">
                    <div class=""question-area"">
                        <p style=""font-size: 20px; font-weight: bold; margin: 0;"">Is there a person in this image?</p>
                    </div>
                </div>","1","main_experiment_trial","8","flight_scheme","schematic_sequence","","","","",""
"","","","","","html-keyboard-response","96","471148","0.0-96.0","EE50FE4297774D8B955D4C33BA4B9BFE","019cf0cb-cb7d-7c17-b2fd-efe7b65065ab","019cf037-5203-781a-b900-108ccb1cab86","","null","
                <div class=""stimulus-container"">
                    <img src=""images/schematic_sequence/flight_scheme/flight_scheme_9.png"" class=""exp-image"">
                    <div class=""question-area""></div> 
                </div>","null","","","","","","","","",""
"","","","","","html-button-response","97","471729","0.0-97.0","EE50FE4297774D8B955D4C33BA4B9BFE","019cf0cb-cb7d-7c17-b2fd-efe7b65065ab","019cf037-5203-781a-b900-108ccb1cab86","","580","
                <div class=""stimulus-container"">
                    <img src=""images/schematic_sequence/flight_scheme/flight_scheme_9.png"" class=""exp-image"">
                    <div class=""question-area"">
                        <p style=""font-size: 20px; font-weight: bold; margin: 0;"">Is there a person in this image?</p>
                    </div>
                </div>","0","main_experiment_trial","9","flight_scheme","schematic_sequence","","","","",""
"","","","","","html-keyboard-response","98","476736","0.0-98.0","EE50FE4297774D8B955D4C33BA4B9BFE","019cf0cb-cb7d-7c17-b2fd-efe7b65065ab","019cf037-5203-781a-b900-108ccb1cab86","","null","
                <div class=""stimulus-container"">
                    <img src=""images/schematic_sequence/flight_scheme/flight_scheme_ten.png"" class=""exp-image"">
                    <div class=""question-area""></div> 
                </div>","null","","","","","","","","",""
"","","","","","html-button-response","99","477340","0.0-99.0","EE50FE4297774D8B955D4C33BA4B9BFE","019cf0cb-cb7d-7c17-b2fd-efe7b65065ab","019cf037-5203-781a-b900-108ccb1cab86","","605","
                <div class=""stimulus-container"">
                    <img src=""images/schematic_sequence/flight_scheme/flight_scheme_ten.png"" class=""exp-image"">
                    <div class=""question-area"">
                        <p style=""font-size: 20px; font-weight: bold; margin: 0;"">Is there a person in this image?</p>
                    </div>
                </div>","0","main_experiment_trial","ten","flight_scheme","schematic_sequence","","","","",""
"","","","","","html-keyboard-response","100","478346","0.0-100.0","EE50FE4297774D8B955D4C33BA4B9BFE","019cf0cb-cb7d-7c17-b2fd-efe7b65065ab","019cf037-5203-781a-b900-108ccb1cab86","","null","<div style=""background-color: white; width: 100vw; height: 100vh;""></div>","null","","","","","","","","",""
"","","","","","html-keyboard-response","101","483378","0.0-101.0","EE50FE4297774D8B955D4C33BA4B9BFE","019cf0cb-cb7d-7c17-b2fd-efe7b65065ab","019cf037-5203-781a-b900-108ccb1cab86","","null","
                <div class=""stimulus-container"">
                    <img src=""images/schematic_sequence/hotel_scheme/hotel_scheme_1.png"" class=""exp-image"">
                    <div class=""question-area""></div> 
                </div>","null","","","","","","","","",""
"","","","","","html-button-response","102","483960","0.0-102.0","EE50FE4297774D8B955D4C33BA4B9BFE","019cf0cb-cb7d-7c17-b2fd-efe7b65065ab","019cf037-5203-781a-b900-108ccb1cab86","","581","
                <div class=""stimulus-container"">
                    <img src=""images/schematic_sequence/hotel_scheme/hotel_scheme_1.png"" class=""exp-image"">
                    <div class=""question-area"">
                        <p style=""font-size: 20px; font-weight: bold; margin: 0;"">Is there a person in this image?</p>
                    </div>
                </div>","1","main_experiment_trial","1","hotel_scheme","schematic_sequence","","","","",""
"","","","","","html-keyboard-response","103","488964","0.0-103.0","EE50FE4297774D8B955D4C33BA4B9BFE","019cf0cb-cb7d-7c17-b2fd-efe7b65065ab","019cf037-5203-781a-b900-108ccb1cab86","","null","
                <div class=""stimulus-container"">
                    <img src=""images/schematic_sequence/hotel_scheme/hotel_scheme_2.png"" class=""exp-image"">
                    <div class=""question-area""></div> 
                </div>","null","","","","","","","","",""
"","","","","","html-button-response","104","489603","0.0-104.0","EE50FE4297774D8B955D4C33BA4B9BFE","019cf0cb-cb7d-7c17-b2fd-efe7b65065ab","019cf037-5203-781a-b900-108ccb1cab86","","639","
                <div class=""stimulus-container"">
                    <img src=""images/schematic_sequence/hotel_scheme/hotel_scheme_2.png"" class=""exp-image"">
                    <div class=""question-area"">
                        <p style=""font-size: 20px; font-weight: bold; margin: 0;"">Is there a person in this image?</p>
                    </div>
                </div>","0","main_experiment_trial","2","hotel_scheme","schematic_sequence","","","","",""
"","","","","","html-keyboard-response","105","494609","0.0-105.0","EE50FE4297774D8B955D4C33BA4B9BFE","019cf0cb-cb7d-7c17-b2fd-efe7b65065ab","019cf037-5203-781a-b900-108ccb1cab86","","null","
                <div class=""stimulus-container"">
                    <img src=""images/schematic_sequence/hotel_scheme/hotel_scheme_3.png"" class=""exp-image"">
                    <div class=""question-area""></div> 
                </div>","null","","","","","","","","",""
"","","","","","html-button-response","106","495190","0.0-106.0","EE50FE4297774D8B955D4C33BA4B9BFE","019cf0cb-cb7d-7c17-b2fd-efe7b65065ab","019cf037-5203-781a-b900-108ccb1cab86","","580","
                <div class=""stimulus-container"">
                    <img src=""images/schematic_sequence/hotel_scheme/hotel_scheme_3.png"" class=""exp-image"">
                    <div class=""question-area"">
                        <p style=""font-size: 20px; font-weight: bold; margin: 0;"">Is there a person in this image?</p>
                    </div>
                </div>","0","main_experiment_trial","3","hotel_scheme","schematic_sequence","","","","",""
"","","","","","html-keyboard-response","107","500192","0.0-107.0","EE50FE4297774D8B955D4C33BA4B9BFE","019cf0cb-cb7d-7c17-b2fd-efe7b65065ab","019cf037-5203-781a-b900-108ccb1cab86","","null","
                <div class=""stimulus-container"">
                    <img src=""images/schematic_sequence/hotel_scheme/hotel_scheme_4.png"" class=""exp-image"">
                    <div class=""question-area""></div> 
                </div>","null","","","","","","","","",""
"","","","","","html-button-response","108","500767","0.0-108.0","EE50FE4297774D8B955D4C33BA4B9BFE","019cf0cb-cb7d-7c17-b2fd-efe7b65065ab","019cf037-5203-781a-b900-108ccb1cab86","","574","
                <div class=""stimulus-container"">
                    <img src=""images/schematic_sequence/hotel_scheme/hotel_scheme_4.png"" class=""exp-image"">
                    <div class=""question-area"">
                        <p style=""font-size: 20px; font-weight: bold; margin: 0;"">Is there a person in this image?</p>
                    </div>
                </div>","1","main_experiment_trial","4","hotel_scheme","schematic_sequence","","","","",""
"","","","","","html-keyboard-response","109","505773","0.0-109.0","EE50FE4297774D8B955D4C33BA4B9BFE","019cf0cb-cb7d-7c17-b2fd-efe7b65065ab","019cf037-5203-781a-b900-108ccb1cab86","","null","
                <div class=""stimulus-container"">
                    <img src=""images/schematic_sequence/hotel_scheme/hotel_scheme_5.png"" class=""exp-image"">
                    <div class=""question-area""></div> 
                </div>","null","","","","","","","","",""
"","","","","","html-button-response","110","506342","0.0-110.0","EE50FE4297774D8B955D4C33BA4B9BFE","019cf0cb-cb7d-7c17-b2fd-efe7b65065ab","019cf037-5203-781a-b900-108ccb1cab86","","569","
                <div class=""stimulus-container"">
                    <img src=""images/schematic_sequence/hotel_scheme/hotel_scheme_5.png"" class=""exp-image"">
                    <div class=""question-area"">
                        <p style=""font-size: 20px; font-weight: bold; margin: 0;"">Is there a person in this image?</p>
                    </div>
                </div>","0","main_experiment_trial","5","hotel_scheme","schematic_sequence","","","","",""
"","","","","","html-keyboard-response","111","511349","0.0-111.0","EE50FE4297774D8B955D4C33BA4B9BFE","019cf0cb-cb7d-7c17-b2fd-efe7b65065ab","019cf037-5203-781a-b900-108ccb1cab86","","null","
                <div class=""stimulus-container"">
                    <img src=""images/schematic_sequence/hotel_scheme/hotel_scheme_6.png"" class=""exp-image"">
                    <div class=""question-area""></div> 
                </div>","null","","","","","","","","",""
"","","","","","html-button-response","112","512043","0.0-112.0","EE50FE4297774D8B955D4C33BA4B9BFE","019cf0cb-cb7d-7c17-b2fd-efe7b65065ab","019cf037-5203-781a-b900-108ccb1cab86","","693","
                <div class=""stimulus-container"">
                    <img src=""images/schematic_sequence/hotel_scheme/hotel_scheme_6.png"" class=""exp-image"">
                    <div class=""question-area"">
                        <p style=""font-size: 20px; font-weight: bold; margin: 0;"">Is there a person in this image?</p>
                    </div>
                </div>","0","main_experiment_trial","6","hotel_scheme","schematic_sequence","","","","",""
"","","","","","html-keyboard-response","113","517050","0.0-113.0","EE50FE4297774D8B955D4C33BA4B9BFE","019cf0cb-cb7d-7c17-b2fd-efe7b65065ab","019cf037-5203-781a-b900-108ccb1cab86","","null","
                <div class=""stimulus-container"">
                    <img src=""images/schematic_sequence/hotel_scheme/hotel_scheme_7.png"" class=""exp-image"">
                    <div class=""question-area""></div> 
                </div>","null","","","","","","","","",""
"","","","","","html-button-response","114","517849","0.0-114.0","EE50FE4297774D8B955D4C33BA4B9BFE","019cf0cb-cb7d-7c17-b2fd-efe7b65065ab","019cf037-5203-781a-b900-108ccb1cab86","","799","
                <div class=""stimulus-container"">
                    <img src=""images/schematic_sequence/hotel_scheme/hotel_scheme_7.png"" class=""exp-image"">
                    <div class=""question-area"">
                        <p style=""font-size: 20px; font-weight: bold; margin: 0;"">Is there a person in this image?</p>
                    </div>
                </div>","0","main_experiment_trial","7","hotel_scheme","schematic_sequence","","","","",""
"","","","","","html-keyboard-response","115","522856","0.0-115.0","EE50FE4297774D8B955D4C33BA4B9BFE","019cf0cb-cb7d-7c17-b2fd-efe7b65065ab","019cf037-5203-781a-b900-108ccb1cab86","","null","
                <div class=""stimulus-container"">
                    <img src=""images/schematic_sequence/hotel_scheme/hotel_scheme_8.png"" class=""exp-image"">
                    <div class=""question-area""></div> 
                </div>","null","","","","","","","","",""
"","","","","","html-button-response","116","523899","0.0-116.0","EE50FE4297774D8B955D4C33BA4B9BFE","019cf0cb-cb7d-7c17-b2fd-efe7b65065ab","019cf037-5203-781a-b900-108ccb1cab86","","1043","
                <div class=""stimulus-container"">
                    <img src=""images/schematic_sequence/hotel_scheme/hotel_scheme_8.png"" class=""exp-image"">
                    <div class=""question-area"">
                        <p style=""font-size: 20px; font-weight: bold; margin: 0;"">Is there a person in this image?</p>
                    </div>
                </div>","0","main_experiment_trial","8","hotel_scheme","schematic_sequence","","","","",""
"","","","","","html-keyboard-response","117","528906","0.0-117.0","EE50FE4297774D8B955D4C33BA4B9BFE","019cf0cb-cb7d-7c17-b2fd-efe7b65065ab","019cf037-5203-781a-b900-108ccb1cab86","","null","
                <div class=""stimulus-container"">
                    <img src=""images/schematic_sequence/hotel_scheme/hotel_scheme_9.png"" class=""exp-image"">
                    <div class=""question-area""></div> 
                </div>","null","","","","","","","","",""
"","","","","","html-button-response","118","529616","0.0-118.0","EE50FE4297774D8B955D4C33BA4B9BFE","019cf0cb-cb7d-7c17-b2fd-efe7b65065ab","019cf037-5203-781a-b900-108ccb1cab86","","709","
                <div class=""stimulus-container"">
                    <img src=""images/schematic_sequence/hotel_scheme/hotel_scheme_9.png"" class=""exp-image"">
                    <div class=""question-area"">
                        <p style=""font-size: 20px; font-weight: bold; margin: 0;"">Is there a person in this image?</p>
                    </div>
                </div>","0","main_experiment_trial","9","hotel_scheme","schematic_sequence","","","","",""
"","","","","","html-keyboard-response","119","534868","0.0-119.0","EE50FE4297774D8B955D4C33BA4B9BFE","019cf0cb-cb7d-7c17-b2fd-efe7b65065ab","019cf037-5203-781a-b900-108ccb1cab86","","null","
                <div class=""stimulus-container"">
                    <img src=""images/schematic_sequence/hotel_scheme/hotel_scheme_ten.png"" class=""exp-image"">
                    <div class=""question-area""></div> 
                </div>","null","","","","","","","","",""
"","","","","","html-button-response","120","535414","0.0-120.0","EE50FE4297774D8B955D4C33BA4B9BFE","019cf0cb-cb7d-7c17-b2fd-efe7b65065ab","019cf037-5203-781a-b900-108ccb1cab86","","546","
                <div class=""stimulus-container"">
                    <img src=""images/schematic_sequence/hotel_scheme/hotel_scheme_ten.png"" class=""exp-image"">
                    <div class=""question-area"">
                        <p style=""font-size: 20px; font-weight: bold; margin: 0;"">Is there a person in this image?</p>
                    </div>
                </div>","0","main_experiment_trial","ten","hotel_scheme","schematic_sequence","","","","",""
"","","","","","html-keyboard-response","121","536419","0.0-121.0","EE50FE4297774D8B955D4C33BA4B9BFE","019cf0cb-cb7d-7c17-b2fd-efe7b65065ab","019cf037-5203-781a-b900-108ccb1cab86","","null","<div style=""background-color: white; width: 100vw; height: 100vh;""></div>","null","","","","","","","","",""
"","","","","","html-keyboard-response","122","541878","0.0-122.0","EE50FE4297774D8B955D4C33BA4B9BFE","019cf0cb-cb7d-7c17-b2fd-efe7b65065ab","019cf037-5203-781a-b900-108ccb1cab86","","null","
                <div class=""stimulus-container"">
                    <img src=""images/causal_sequence/the_performance_causal/the_performance_causal_1.png"" class=""exp-image"">
                    <div class=""question-area""></div> 
                </div>","null","","","","","","","","",""
"","","","","","html-button-response","123","542460","0.0-123.0","EE50FE4297774D8B955D4C33BA4B9BFE","019cf0cb-cb7d-7c17-b2fd-efe7b65065ab","019cf037-5203-781a-b900-108ccb1cab86","","582","
                <div class=""stimulus-container"">
                    <img src=""images/causal_sequence/the_performance_causal/the_performance_causal_1.png"" class=""exp-image"">
                    <div class=""question-area"">
                        <p style=""font-size: 20px; font-weight: bold; margin: 0;"">Is there a person in this image?</p>
                    </div>
                </div>","0","main_experiment_trial","1","the_performance_causal","causal_sequence","","","","",""
"","","","","","html-keyboard-response","124","547467","0.0-124.0","EE50FE4297774D8B955D4C33BA4B9BFE","019cf0cb-cb7d-7c17-b2fd-efe7b65065ab","019cf037-5203-781a-b900-108ccb1cab86","","null","
                <div class=""stimulus-container"">
                    <img src=""images/causal_sequence/the_performance_causal/the_performance_causal_2.png"" class=""exp-image"">
                    <div class=""question-area""></div> 
                </div>","null","","","","","","","","",""
"","","","","","html-button-response","125","548194","0.0-125.0","EE50FE4297774D8B955D4C33BA4B9BFE","019cf0cb-cb7d-7c17-b2fd-efe7b65065ab","019cf037-5203-781a-b900-108ccb1cab86","","725","
                <div class=""stimulus-container"">
                    <img src=""images/causal_sequence/the_performance_causal/the_performance_causal_2.png"" class=""exp-image"">
                    <div class=""question-area"">
                        <p style=""font-size: 20px; font-weight: bold; margin: 0;"">Is there a person in this image?</p>
                    </div>
                </div>","0","main_experiment_trial","2","the_performance_causal","causal_sequence","","","","",""
"","","","","","html-keyboard-response","126","553197","0.0-126.0","EE50FE4297774D8B955D4C33BA4B9BFE","019cf0cb-cb7d-7c17-b2fd-efe7b65065ab","019cf037-5203-781a-b900-108ccb1cab86","","null","
                <div class=""stimulus-container"">
                    <img src=""images/causal_sequence/the_performance_causal/the_performance_causal_3.png"" class=""exp-image"">
                    <div class=""question-area""></div> 
                </div>","null","","","","","","","","",""
"","","","","","html-button-response","127","553798","0.0-127.0","EE50FE4297774D8B955D4C33BA4B9BFE","019cf0cb-cb7d-7c17-b2fd-efe7b65065ab","019cf037-5203-781a-b900-108ccb1cab86","","601","
                <div class=""stimulus-container"">
                    <img src=""images/causal_sequence/the_performance_causal/the_performance_causal_3.png"" class=""exp-image"">
                    <div class=""question-area"">
                        <p style=""font-size: 20px; font-weight: bold; margin: 0;"">Is there a person in this image?</p>
                    </div>
                </div>","0","main_experiment_trial","3","the_performance_causal","causal_sequence","","","","",""
"","","","","","html-keyboard-response","128","558800","0.0-128.0","EE50FE4297774D8B955D4C33BA4B9BFE","019cf0cb-cb7d-7c17-b2fd-efe7b65065ab","019cf037-5203-781a-b900-108ccb1cab86","","null","
                <div class=""stimulus-container"">
                    <img src=""images/causal_sequence/the_performance_causal/the_performance_causal_4.png"" class=""exp-image"">
                    <div class=""question-area""></div> 
                </div>","null","","","","","","","","",""
"","","","","","html-button-response","129","560034","0.0-129.0","EE50FE4297774D8B955D4C33BA4B9BFE","019cf0cb-cb7d-7c17-b2fd-efe7b65065ab","019cf037-5203-781a-b900-108ccb1cab86","","1233","
                <div class=""stimulus-container"">
                    <img src=""images/causal_sequence/the_performance_causal/the_performance_causal_4.png"" class=""exp-image"">
                    <div class=""question-area"">
                        <p style=""font-size: 20px; font-weight: bold; margin: 0;"">Is there a person in this image?</p>
                    </div>
                </div>","0","main_experiment_trial","4","the_performance_causal","causal_sequence","","","","",""
"","","","","","html-keyboard-response","130","565036","0.0-130.0","EE50FE4297774D8B955D4C33BA4B9BFE","019cf0cb-cb7d-7c17-b2fd-efe7b65065ab","019cf037-5203-781a-b900-108ccb1cab86","","null","
                <div class=""stimulus-container"">
                    <img src=""images/causal_sequence/the_performance_causal/the_performance_causal_5.png"" class=""exp-image"">
                    <div class=""question-area""></div> 
                </div>","null","","","","","","","","",""
"","","","","","html-button-response","131","565777","0.0-131.0","EE50FE4297774D8B955D4C33BA4B9BFE","019cf0cb-cb7d-7c17-b2fd-efe7b65065ab","019cf037-5203-781a-b900-108ccb1cab86","","741","
                <div class=""stimulus-container"">
                    <img src=""images/causal_sequence/the_performance_causal/the_performance_causal_5.png"" class=""exp-image"">
                    <div class=""question-area"">
                        <p style=""font-size: 20px; font-weight: bold; margin: 0;"">Is there a person in this image?</p>
                    </div>
                </div>","0","main_experiment_trial","5","the_performance_causal","causal_sequence","","","","",""
"","","","","","html-keyboard-response","132","570793","0.0-132.0","EE50FE4297774D8B955D4C33BA4B9BFE","019cf0cb-cb7d-7c17-b2fd-efe7b65065ab","019cf037-5203-781a-b900-108ccb1cab86","","null","
                <div class=""stimulus-container"">
                    <img src=""images/causal_sequence/the_performance_causal/the_performance_causal_6.png"" class=""exp-image"">
                    <div class=""question-area""></div> 
                </div>","null","","","","","","","","",""
"","","","","","html-button-response","133","571470","0.0-133.0","EE50FE4297774D8B955D4C33BA4B9BFE","019cf0cb-cb7d-7c17-b2fd-efe7b65065ab","019cf037-5203-781a-b900-108ccb1cab86","","675","
                <div class=""stimulus-container"">
                    <img src=""images/causal_sequence/the_performance_causal/the_performance_causal_6.png"" class=""exp-image"">
                    <div class=""question-area"">
                        <p style=""font-size: 20px; font-weight: bold; margin: 0;"">Is there a person in this image?</p>
                    </div>
                </div>","0","main_experiment_trial","6","the_performance_causal","causal_sequence","","","","",""
"","","","","","html-keyboard-response","134","576476","0.0-134.0","EE50FE4297774D8B955D4C33BA4B9BFE","019cf0cb-cb7d-7c17-b2fd-efe7b65065ab","019cf037-5203-781a-b900-108ccb1cab86","","null","
                <div class=""stimulus-container"">
                    <img src=""images/causal_sequence/the_performance_causal/the_performance_causal_7.png"" class=""exp-image"">
                    <div class=""question-area""></div> 
                </div>","null","","","","","","","","",""
"","","","","","html-button-response","135","577220","0.0-135.0","EE50FE4297774D8B955D4C33BA4B9BFE","019cf0cb-cb7d-7c17-b2fd-efe7b65065ab","019cf037-5203-781a-b900-108ccb1cab86","","742","
                <div class=""stimulus-container"">
                    <img src=""images/causal_sequence/the_performance_causal/the_performance_causal_7.png"" class=""exp-image"">
                    <div class=""question-area"">
                        <p style=""font-size: 20px; font-weight: bold; margin: 0;"">Is there a person in this image?</p>
                    </div>
                </div>","0","main_experiment_trial","7","the_performance_causal","causal_sequence","","","","",""
"","","","","","html-keyboard-response","136","582227","0.0-136.0","EE50FE4297774D8B955D4C33BA4B9BFE","019cf0cb-cb7d-7c17-b2fd-efe7b65065ab","019cf037-5203-781a-b900-108ccb1cab86","","null","
                <div class=""stimulus-container"">
                    <img src=""images/causal_sequence/the_performance_causal/the_performance_causal_8.png"" class=""exp-image"">
                    <div class=""question-area""></div> 
                </div>","null","","","","","","","","",""
"","","","","","html-button-response","137","582904","0.0-137.0","EE50FE4297774D8B955D4C33BA4B9BFE","019cf0cb-cb7d-7c17-b2fd-efe7b65065ab","019cf037-5203-781a-b900-108ccb1cab86","","677","
                <div class=""stimulus-container"">
                    <img src=""images/causal_sequence/the_performance_causal/the_performance_causal_8.png"" class=""exp-image"">
                    <div class=""question-area"">
                        <p style=""font-size: 20px; font-weight: bold; margin: 0;"">Is there a person in this image?</p>
                    </div>
                </div>","0","main_experiment_trial","8","the_performance_causal","causal_sequence","","","","",""
"","","","","","html-keyboard-response","138","587907","0.0-138.0","EE50FE4297774D8B955D4C33BA4B9BFE","019cf0cb-cb7d-7c17-b2fd-efe7b65065ab","019cf037-5203-781a-b900-108ccb1cab86","","null","
                <div class=""stimulus-container"">
                    <img src=""images/causal_sequence/the_performance_causal/the_performance_causal_9.png"" class=""exp-image"">
                    <div class=""question-area""></div> 
                </div>","null","","","","","","","","",""
"","","","","","html-button-response","139","588460","0.0-139.0","EE50FE4297774D8B955D4C33BA4B9BFE","019cf0cb-cb7d-7c17-b2fd-efe7b65065ab","019cf037-5203-781a-b900-108ccb1cab86","","552","
                <div class=""stimulus-container"">
                    <img src=""images/causal_sequence/the_performance_causal/the_performance_causal_9.png"" class=""exp-image"">
                    <div class=""question-area"">
                        <p style=""font-size: 20px; font-weight: bold; margin: 0;"">Is there a person in this image?</p>
                    </div>
                </div>","0","main_experiment_trial","9","the_performance_causal","causal_sequence","","","","",""
"","","","","","html-keyboard-response","140","593466","0.0-140.0","EE50FE4297774D8B955D4C33BA4B9BFE","019cf0cb-cb7d-7c17-b2fd-efe7b65065ab","019cf037-5203-781a-b900-108ccb1cab86","","null","
                <div class=""stimulus-container"">
                    <img src=""images/causal_sequence/the_performance_causal/the_performance_causal_ten.png"" class=""exp-image"">
                    <div class=""question-area""></div> 
                </div>","null","","","","","","","","",""
"","","","","","html-button-response","141","594005","0.0-141.0","EE50FE4297774D8B955D4C33BA4B9BFE","019cf0cb-cb7d-7c17-b2fd-efe7b65065ab","019cf037-5203-781a-b900-108ccb1cab86","","538","
                <div class=""stimulus-container"">
                    <img src=""images/causal_sequence/the_performance_causal/the_performance_causal_ten.png"" class=""exp-image"">
                    <div class=""question-area"">
                        <p style=""font-size: 20px; font-weight: bold; margin: 0;"">Is there a person in this image?</p>
                    </div>
                </div>","0","main_experiment_trial","ten","the_performance_causal","causal_sequence","","","","",""
"","","","","","html-keyboard-response","142","595012","0.0-142.0","EE50FE4297774D8B955D4C33BA4B9BFE","019cf0cb-cb7d-7c17-b2fd-efe7b65065ab","019cf037-5203-781a-b900-108ccb1cab86","","null","<div style=""background-color: white; width: 100vw; height: 100vh;""></div>","null","","","","","","","","",""
"","","","","","html-keyboard-response","143","600019","0.0-143.0","EE50FE4297774D8B955D4C33BA4B9BFE","019cf0cb-cb7d-7c17-b2fd-efe7b65065ab","019cf037-5203-781a-b900-108ccb1cab86","","null","
                <div class=""stimulus-container"">
                    <img src=""images/schematic_sequence/interview_scheme/interview_scheme_1.png"" class=""exp-image"">
                    <div class=""question-area""></div> 
                </div>","null","","","","","","","","",""
"","","","","","html-button-response","144","600804","0.0-144.0","EE50FE4297774D8B955D4C33BA4B9BFE","019cf0cb-cb7d-7c17-b2fd-efe7b65065ab","019cf037-5203-781a-b900-108ccb1cab86","","786","
                <div class=""stimulus-container"">
                    <img src=""images/schematic_sequence/interview_scheme/interview_scheme_1.png"" class=""exp-image"">
                    <div class=""question-area"">
                        <p style=""font-size: 20px; font-weight: bold; margin: 0;"">Is there a person in this image?</p>
                    </div>
                </div>","1","main_experiment_trial","1","interview_scheme","schematic_sequence","","","","",""
"","","","","","html-keyboard-response","145","605867","0.0-145.0","EE50FE4297774D8B955D4C33BA4B9BFE","019cf0cb-cb7d-7c17-b2fd-efe7b65065ab","019cf037-5203-781a-b900-108ccb1cab86","","null","
                <div class=""stimulus-container"">
                    <img src=""images/schematic_sequence/interview_scheme/interview_scheme_2.png"" class=""exp-image"">
                    <div class=""question-area""></div> 
                </div>","null","","","","","","","","",""
"","","","","","html-button-response","146","606373","0.0-146.0","EE50FE4297774D8B955D4C33BA4B9BFE","019cf0cb-cb7d-7c17-b2fd-efe7b65065ab","019cf037-5203-781a-b900-108ccb1cab86","","505","
                <div class=""stimulus-container"">
                    <img src=""images/schematic_sequence/interview_scheme/interview_scheme_2.png"" class=""exp-image"">
                    <div class=""question-area"">
                        <p style=""font-size: 20px; font-weight: bold; margin: 0;"">Is there a person in this image?</p>
                    </div>
                </div>","1","main_experiment_trial","2","interview_scheme","schematic_sequence","","","","",""
"","","","","","html-keyboard-response","147","611380","0.0-147.0","EE50FE4297774D8B955D4C33BA4B9BFE","019cf0cb-cb7d-7c17-b2fd-efe7b65065ab","019cf037-5203-781a-b900-108ccb1cab86","","null","
                <div class=""stimulus-container"">
                    <img src=""images/schematic_sequence/interview_scheme/interview_scheme_3.png"" class=""exp-image"">
                    <div class=""question-area""></div> 
                </div>","null","","","","","","","","",""
"","","","","","html-button-response","148","612058","0.0-148.0","EE50FE4297774D8B955D4C33BA4B9BFE","019cf0cb-cb7d-7c17-b2fd-efe7b65065ab","019cf037-5203-781a-b900-108ccb1cab86","","676","
                <div class=""stimulus-container"">
                    <img src=""images/schematic_sequence/interview_scheme/interview_scheme_3.png"" class=""exp-image"">
                    <div class=""question-area"">
                        <p style=""font-size: 20px; font-weight: bold; margin: 0;"">Is there a person in this image?</p>
                    </div>
                </div>","1","main_experiment_trial","3","interview_scheme","schematic_sequence","","","","",""
"","","","","","html-keyboard-response","149","617060","0.0-149.0","EE50FE4297774D8B955D4C33BA4B9BFE","019cf0cb-cb7d-7c17-b2fd-efe7b65065ab","019cf037-5203-781a-b900-108ccb1cab86","","null","
                <div class=""stimulus-container"">
                    <img src=""images/schematic_sequence/interview_scheme/interview_scheme_4.png"" class=""exp-image"">
                    <div class=""question-area""></div> 
                </div>","null","","","","","","","","",""
"","","","","","html-button-response","150","617597","0.0-150.0","EE50FE4297774D8B955D4C33BA4B9BFE","019cf0cb-cb7d-7c17-b2fd-efe7b65065ab","019cf037-5203-781a-b900-108ccb1cab86","","536","
                <div class=""stimulus-container"">
                    <img src=""images/schematic_sequence/interview_scheme/interview_scheme_4.png"" class=""exp-image"">
                    <div class=""question-area"">
                        <p style=""font-size: 20px; font-weight: bold; margin: 0;"">Is there a person in this image?</p>
                    </div>
                </div>","1","main_experiment_trial","4","interview_scheme","schematic_sequence","","","","",""
"","","","","","html-keyboard-response","151","622912","0.0-151.0","EE50FE4297774D8B955D4C33BA4B9BFE","019cf0cb-cb7d-7c17-b2fd-efe7b65065ab","019cf037-5203-781a-b900-108ccb1cab86","","null","
                <div class=""stimulus-container"">
                    <img src=""images/schematic_sequence/interview_scheme/interview_scheme_5.png"" class=""exp-image"">
                    <div class=""question-area""></div> 
                </div>","null","","","","","","","","",""
"","","","","","html-button-response","152","623811","0.0-152.0","EE50FE4297774D8B955D4C33BA4B9BFE","019cf0cb-cb7d-7c17-b2fd-efe7b65065ab","019cf037-5203-781a-b900-108ccb1cab86","","897","
                <div class=""stimulus-container"">
                    <img src=""images/schematic_sequence/interview_scheme/interview_scheme_5.png"" class=""exp-image"">
                    <div class=""question-area"">
                        <p style=""font-size: 20px; font-weight: bold; margin: 0;"">Is there a person in this image?</p>
                    </div>
                </div>","0","main_experiment_trial","5","interview_scheme","schematic_sequence","","","","",""
"","","","","","html-keyboard-response","153","628817","0.0-153.0","EE50FE4297774D8B955D4C33BA4B9BFE","019cf0cb-cb7d-7c17-b2fd-efe7b65065ab","019cf037-5203-781a-b900-108ccb1cab86","","null","
                <div class=""stimulus-container"">
                    <img src=""images/schematic_sequence/interview_scheme/interview_scheme_6.png"" class=""exp-image"">
                    <div class=""question-area""></div> 
                </div>","null","","","","","","","","",""
"","","","","","html-button-response","154","629442","0.0-154.0","EE50FE4297774D8B955D4C33BA4B9BFE","019cf0cb-cb7d-7c17-b2fd-efe7b65065ab","019cf037-5203-781a-b900-108ccb1cab86","","624","
                <div class=""stimulus-container"">
                    <img src=""images/schematic_sequence/interview_scheme/interview_scheme_6.png"" class=""exp-image"">
                    <div class=""question-area"">
                        <p style=""font-size: 20px; font-weight: bold; margin: 0;"">Is there a person in this image?</p>
                    </div>
                </div>","0","main_experiment_trial","6","interview_scheme","schematic_sequence","","","","",""
"","","","","","html-keyboard-response","155","634449","0.0-155.0","EE50FE4297774D8B955D4C33BA4B9BFE","019cf0cb-cb7d-7c17-b2fd-efe7b65065ab","019cf037-5203-781a-b900-108ccb1cab86","","null","
                <div class=""stimulus-container"">
                    <img src=""images/schematic_sequence/interview_scheme/interview_scheme_7.png"" class=""exp-image"">
                    <div class=""question-area""></div> 
                </div>","null","","","","","","","","",""
"","","","","","html-button-response","156","635881","0.0-156.0","EE50FE4297774D8B955D4C33BA4B9BFE","019cf0cb-cb7d-7c17-b2fd-efe7b65065ab","019cf037-5203-781a-b900-108ccb1cab86","","1431","
                <div class=""stimulus-container"">
                    <img src=""images/schematic_sequence/interview_scheme/interview_scheme_7.png"" class=""exp-image"">
                    <div class=""question-area"">
                        <p style=""font-size: 20px; font-weight: bold; margin: 0;"">Is there a person in this image?</p>
                    </div>
                </div>","0","main_experiment_trial","7","interview_scheme","schematic_sequence","","","","",""
"","","","","","html-keyboard-response","157","640888","0.0-157.0","EE50FE4297774D8B955D4C33BA4B9BFE","019cf0cb-cb7d-7c17-b2fd-efe7b65065ab","019cf037-5203-781a-b900-108ccb1cab86","","null","
                <div class=""stimulus-container"">
                    <img src=""images/schematic_sequence/interview_scheme/interview_scheme_8.png"" class=""exp-image"">
                    <div class=""question-area""></div> 
                </div>","null","","","","","","","","",""
"","","","","","html-button-response","158","642310","0.0-158.0","EE50FE4297774D8B955D4C33BA4B9BFE","019cf0cb-cb7d-7c17-b2fd-efe7b65065ab","019cf037-5203-781a-b900-108ccb1cab86","","1422","
                <div class=""stimulus-container"">
                    <img src=""images/schematic_sequence/interview_scheme/interview_scheme_8.png"" class=""exp-image"">
                    <div class=""question-area"">
                        <p style=""font-size: 20px; font-weight: bold; margin: 0;"">Is there a person in this image?</p>
                    </div>
                </div>","0","main_experiment_trial","8","interview_scheme","schematic_sequence","","","","",""
"","","","","","html-keyboard-response","159","647316","0.0-159.0","EE50FE4297774D8B955D4C33BA4B9BFE","019cf0cb-cb7d-7c17-b2fd-efe7b65065ab","019cf037-5203-781a-b900-108ccb1cab86","","null","
                <div class=""stimulus-container"">
                    <img src=""images/schematic_sequence/interview_scheme/interview_scheme_9.png"" class=""exp-image"">
                    <div class=""question-area""></div> 
                </div>","null","","","","","","","","",""
"","","","","","html-button-response","160","648458","0.0-160.0","EE50FE4297774D8B955D4C33BA4B9BFE","019cf0cb-cb7d-7c17-b2fd-efe7b65065ab","019cf037-5203-781a-b900-108ccb1cab86","","1141","
                <div class=""stimulus-container"">
                    <img src=""images/schematic_sequence/interview_scheme/interview_scheme_9.png"" class=""exp-image"">
                    <div class=""question-area"">
                        <p style=""font-size: 20px; font-weight: bold; margin: 0;"">Is there a person in this image?</p>
                    </div>
                </div>","0","main_experiment_trial","9","interview_scheme","schematic_sequence","","","","",""
"","","","","","html-keyboard-response","161","653464","0.0-161.0","EE50FE4297774D8B955D4C33BA4B9BFE","019cf0cb-cb7d-7c17-b2fd-efe7b65065ab","019cf037-5203-781a-b900-108ccb1cab86","","null","
                <div class=""stimulus-container"">
                    <img src=""images/schematic_sequence/interview_scheme/interview_scheme_ten.png"" class=""exp-image"">
                    <div class=""question-area""></div> 
                </div>","null","","","","","","","","",""
"","","","","","html-button-response","162","654516","0.0-162.0","EE50FE4297774D8B955D4C33BA4B9BFE","019cf0cb-cb7d-7c17-b2fd-efe7b65065ab","019cf037-5203-781a-b900-108ccb1cab86","","1051","
                <div class=""stimulus-container"">
                    <img src=""images/schematic_sequence/interview_scheme/interview_scheme_ten.png"" class=""exp-image"">
                    <div class=""question-area"">
                        <p style=""font-size: 20px; font-weight: bold; margin: 0;"">Is there a person in this image?</p>
                    </div>
                </div>","0","main_experiment_trial","ten","interview_scheme","schematic_sequence","","","","",""
"","","","","","html-keyboard-response","163","655523","0.0-163.0","EE50FE4297774D8B955D4C33BA4B9BFE","019cf0cb-cb7d-7c17-b2fd-efe7b65065ab","019cf037-5203-781a-b900-108ccb1cab86","","null","<div style=""background-color: white; width: 100vw; height: 100vh;""></div>","null","","","","","","","","",""
"","","","","","html-keyboard-response","164","660529","0.0-164.0","EE50FE4297774D8B955D4C33BA4B9BFE","019cf0cb-cb7d-7c17-b2fd-efe7b65065ab","019cf037-5203-781a-b900-108ccb1cab86","","null","
                <div class=""stimulus-container"">
                    <img src=""images/schematic_sequence/restaurant_scheme/restaurant_scheme_1.png"" class=""exp-image"">
                    <div class=""question-area""></div> 
                </div>","null","","","","","","","","",""
"","","","","","html-button-response","165","662599","0.0-165.0","EE50FE4297774D8B955D4C33BA4B9BFE","019cf0cb-cb7d-7c17-b2fd-efe7b65065ab","019cf037-5203-781a-b900-108ccb1cab86","","2070","
                <div class=""stimulus-container"">
                    <img src=""images/schematic_sequence/restaurant_scheme/restaurant_scheme_1.png"" class=""exp-image"">
                    <div class=""question-area"">
                        <p style=""font-size: 20px; font-weight: bold; margin: 0;"">Is there a person in this image?</p>
                    </div>
                </div>","0","main_experiment_trial","1","restaurant_scheme","schematic_sequence","","","","",""
"","","","","","html-keyboard-response","166","667922","0.0-166.0","EE50FE4297774D8B955D4C33BA4B9BFE","019cf0cb-cb7d-7c17-b2fd-efe7b65065ab","019cf037-5203-781a-b900-108ccb1cab86","","null","
                <div class=""stimulus-container"">
                    <img src=""images/schematic_sequence/restaurant_scheme/restaurant_scheme_2.png"" class=""exp-image"">
                    <div class=""question-area""></div> 
                </div>","null","","","","","","","","",""
"","","","","","html-button-response","167","668765","0.0-167.0","EE50FE4297774D8B955D4C33BA4B9BFE","019cf0cb-cb7d-7c17-b2fd-efe7b65065ab","019cf037-5203-781a-b900-108ccb1cab86","","842","
                <div class=""stimulus-container"">
                    <img src=""images/schematic_sequence/restaurant_scheme/restaurant_scheme_2.png"" class=""exp-image"">
                    <div class=""question-area"">
                        <p style=""font-size: 20px; font-weight: bold; margin: 0;"">Is there a person in this image?</p>
                    </div>
                </div>","1","main_experiment_trial","2","restaurant_scheme","schematic_sequence","","","","",""
"","","","","","html-keyboard-response","168","673786","0.0-168.0","EE50FE4297774D8B955D4C33BA4B9BFE","019cf0cb-cb7d-7c17-b2fd-efe7b65065ab","019cf037-5203-781a-b900-108ccb1cab86","","null","
                <div class=""stimulus-container"">
                    <img src=""images/schematic_sequence/restaurant_scheme/restaurant_scheme_3.png"" class=""exp-image"">
                    <div class=""question-area""></div> 
                </div>","null","","","","","","","","",""
"","","","","","html-button-response","169","674520","0.0-169.0","EE50FE4297774D8B955D4C33BA4B9BFE","019cf0cb-cb7d-7c17-b2fd-efe7b65065ab","019cf037-5203-781a-b900-108ccb1cab86","","733","
                <div class=""stimulus-container"">
                    <img src=""images/schematic_sequence/restaurant_scheme/restaurant_scheme_3.png"" class=""exp-image"">
                    <div class=""question-area"">
                        <p style=""font-size: 20px; font-weight: bold; margin: 0;"">Is there a person in this image?</p>
                    </div>
                </div>","1","main_experiment_trial","3","restaurant_scheme","schematic_sequence","","","","",""
"","","","","","html-keyboard-response","170","679524","0.0-170.0","EE50FE4297774D8B955D4C33BA4B9BFE","019cf0cb-cb7d-7c17-b2fd-efe7b65065ab","019cf037-5203-781a-b900-108ccb1cab86","","null","
                <div class=""stimulus-container"">
                    <img src=""images/schematic_sequence/restaurant_scheme/restaurant_scheme_4.png"" class=""exp-image"">
                    <div class=""question-area""></div> 
                </div>","null","","","","","","","","",""
"","","","","","html-button-response","171","680727","0.0-171.0","EE50FE4297774D8B955D4C33BA4B9BFE","019cf0cb-cb7d-7c17-b2fd-efe7b65065ab","019cf037-5203-781a-b900-108ccb1cab86","","1201","
                <div class=""stimulus-container"">
                    <img src=""images/schematic_sequence/restaurant_scheme/restaurant_scheme_4.png"" class=""exp-image"">
                    <div class=""question-area"">
                        <p style=""font-size: 20px; font-weight: bold; margin: 0;"">Is there a person in this image?</p>
                    </div>
                </div>","0","main_experiment_trial","4","restaurant_scheme","schematic_sequence","","","","",""
"","","","","","html-keyboard-response","172","685733","0.0-172.0","EE50FE4297774D8B955D4C33BA4B9BFE","019cf0cb-cb7d-7c17-b2fd-efe7b65065ab","019cf037-5203-781a-b900-108ccb1cab86","","null","
                <div class=""stimulus-container"">
                    <img src=""images/schematic_sequence/restaurant_scheme/restaurant_scheme_5.png"" class=""exp-image"">
                    <div class=""question-area""></div> 
                </div>","null","","","","","","","","",""
"","","","","","html-button-response","173","686363","0.0-173.0","EE50FE4297774D8B955D4C33BA4B9BFE","019cf0cb-cb7d-7c17-b2fd-efe7b65065ab","019cf037-5203-781a-b900-108ccb1cab86","","629","
                <div class=""stimulus-container"">
                    <img src=""images/schematic_sequence/restaurant_scheme/restaurant_scheme_5.png"" class=""exp-image"">
                    <div class=""question-area"">
                        <p style=""font-size: 20px; font-weight: bold; margin: 0;"">Is there a person in this image?</p>
                    </div>
                </div>","0","main_experiment_trial","5","restaurant_scheme","schematic_sequence","","","","",""
"","","","","","html-keyboard-response","174","691860","0.0-174.0","EE50FE4297774D8B955D4C33BA4B9BFE","019cf0cb-cb7d-7c17-b2fd-efe7b65065ab","019cf037-5203-781a-b900-108ccb1cab86","","null","
                <div class=""stimulus-container"">
                    <img src=""images/schematic_sequence/restaurant_scheme/restaurant_scheme_6.png"" class=""exp-image"">
                    <div class=""question-area""></div> 
                </div>","null","","","","","","","","",""
"","","","","","html-button-response","175","692315","0.0-175.0","EE50FE4297774D8B955D4C33BA4B9BFE","019cf0cb-cb7d-7c17-b2fd-efe7b65065ab","019cf037-5203-781a-b900-108ccb1cab86","","454","
                <div class=""stimulus-container"">
                    <img src=""images/schematic_sequence/restaurant_scheme/restaurant_scheme_6.png"" class=""exp-image"">
                    <div class=""question-area"">
                        <p style=""font-size: 20px; font-weight: bold; margin: 0;"">Is there a person in this image?</p>
                    </div>
                </div>","1","main_experiment_trial","6","restaurant_scheme","schematic_sequence","","","","",""
"","","","","","html-keyboard-response","176","697325","0.0-176.0","EE50FE4297774D8B955D4C33BA4B9BFE","019cf0cb-cb7d-7c17-b2fd-efe7b65065ab","019cf037-5203-781a-b900-108ccb1cab86","","null","
                <div class=""stimulus-container"">
                    <img src=""images/schematic_sequence/restaurant_scheme/restaurant_scheme_7.png"" class=""exp-image"">
                    <div class=""question-area""></div> 
                </div>","null","","","","","","","","",""
"","","","","","html-button-response","177","698064","0.0-177.0","EE50FE4297774D8B955D4C33BA4B9BFE","019cf0cb-cb7d-7c17-b2fd-efe7b65065ab","019cf037-5203-781a-b900-108ccb1cab86","","738","
                <div class=""stimulus-container"">
                    <img src=""images/schematic_sequence/restaurant_scheme/restaurant_scheme_7.png"" class=""exp-image"">
                    <div class=""question-area"">
                        <p style=""font-size: 20px; font-weight: bold; margin: 0;"">Is there a person in this image?</p>
                    </div>
                </div>","1","main_experiment_trial","7","restaurant_scheme","schematic_sequence","","","","",""
"","","","","","html-keyboard-response","178","703071","0.0-178.0","EE50FE4297774D8B955D4C33BA4B9BFE","019cf0cb-cb7d-7c17-b2fd-efe7b65065ab","019cf037-5203-781a-b900-108ccb1cab86","","null","
                <div class=""stimulus-container"">
                    <img src=""images/schematic_sequence/restaurant_scheme/restaurant_scheme_8.png"" class=""exp-image"">
                    <div class=""question-area""></div> 
                </div>","null","","","","","","","","",""
"","","","","","html-button-response","179","703644","0.0-179.0","EE50FE4297774D8B955D4C33BA4B9BFE","019cf0cb-cb7d-7c17-b2fd-efe7b65065ab","019cf037-5203-781a-b900-108ccb1cab86","","573","
                <div class=""stimulus-container"">
                    <img src=""images/schematic_sequence/restaurant_scheme/restaurant_scheme_8.png"" class=""exp-image"">
                    <div class=""question-area"">
                        <p style=""font-size: 20px; font-weight: bold; margin: 0;"">Is there a person in this image?</p>
                    </div>
                </div>","1","main_experiment_trial","8","restaurant_scheme","schematic_sequence","","","","",""
"","","","","","html-keyboard-response","180","708651","0.0-180.0","EE50FE4297774D8B955D4C33BA4B9BFE","019cf0cb-cb7d-7c17-b2fd-efe7b65065ab","019cf037-5203-781a-b900-108ccb1cab86","","null","
                <div class=""stimulus-container"">
                    <img src=""images/schematic_sequence/restaurant_scheme/restaurant_scheme_9.png"" class=""exp-image"">
                    <div class=""question-area""></div> 
                </div>","null","","","","","","","","",""
"","","","","","html-button-response","181","709201","0.0-181.0","EE50FE4297774D8B955D4C33BA4B9BFE","019cf0cb-cb7d-7c17-b2fd-efe7b65065ab","019cf037-5203-781a-b900-108ccb1cab86","","550","
                <div class=""stimulus-container"">
                    <img src=""images/schematic_sequence/restaurant_scheme/restaurant_scheme_9.png"" class=""exp-image"">
                    <div class=""question-area"">
                        <p style=""font-size: 20px; font-weight: bold; margin: 0;"">Is there a person in this image?</p>
                    </div>
                </div>","0","main_experiment_trial","9","restaurant_scheme","schematic_sequence","","","","",""
"","","","","","html-keyboard-response","182","714203","0.0-182.0","EE50FE4297774D8B955D4C33BA4B9BFE","019cf0cb-cb7d-7c17-b2fd-efe7b65065ab","019cf037-5203-781a-b900-108ccb1cab86","","null","
                <div class=""stimulus-container"">
                    <img src=""images/schematic_sequence/restaurant_scheme/restaurant_scheme_ten.png"" class=""exp-image"">
                    <div class=""question-area""></div> 
                </div>","null","","","","","","","","",""
"","","","","","html-button-response","183","714942","0.0-183.0","EE50FE4297774D8B955D4C33BA4B9BFE","019cf0cb-cb7d-7c17-b2fd-efe7b65065ab","019cf037-5203-781a-b900-108ccb1cab86","","737","
                <div class=""stimulus-container"">
                    <img src=""images/schematic_sequence/restaurant_scheme/restaurant_scheme_ten.png"" class=""exp-image"">
                    <div class=""question-area"">
