"success","timeout","failed_images","failed_audio","failed_video","trial_type","trial_index","time_elapsed","internal_node_id","subject_id","study_id","session_id","view_history","rt","stimulus","response","task","image_index","folder","sequence_type","valuable_image_index","reward_type","chosen_image_index","target_X","correct_choice"
"true","false","[]","[]","[]","preload","0","2294","0.0-0.0","FFC04E568BB44DB0A7B284824F1032B1","019cf4a6-3828-7541-8c63-d9f7e65d1430","019cf498-06e0-702e-b525-9cde1ad77653","","","","","","","","","","","","",""
"","","","","","instructions","1","38897","0.0-1.0","FFC04E568BB44DB0A7B284824F1032B1","019cf4a6-3828-7541-8c63-d9f7e65d1430","019cf498-06e0-702e-b525-9cde1ad77653","[{""page_index"":0,""viewing_time"":36603}]","36603","","","","","","","","","","",""
"","","","","","instructions","2","42025","0.0-2.0","FFC04E568BB44DB0A7B284824F1032B1","019cf4a6-3828-7541-8c63-d9f7e65d1430","019cf498-06e0-702e-b525-9cde1ad77653","[{""page_index"":0,""viewing_time"":3127}]","3127","","","","","","","","","","",""
"true","","","","","fullscreen","3","44465","0.0-3.0","FFC04E568BB44DB0A7B284824F1032B1","019cf4a6-3828-7541-8c63-d9f7e65d1430","019cf498-06e0-702e-b525-9cde1ad77653","","1431","","","","","","","","","","",""
"","","","","","instructions","4","58652","0.0-4.0","FFC04E568BB44DB0A7B284824F1032B1","019cf4a6-3828-7541-8c63-d9f7e65d1430","019cf498-06e0-702e-b525-9cde1ad77653","[{""page_index"":0,""viewing_time"":14187}]","14187","","","","","","","","","","",""
"","","","","","instructions","5","83095","0.0-5.0","FFC04E568BB44DB0A7B284824F1032B1","019cf4a6-3828-7541-8c63-d9f7e65d1430","019cf498-06e0-702e-b525-9cde1ad77653","[{""page_index"":0,""viewing_time"":24443}]","24443","","","","","","","","","","",""
"","","","","","html-keyboard-response","6","87105","0.0-6.0","FFC04E568BB44DB0A7B284824F1032B1","019cf4a6-3828-7541-8c63-d9f7e65d1430","019cf498-06e0-702e-b525-9cde1ad77653","","null","
                <div class=""stimulus-container"">
                    <img src=""images/instructions/movie_1.png"" class=""exp-image"">
                    <div class=""question-area""></div> 
                </div>","null","","","","","","","","",""
"","","","","","html-button-response","7","88316","0.0-7.0","FFC04E568BB44DB0A7B284824F1032B1","019cf4a6-3828-7541-8c63-d9f7e65d1430","019cf498-06e0-702e-b525-9cde1ad77653","","1210","
                <div class=""stimulus-container"">
                    <img src=""images/instructions/movie_1.png"" class=""exp-image"">
                    <div class=""question-area"">
                        <p style=""font-size: 20px; font-weight: bold; margin: 0;"">Was there a person in this image?</p>
                    </div>
                </div>","0","example_question","1","","","","","","",""
"","","","","","html-keyboard-response","8","92320","0.0-8.0","FFC04E568BB44DB0A7B284824F1032B1","019cf4a6-3828-7541-8c63-d9f7e65d1430","019cf498-06e0-702e-b525-9cde1ad77653","","null","
                <div class=""stimulus-container"">
                    <img src=""images/instructions/movie_2.png"" class=""exp-image"">
                    <div class=""question-area""></div> 
                </div>","null","","","","","","","","",""
"","","","","","html-button-response","9","95321","0.0-9.0","FFC04E568BB44DB0A7B284824F1032B1","019cf4a6-3828-7541-8c63-d9f7e65d1430","019cf498-06e0-702e-b525-9cde1ad77653","","null","
                <div class=""stimulus-container"">
                    <img src=""images/instructions/movie_2.png"" class=""exp-image"">
                    <div class=""question-area"">
                        <p style=""font-size: 20px; font-weight: bold; margin: 0;"">Was there a person in this image?</p>
                    </div>
                </div>","null","example_question","2","","","","","","",""
"","","","","","html-keyboard-response","10","99324","0.0-10.0","FFC04E568BB44DB0A7B284824F1032B1","019cf4a6-3828-7541-8c63-d9f7e65d1430","019cf498-06e0-702e-b525-9cde1ad77653","","null","
                <div class=""stimulus-container"">
                    <img src=""images/instructions/movie_3.png"" class=""exp-image"">
                    <div class=""question-area""></div> 
                </div>","null","","","","","","","","",""
"","","","","","html-button-response","11","100189","0.0-11.0","FFC04E568BB44DB0A7B284824F1032B1","019cf4a6-3828-7541-8c63-d9f7e65d1430","019cf498-06e0-702e-b525-9cde1ad77653","","864","
                <div class=""stimulus-container"">
                    <img src=""images/instructions/movie_3.png"" class=""exp-image"">
                    <div class=""question-area"">
                        <p style=""font-size: 20px; font-weight: bold; margin: 0;"">Was there a person in this image?</p>
                    </div>
                </div>","0","example_question","3","","","","","","",""
"","","","","","html-keyboard-response","12","104204","0.0-12.0","FFC04E568BB44DB0A7B284824F1032B1","019cf4a6-3828-7541-8c63-d9f7e65d1430","019cf498-06e0-702e-b525-9cde1ad77653","","null","
                <div class=""stimulus-container"">
                    <img src=""images/instructions/movie_4.png"" class=""exp-image"">
                    <div class=""question-area""></div> 
                </div>","null","","","","","","","","",""
"","","","","","html-button-response","13","104794","0.0-13.0","FFC04E568BB44DB0A7B284824F1032B1","019cf4a6-3828-7541-8c63-d9f7e65d1430","019cf498-06e0-702e-b525-9cde1ad77653","","589","
                <div class=""stimulus-container"">
                    <img src=""images/instructions/movie_4.png"" class=""exp-image"">
                    <div class=""question-area"">
                        <p style=""font-size: 20px; font-weight: bold; margin: 0;"">Was there a person in this image?</p>
                    </div>
                </div>","0","example_question","4","","","","","","",""
"","","","","","instructions","14","106436","0.0-14.0","FFC04E568BB44DB0A7B284824F1032B1","019cf4a6-3828-7541-8c63-d9f7e65d1430","019cf498-06e0-702e-b525-9cde1ad77653","[{""page_index"":0,""viewing_time"":1642}]","1642","","","","","","","","","","",""
"","","","","","instructions","15","111130","0.0-15.0","FFC04E568BB44DB0A7B284824F1032B1","019cf4a6-3828-7541-8c63-d9f7e65d1430","019cf498-06e0-702e-b525-9cde1ad77653","[{""page_index"":0,""viewing_time"":4694}]","4694","","","","","","","","","","",""
"","","","","","html-keyboard-response","16","112139","0.0-16.0","FFC04E568BB44DB0A7B284824F1032B1","019cf4a6-3828-7541-8c63-d9f7e65d1430","019cf498-06e0-702e-b525-9cde1ad77653","","null","<div style=""background-color: white; width: 100vw; height: 100vh;""></div>","null","","","","","","","","",""
"","","","","","html-keyboard-response","17","117155","0.0-17.0","FFC04E568BB44DB0A7B284824F1032B1","019cf4a6-3828-7541-8c63-d9f7e65d1430","019cf498-06e0-702e-b525-9cde1ad77653","","null","
                <div class=""stimulus-container"">
                    <img src=""images/schematic_sequence/flight_scheme/flight_scheme_1.png"" class=""exp-image"">
                    <div class=""question-area""></div> 
                </div>","null","","","","","","","","",""
"","","","","","html-button-response","18","118046","0.0-18.0","FFC04E568BB44DB0A7B284824F1032B1","019cf4a6-3828-7541-8c63-d9f7e65d1430","019cf498-06e0-702e-b525-9cde1ad77653","","890","
                <div class=""stimulus-container"">
                    <img src=""images/schematic_sequence/flight_scheme/flight_scheme_1.png"" class=""exp-image"">
                    <div class=""question-area"">
                        <p style=""font-size: 20px; font-weight: bold; margin: 0;"">Is there a person in this image?</p>
                    </div>
                </div>","0","main_experiment_trial","1","flight_scheme","schematic_sequence","","","","",""
"","","","","","html-keyboard-response","19","123049","0.0-19.0","FFC04E568BB44DB0A7B284824F1032B1","019cf4a6-3828-7541-8c63-d9f7e65d1430","019cf498-06e0-702e-b525-9cde1ad77653","","null","
                <div class=""stimulus-container"">
                    <img src=""images/schematic_sequence/flight_scheme/flight_scheme_2.png"" class=""exp-image"">
                    <div class=""question-area""></div> 
                </div>","null","","","","","","","","",""
"","","","","","html-button-response","20","124182","0.0-20.0","FFC04E568BB44DB0A7B284824F1032B1","019cf4a6-3828-7541-8c63-d9f7e65d1430","019cf498-06e0-702e-b525-9cde1ad77653","","1133","
                <div class=""stimulus-container"">
                    <img src=""images/schematic_sequence/flight_scheme/flight_scheme_2.png"" class=""exp-image"">
                    <div class=""question-area"">
                        <p style=""font-size: 20px; font-weight: bold; margin: 0;"">Is there a person in this image?</p>
                    </div>
                </div>","1","main_experiment_trial","2","flight_scheme","schematic_sequence","","","","",""
"","","","","","html-keyboard-response","21","129183","0.0-21.0","FFC04E568BB44DB0A7B284824F1032B1","019cf4a6-3828-7541-8c63-d9f7e65d1430","019cf498-06e0-702e-b525-9cde1ad77653","","null","
                <div class=""stimulus-container"">
                    <img src=""images/schematic_sequence/flight_scheme/flight_scheme_3.png"" class=""exp-image"">
                    <div class=""question-area""></div> 
                </div>","null","","","","","","","","",""
"","","","","","html-button-response","22","129769","0.0-22.0","FFC04E568BB44DB0A7B284824F1032B1","019cf4a6-3828-7541-8c63-d9f7e65d1430","019cf498-06e0-702e-b525-9cde1ad77653","","586","
                <div class=""stimulus-container"">
                    <img src=""images/schematic_sequence/flight_scheme/flight_scheme_3.png"" class=""exp-image"">
                    <div class=""question-area"">
                        <p style=""font-size: 20px; font-weight: bold; margin: 0;"">Is there a person in this image?</p>
                    </div>
                </div>","0","main_experiment_trial","3","flight_scheme","schematic_sequence","","","","",""
"","","","","","html-keyboard-response","23","134773","0.0-23.0","FFC04E568BB44DB0A7B284824F1032B1","019cf4a6-3828-7541-8c63-d9f7e65d1430","019cf498-06e0-702e-b525-9cde1ad77653","","null","
                <div class=""stimulus-container"">
                    <img src=""images/schematic_sequence/flight_scheme/flight_scheme_4.png"" class=""exp-image"">
                    <div class=""question-area""></div> 
                </div>","null","","","","","","","","",""
"","","","","","html-button-response","24","135259","0.0-24.0","FFC04E568BB44DB0A7B284824F1032B1","019cf4a6-3828-7541-8c63-d9f7e65d1430","019cf498-06e0-702e-b525-9cde1ad77653","","486","
                <div class=""stimulus-container"">
                    <img src=""images/schematic_sequence/flight_scheme/flight_scheme_4.png"" class=""exp-image"">
                    <div class=""question-area"">
                        <p style=""font-size: 20px; font-weight: bold; margin: 0;"">Is there a person in this image?</p>
                    </div>
                </div>","0","main_experiment_trial","4","flight_scheme","schematic_sequence","","","","",""
"","","","","","html-keyboard-response","25","140272","0.0-25.0","FFC04E568BB44DB0A7B284824F1032B1","019cf4a6-3828-7541-8c63-d9f7e65d1430","019cf498-06e0-702e-b525-9cde1ad77653","","null","
                <div class=""stimulus-container"">
                    <img src=""images/schematic_sequence/flight_scheme/flight_scheme_5.png"" class=""exp-image"">
                    <div class=""question-area""></div> 
                </div>","null","","","","","","","","",""
"","","","","","html-button-response","26","140659","0.0-26.0","FFC04E568BB44DB0A7B284824F1032B1","019cf4a6-3828-7541-8c63-d9f7e65d1430","019cf498-06e0-702e-b525-9cde1ad77653","","387","
                <div class=""stimulus-container"">
                    <img src=""images/schematic_sequence/flight_scheme/flight_scheme_5.png"" class=""exp-image"">
                    <div class=""question-area"">
                        <p style=""font-size: 20px; font-weight: bold; margin: 0;"">Is there a person in this image?</p>
                    </div>
                </div>","0","main_experiment_trial","5","flight_scheme","schematic_sequence","","","","",""
"","","","","","html-keyboard-response","27","145667","0.0-27.0","FFC04E568BB44DB0A7B284824F1032B1","019cf4a6-3828-7541-8c63-d9f7e65d1430","019cf498-06e0-702e-b525-9cde1ad77653","","null","
                <div class=""stimulus-container"">
                    <img src=""images/schematic_sequence/flight_scheme/flight_scheme_6.png"" class=""exp-image"">
                    <div class=""question-area""></div> 
                </div>","null","","","","","","","","",""
"","","","","","html-button-response","28","146127","0.0-28.0","FFC04E568BB44DB0A7B284824F1032B1","019cf4a6-3828-7541-8c63-d9f7e65d1430","019cf498-06e0-702e-b525-9cde1ad77653","","459","
                <div class=""stimulus-container"">
                    <img src=""images/schematic_sequence/flight_scheme/flight_scheme_6.png"" class=""exp-image"">
                    <div class=""question-area"">
                        <p style=""font-size: 20px; font-weight: bold; margin: 0;"">Is there a person in this image?</p>
                    </div>
                </div>","1","main_experiment_trial","6","flight_scheme","schematic_sequence","","","","",""
"","","","","","html-keyboard-response","29","151128","0.0-29.0","FFC04E568BB44DB0A7B284824F1032B1","019cf4a6-3828-7541-8c63-d9f7e65d1430","019cf498-06e0-702e-b525-9cde1ad77653","","null","
                <div class=""stimulus-container"">
                    <img src=""images/schematic_sequence/flight_scheme/flight_scheme_7.png"" class=""exp-image"">
                    <div class=""question-area""></div> 
                </div>","null","","","","","","","","",""
"","","","","","html-button-response","30","151557","0.0-30.0","FFC04E568BB44DB0A7B284824F1032B1","019cf4a6-3828-7541-8c63-d9f7e65d1430","019cf498-06e0-702e-b525-9cde1ad77653","","429","
                <div class=""stimulus-container"">
                    <img src=""images/schematic_sequence/flight_scheme/flight_scheme_7.png"" class=""exp-image"">
                    <div class=""question-area"">
                        <p style=""font-size: 20px; font-weight: bold; margin: 0;"">Is there a person in this image?</p>
                    </div>
                </div>","0","main_experiment_trial","7","flight_scheme","schematic_sequence","","","","",""
"","","","","","html-keyboard-response","31","156566","0.0-31.0","FFC04E568BB44DB0A7B284824F1032B1","019cf4a6-3828-7541-8c63-d9f7e65d1430","019cf498-06e0-702e-b525-9cde1ad77653","","null","
                <div class=""stimulus-container"">
                    <img src=""images/schematic_sequence/flight_scheme/flight_scheme_8.png"" class=""exp-image"">
                    <div class=""question-area""></div> 
                </div>","null","","","","","","","","",""
"","","","","","html-button-response","32","156983","0.0-32.0","FFC04E568BB44DB0A7B284824F1032B1","019cf4a6-3828-7541-8c63-d9f7e65d1430","019cf498-06e0-702e-b525-9cde1ad77653","","416","
                <div class=""stimulus-container"">
                    <img src=""images/schematic_sequence/flight_scheme/flight_scheme_8.png"" class=""exp-image"">
                    <div class=""question-area"">
                        <p style=""font-size: 20px; font-weight: bold; margin: 0;"">Is there a person in this image?</p>
                    </div>
                </div>","1","main_experiment_trial","8","flight_scheme","schematic_sequence","","","","",""
"","","","","","html-keyboard-response","33","161986","0.0-33.0","FFC04E568BB44DB0A7B284824F1032B1","019cf4a6-3828-7541-8c63-d9f7e65d1430","019cf498-06e0-702e-b525-9cde1ad77653","","null","
                <div class=""stimulus-container"">
                    <img src=""images/schematic_sequence/flight_scheme/flight_scheme_9.png"" class=""exp-image"">
                    <div class=""question-area""></div> 
                </div>","null","","","","","","","","",""
"","","","","","html-button-response","34","162567","0.0-34.0","FFC04E568BB44DB0A7B284824F1032B1","019cf4a6-3828-7541-8c63-d9f7e65d1430","019cf498-06e0-702e-b525-9cde1ad77653","","581","
                <div class=""stimulus-container"">
                    <img src=""images/schematic_sequence/flight_scheme/flight_scheme_9.png"" class=""exp-image"">
                    <div class=""question-area"">
                        <p style=""font-size: 20px; font-weight: bold; margin: 0;"">Is there a person in this image?</p>
                    </div>
                </div>","0","main_experiment_trial","9","flight_scheme","schematic_sequence","","","","",""
"","","","","","html-keyboard-response","35","167571","0.0-35.0","FFC04E568BB44DB0A7B284824F1032B1","019cf4a6-3828-7541-8c63-d9f7e65d1430","019cf498-06e0-702e-b525-9cde1ad77653","","null","
                <div class=""stimulus-container"">
                    <img src=""images/schematic_sequence/flight_scheme/flight_scheme_ten.png"" class=""exp-image"">
                    <div class=""question-area""></div> 
                </div>","null","","","","","","","","",""
"","","","","","html-button-response","36","167983","0.0-36.0","FFC04E568BB44DB0A7B284824F1032B1","019cf4a6-3828-7541-8c63-d9f7e65d1430","019cf498-06e0-702e-b525-9cde1ad77653","","412","
                <div class=""stimulus-container"">
                    <img src=""images/schematic_sequence/flight_scheme/flight_scheme_ten.png"" class=""exp-image"">
                    <div class=""question-area"">
                        <p style=""font-size: 20px; font-weight: bold; margin: 0;"">Is there a person in this image?</p>
                    </div>
                </div>","0","main_experiment_trial","ten","flight_scheme","schematic_sequence","","","","",""
"","","","","","html-keyboard-response","37","168987","0.0-37.0","FFC04E568BB44DB0A7B284824F1032B1","019cf4a6-3828-7541-8c63-d9f7e65d1430","019cf498-06e0-702e-b525-9cde1ad77653","","null","<div style=""background-color: white; width: 100vw; height: 100vh;""></div>","null","","","","","","","","",""
"","","","","","html-keyboard-response","38","173992","0.0-38.0","FFC04E568BB44DB0A7B284824F1032B1","019cf4a6-3828-7541-8c63-d9f7e65d1430","019cf498-06e0-702e-b525-9cde1ad77653","","null","
                <div class=""stimulus-container"">
                    <img src=""images/schematic_sequence/interview_scheme/interview_scheme_1.png"" class=""exp-image"">
                    <div class=""question-area""></div> 
                </div>","null","","","","","","","","",""
"","","","","","html-button-response","39","174718","0.0-39.0","FFC04E568BB44DB0A7B284824F1032B1","019cf4a6-3828-7541-8c63-d9f7e65d1430","019cf498-06e0-702e-b525-9cde1ad77653","","725","
                <div class=""stimulus-container"">
                    <img src=""images/schematic_sequence/interview_scheme/interview_scheme_1.png"" class=""exp-image"">
                    <div class=""question-area"">
                        <p style=""font-size: 20px; font-weight: bold; margin: 0;"">Is there a person in this image?</p>
                    </div>
                </div>","1","main_experiment_trial","1","interview_scheme","schematic_sequence","","","","",""
"","","","","","html-keyboard-response","40","179724","0.0-40.0","FFC04E568BB44DB0A7B284824F1032B1","019cf4a6-3828-7541-8c63-d9f7e65d1430","019cf498-06e0-702e-b525-9cde1ad77653","","null","
                <div class=""stimulus-container"">
                    <img src=""images/schematic_sequence/interview_scheme/interview_scheme_2.png"" class=""exp-image"">
                    <div class=""question-area""></div> 
                </div>","null","","","","","","","","",""
"","","","","","html-button-response","41","180808","0.0-41.0","FFC04E568BB44DB0A7B284824F1032B1","019cf4a6-3828-7541-8c63-d9f7e65d1430","019cf498-06e0-702e-b525-9cde1ad77653","","1084","
                <div class=""stimulus-container"">
                    <img src=""images/schematic_sequence/interview_scheme/interview_scheme_2.png"" class=""exp-image"">
                    <div class=""question-area"">
                        <p style=""font-size: 20px; font-weight: bold; margin: 0;"">Is there a person in this image?</p>
                    </div>
                </div>","0","main_experiment_trial","2","interview_scheme","schematic_sequence","","","","",""
"","","","","","html-keyboard-response","42","185812","0.0-42.0","FFC04E568BB44DB0A7B284824F1032B1","019cf4a6-3828-7541-8c63-d9f7e65d1430","019cf498-06e0-702e-b525-9cde1ad77653","","null","
                <div class=""stimulus-container"">
                    <img src=""images/schematic_sequence/interview_scheme/interview_scheme_3.png"" class=""exp-image"">
                    <div class=""question-area""></div> 
                </div>","null","","","","","","","","",""
"","","","","","html-button-response","43","187138","0.0-43.0","FFC04E568BB44DB0A7B284824F1032B1","019cf4a6-3828-7541-8c63-d9f7e65d1430","019cf498-06e0-702e-b525-9cde1ad77653","","1326","
                <div class=""stimulus-container"">
                    <img src=""images/schematic_sequence/interview_scheme/interview_scheme_3.png"" class=""exp-image"">
                    <div class=""question-area"">
                        <p style=""font-size: 20px; font-weight: bold; margin: 0;"">Is there a person in this image?</p>
                    </div>
                </div>","1","main_experiment_trial","3","interview_scheme","schematic_sequence","","","","",""
"","","","","","html-keyboard-response","44","192139","0.0-44.0","FFC04E568BB44DB0A7B284824F1032B1","019cf4a6-3828-7541-8c63-d9f7e65d1430","019cf498-06e0-702e-b525-9cde1ad77653","","null","
                <div class=""stimulus-container"">
                    <img src=""images/schematic_sequence/interview_scheme/interview_scheme_4.png"" class=""exp-image"">
                    <div class=""question-area""></div> 
                </div>","null","","","","","","","","",""
"","","","","","html-button-response","45","192516","0.0-45.0","FFC04E568BB44DB0A7B284824F1032B1","019cf4a6-3828-7541-8c63-d9f7e65d1430","019cf498-06e0-702e-b525-9cde1ad77653","","377","
                <div class=""stimulus-container"">
                    <img src=""images/schematic_sequence/interview_scheme/interview_scheme_4.png"" class=""exp-image"">
                    <div class=""question-area"">
                        <p style=""font-size: 20px; font-weight: bold; margin: 0;"">Is there a person in this image?</p>
                    </div>
                </div>","1","main_experiment_trial","4","interview_scheme","schematic_sequence","","","","",""
"","","","","","html-keyboard-response","46","197527","0.0-46.0","FFC04E568BB44DB0A7B284824F1032B1","019cf4a6-3828-7541-8c63-d9f7e65d1430","019cf498-06e0-702e-b525-9cde1ad77653","","null","
                <div class=""stimulus-container"">
                    <img src=""images/schematic_sequence/interview_scheme/interview_scheme_5.png"" class=""exp-image"">
                    <div class=""question-area""></div> 
                </div>","null","","","","","","","","",""
"","","","","","html-button-response","47","198111","0.0-47.0","FFC04E568BB44DB0A7B284824F1032B1","019cf4a6-3828-7541-8c63-d9f7e65d1430","019cf498-06e0-702e-b525-9cde1ad77653","","583","
                <div class=""stimulus-container"">
                    <img src=""images/schematic_sequence/interview_scheme/interview_scheme_5.png"" class=""exp-image"">
                    <div class=""question-area"">
                        <p style=""font-size: 20px; font-weight: bold; margin: 0;"">Is there a person in this image?</p>
                    </div>
                </div>","0","main_experiment_trial","5","interview_scheme","schematic_sequence","","","","",""
"","","","","","html-keyboard-response","48","203117","0.0-48.0","FFC04E568BB44DB0A7B284824F1032B1","019cf4a6-3828-7541-8c63-d9f7e65d1430","019cf498-06e0-702e-b525-9cde1ad77653","","null","
                <div class=""stimulus-container"">
                    <img src=""images/schematic_sequence/interview_scheme/interview_scheme_6.png"" class=""exp-image"">
                    <div class=""question-area""></div> 
                </div>","null","","","","","","","","",""
"","","","","","html-button-response","49","203488","0.0-49.0","FFC04E568BB44DB0A7B284824F1032B1","019cf4a6-3828-7541-8c63-d9f7e65d1430","019cf498-06e0-702e-b525-9cde1ad77653","","371","
                <div class=""stimulus-container"">
                    <img src=""images/schematic_sequence/interview_scheme/interview_scheme_6.png"" class=""exp-image"">
                    <div class=""question-area"">
                        <p style=""font-size: 20px; font-weight: bold; margin: 0;"">Is there a person in this image?</p>
                    </div>
                </div>","0","main_experiment_trial","6","interview_scheme","schematic_sequence","","","","",""
"","","","","","html-keyboard-response","50","208495","0.0-50.0","FFC04E568BB44DB0A7B284824F1032B1","019cf4a6-3828-7541-8c63-d9f7e65d1430","019cf498-06e0-702e-b525-9cde1ad77653","","null","
                <div class=""stimulus-container"">
                    <img src=""images/schematic_sequence/interview_scheme/interview_scheme_7.png"" class=""exp-image"">
                    <div class=""question-area""></div> 
                </div>","null","","","","","","","","",""
"","","","","","html-button-response","51","209181","0.0-51.0","FFC04E568BB44DB0A7B284824F1032B1","019cf4a6-3828-7541-8c63-d9f7e65d1430","019cf498-06e0-702e-b525-9cde1ad77653","","685","
                <div class=""stimulus-container"">
                    <img src=""images/schematic_sequence/interview_scheme/interview_scheme_7.png"" class=""exp-image"">
                    <div class=""question-area"">
                        <p style=""font-size: 20px; font-weight: bold; margin: 0;"">Is there a person in this image?</p>
                    </div>
                </div>","0","main_experiment_trial","7","interview_scheme","schematic_sequence","","","","",""
"","","","","","html-keyboard-response","52","214183","0.0-52.0","FFC04E568BB44DB0A7B284824F1032B1","019cf4a6-3828-7541-8c63-d9f7e65d1430","019cf498-06e0-702e-b525-9cde1ad77653","","null","
                <div class=""stimulus-container"">
                    <img src=""images/schematic_sequence/interview_scheme/interview_scheme_8.png"" class=""exp-image"">
                    <div class=""question-area""></div> 
                </div>","null","","","","","","","","",""
"","","","","","html-button-response","53","214626","0.0-53.0","FFC04E568BB44DB0A7B284824F1032B1","019cf4a6-3828-7541-8c63-d9f7e65d1430","019cf498-06e0-702e-b525-9cde1ad77653","","442","
                <div class=""stimulus-container"">
                    <img src=""images/schematic_sequence/interview_scheme/interview_scheme_8.png"" class=""exp-image"">
                    <div class=""question-area"">
                        <p style=""font-size: 20px; font-weight: bold; margin: 0;"">Is there a person in this image?</p>
                    </div>
                </div>","0","main_experiment_trial","8","interview_scheme","schematic_sequence","","","","",""
"","","","","","html-keyboard-response","54","219636","0.0-54.0","FFC04E568BB44DB0A7B284824F1032B1","019cf4a6-3828-7541-8c63-d9f7e65d1430","019cf498-06e0-702e-b525-9cde1ad77653","","null","
                <div class=""stimulus-container"">
                    <img src=""images/schematic_sequence/interview_scheme/interview_scheme_9.png"" class=""exp-image"">
                    <div class=""question-area""></div> 
                </div>","null","","","","","","","","",""
"","","","","","html-button-response","55","220019","0.0-55.0","FFC04E568BB44DB0A7B284824F1032B1","019cf4a6-3828-7541-8c63-d9f7e65d1430","019cf498-06e0-702e-b525-9cde1ad77653","","383","
                <div class=""stimulus-container"">
                    <img src=""images/schematic_sequence/interview_scheme/interview_scheme_9.png"" class=""exp-image"">
                    <div class=""question-area"">
                        <p style=""font-size: 20px; font-weight: bold; margin: 0;"">Is there a person in this image?</p>
                    </div>
                </div>","0","main_experiment_trial","9","interview_scheme","schematic_sequence","","","","",""
"","","","","","html-keyboard-response","56","225029","0.0-56.0","FFC04E568BB44DB0A7B284824F1032B1","019cf4a6-3828-7541-8c63-d9f7e65d1430","019cf498-06e0-702e-b525-9cde1ad77653","","null","
                <div class=""stimulus-container"">
                    <img src=""images/schematic_sequence/interview_scheme/interview_scheme_ten.png"" class=""exp-image"">
                    <div class=""question-area""></div> 
                </div>","null","","","","","","","","",""
"","","","","","html-button-response","57","225411","0.0-57.0","FFC04E568BB44DB0A7B284824F1032B1","019cf4a6-3828-7541-8c63-d9f7e65d1430","019cf498-06e0-702e-b525-9cde1ad77653","","382","
                <div class=""stimulus-container"">
                    <img src=""images/schematic_sequence/interview_scheme/interview_scheme_ten.png"" class=""exp-image"">
                    <div class=""question-area"">
                        <p style=""font-size: 20px; font-weight: bold; margin: 0;"">Is there a person in this image?</p>
                    </div>
                </div>","0","main_experiment_trial","ten","interview_scheme","schematic_sequence","","","","",""
"","","","","","html-keyboard-response","58","226415","0.0-58.0","FFC04E568BB44DB0A7B284824F1032B1","019cf4a6-3828-7541-8c63-d9f7e65d1430","019cf498-06e0-702e-b525-9cde1ad77653","","null","<div style=""background-color: white; width: 100vw; height: 100vh;""></div>","null","","","","","","","","",""
"","","","","","html-keyboard-response","59","231418","0.0-59.0","FFC04E568BB44DB0A7B284824F1032B1","019cf4a6-3828-7541-8c63-d9f7e65d1430","019cf498-06e0-702e-b525-9cde1ad77653","","null","
                <div class=""stimulus-container"">
                    <img src=""images/schematic_sequence/supermarket_scheme/supermarket_scheme_1.png"" class=""exp-image"">
                    <div class=""question-area""></div> 
                </div>","null","","","","","","","","",""
"","","","","","html-button-response","60","231891","0.0-60.0","FFC04E568BB44DB0A7B284824F1032B1","019cf4a6-3828-7541-8c63-d9f7e65d1430","019cf498-06e0-702e-b525-9cde1ad77653","","472","
                <div class=""stimulus-container"">
                    <img src=""images/schematic_sequence/supermarket_scheme/supermarket_scheme_1.png"" class=""exp-image"">
                    <div class=""question-area"">
                        <p style=""font-size: 20px; font-weight: bold; margin: 0;"">Is there a person in this image?</p>
                    </div>
                </div>","1","main_experiment_trial","1","supermarket_scheme","schematic_sequence","","","","",""
"","","","","","html-keyboard-response","61","236902","0.0-61.0","FFC04E568BB44DB0A7B284824F1032B1","019cf4a6-3828-7541-8c63-d9f7e65d1430","019cf498-06e0-702e-b525-9cde1ad77653","","null","
                <div class=""stimulus-container"">
                    <img src=""images/schematic_sequence/supermarket_scheme/supermarket_scheme_2.png"" class=""exp-image"">
                    <div class=""question-area""></div> 
                </div>","null","","","","","","","","",""
"","","","","","html-button-response","62","237562","0.0-62.0","FFC04E568BB44DB0A7B284824F1032B1","019cf4a6-3828-7541-8c63-d9f7e65d1430","019cf498-06e0-702e-b525-9cde1ad77653","","659","
                <div class=""stimulus-container"">
                    <img src=""images/schematic_sequence/supermarket_scheme/supermarket_scheme_2.png"" class=""exp-image"">
                    <div class=""question-area"">
                        <p style=""font-size: 20px; font-weight: bold; margin: 0;"">Is there a person in this image?</p>
                    </div>
                </div>","1","main_experiment_trial","2","supermarket_scheme","schematic_sequence","","","","",""
"","","","","","html-keyboard-response","63","242577","0.0-63.0","FFC04E568BB44DB0A7B284824F1032B1","019cf4a6-3828-7541-8c63-d9f7e65d1430","019cf498-06e0-702e-b525-9cde1ad77653","","null","
                <div class=""stimulus-container"">
                    <img src=""images/schematic_sequence/supermarket_scheme/supermarket_scheme_3.png"" class=""exp-image"">
                    <div class=""question-area""></div> 
                </div>","null","","","","","","","","",""
"","","","","","html-button-response","64","243577","0.0-64.0","FFC04E568BB44DB0A7B284824F1032B1","019cf4a6-3828-7541-8c63-d9f7e65d1430","019cf498-06e0-702e-b525-9cde1ad77653","","1000","
                <div class=""stimulus-container"">
                    <img src=""images/schematic_sequence/supermarket_scheme/supermarket_scheme_3.png"" class=""exp-image"">
                    <div class=""question-area"">
                        <p style=""font-size: 20px; font-weight: bold; margin: 0;"">Is there a person in this image?</p>
                    </div>
                </div>","1","main_experiment_trial","3","supermarket_scheme","schematic_sequence","","","","",""
"","","","","","html-keyboard-response","65","248578","0.0-65.0","FFC04E568BB44DB0A7B284824F1032B1","019cf4a6-3828-7541-8c63-d9f7e65d1430","019cf498-06e0-702e-b525-9cde1ad77653","","null","
                <div class=""stimulus-container"">
                    <img src=""images/schematic_sequence/supermarket_scheme/supermarket_scheme_4.png"" class=""exp-image"">
                    <div class=""question-area""></div> 
                </div>","null","","","","","","","","",""
"","","","","","html-button-response","66","248992","0.0-66.0","FFC04E568BB44DB0A7B284824F1032B1","019cf4a6-3828-7541-8c63-d9f7e65d1430","019cf498-06e0-702e-b525-9cde1ad77653","","413","
                <div class=""stimulus-container"">
                    <img src=""images/schematic_sequence/supermarket_scheme/supermarket_scheme_4.png"" class=""exp-image"">
                    <div class=""question-area"">
                        <p style=""font-size: 20px; font-weight: bold; margin: 0;"">Is there a person in this image?</p>
                    </div>
                </div>","0","main_experiment_trial","4","supermarket_scheme","schematic_sequence","","","","",""
"","","","","","html-keyboard-response","67","253997","0.0-67.0","FFC04E568BB44DB0A7B284824F1032B1","019cf4a6-3828-7541-8c63-d9f7e65d1430","019cf498-06e0-702e-b525-9cde1ad77653","","null","
                <div class=""stimulus-container"">
                    <img src=""images/schematic_sequence/supermarket_scheme/supermarket_scheme_5.png"" class=""exp-image"">
                    <div class=""question-area""></div> 
                </div>","null","","","","","","","","",""
"","","","","","html-button-response","68","254340","0.0-68.0","FFC04E568BB44DB0A7B284824F1032B1","019cf4a6-3828-7541-8c63-d9f7e65d1430","019cf498-06e0-702e-b525-9cde1ad77653","","342","
                <div class=""stimulus-container"">
                    <img src=""images/schematic_sequence/supermarket_scheme/supermarket_scheme_5.png"" class=""exp-image"">
                    <div class=""question-area"">
                        <p style=""font-size: 20px; font-weight: bold; margin: 0;"">Is there a person in this image?</p>
                    </div>
                </div>","1","main_experiment_trial","5","supermarket_scheme","schematic_sequence","","","","",""
"","","","","","html-keyboard-response","69","259341","0.0-69.0","FFC04E568BB44DB0A7B284824F1032B1","019cf4a6-3828-7541-8c63-d9f7e65d1430","019cf498-06e0-702e-b525-9cde1ad77653","","null","
                <div class=""stimulus-container"">
                    <img src=""images/schematic_sequence/supermarket_scheme/supermarket_scheme_6.png"" class=""exp-image"">
                    <div class=""question-area""></div> 
                </div>","null","","","","","","","","",""
"","","","","","html-button-response","70","259732","0.0-70.0","FFC04E568BB44DB0A7B284824F1032B1","019cf4a6-3828-7541-8c63-d9f7e65d1430","019cf498-06e0-702e-b525-9cde1ad77653","","391","
                <div class=""stimulus-container"">
                    <img src=""images/schematic_sequence/supermarket_scheme/supermarket_scheme_6.png"" class=""exp-image"">
                    <div class=""question-area"">
                        <p style=""font-size: 20px; font-weight: bold; margin: 0;"">Is there a person in this image?</p>
                    </div>
                </div>","0","main_experiment_trial","6","supermarket_scheme","schematic_sequence","","","","",""
"","","","","","html-keyboard-response","71","264740","0.0-71.0","FFC04E568BB44DB0A7B284824F1032B1","019cf4a6-3828-7541-8c63-d9f7e65d1430","019cf498-06e0-702e-b525-9cde1ad77653","","null","
                <div class=""stimulus-container"">
                    <img src=""images/schematic_sequence/supermarket_scheme/supermarket_scheme_7.png"" class=""exp-image"">
                    <div class=""question-area""></div> 
                </div>","null","","","","","","","","",""
"","","","","","html-button-response","72","265080","0.0-72.0","FFC04E568BB44DB0A7B284824F1032B1","019cf4a6-3828-7541-8c63-d9f7e65d1430","019cf498-06e0-702e-b525-9cde1ad77653","","339","
                <div class=""stimulus-container"">
                    <img src=""images/schematic_sequence/supermarket_scheme/supermarket_scheme_7.png"" class=""exp-image"">
                    <div class=""question-area"">
                        <p style=""font-size: 20px; font-weight: bold; margin: 0;"">Is there a person in this image?</p>
                    </div>
                </div>","0","main_experiment_trial","7","supermarket_scheme","schematic_sequence","","","","",""
"","","","","","html-keyboard-response","73","270096","0.0-73.0","FFC04E568BB44DB0A7B284824F1032B1","019cf4a6-3828-7541-8c63-d9f7e65d1430","019cf498-06e0-702e-b525-9cde1ad77653","","null","
                <div class=""stimulus-container"">
                    <img src=""images/schematic_sequence/supermarket_scheme/supermarket_scheme_8.png"" class=""exp-image"">
                    <div class=""question-area""></div> 
                </div>","null","","","","","","","","",""
"","","","","","html-button-response","74","270427","0.0-74.0","FFC04E568BB44DB0A7B284824F1032B1","019cf4a6-3828-7541-8c63-d9f7e65d1430","019cf498-06e0-702e-b525-9cde1ad77653","","331","
                <div class=""stimulus-container"">
                    <img src=""images/schematic_sequence/supermarket_scheme/supermarket_scheme_8.png"" class=""exp-image"">
                    <div class=""question-area"">
                        <p style=""font-size: 20px; font-weight: bold; margin: 0;"">Is there a person in this image?</p>
                    </div>
                </div>","0","main_experiment_trial","8","supermarket_scheme","schematic_sequence","","","","",""
"","","","","","html-keyboard-response","75","275443","0.0-75.0","FFC04E568BB44DB0A7B284824F1032B1","019cf4a6-3828-7541-8c63-d9f7e65d1430","019cf498-06e0-702e-b525-9cde1ad77653","","null","
                <div class=""stimulus-container"">
                    <img src=""images/schematic_sequence/supermarket_scheme/supermarket_scheme_9.png"" class=""exp-image"">
                    <div class=""question-area""></div> 
                </div>","null","","","","","","","","",""
"","","","","","html-button-response","76","275828","0.0-76.0","FFC04E568BB44DB0A7B284824F1032B1","019cf4a6-3828-7541-8c63-d9f7e65d1430","019cf498-06e0-702e-b525-9cde1ad77653","","384","
                <div class=""stimulus-container"">
                    <img src=""images/schematic_sequence/supermarket_scheme/supermarket_scheme_9.png"" class=""exp-image"">
                    <div class=""question-area"">
                        <p style=""font-size: 20px; font-weight: bold; margin: 0;"">Is there a person in this image?</p>
                    </div>
                </div>","0","main_experiment_trial","9","supermarket_scheme","schematic_sequence","","","","",""
"","","","","","html-keyboard-response","77","280832","0.0-77.0","FFC04E568BB44DB0A7B284824F1032B1","019cf4a6-3828-7541-8c63-d9f7e65d1430","019cf498-06e0-702e-b525-9cde1ad77653","","null","
                <div class=""stimulus-container"">
                    <img src=""images/schematic_sequence/supermarket_scheme/supermarket_scheme_ten.png"" class=""exp-image"">
                    <div class=""question-area""></div> 
                </div>","null","","","","","","","","",""
"","","","","","html-button-response","78","281708","0.0-78.0","FFC04E568BB44DB0A7B284824F1032B1","019cf4a6-3828-7541-8c63-d9f7e65d1430","019cf498-06e0-702e-b525-9cde1ad77653","","876","
                <div class=""stimulus-container"">
                    <img src=""images/schematic_sequence/supermarket_scheme/supermarket_scheme_ten.png"" class=""exp-image"">
                    <div class=""question-area"">
                        <p style=""font-size: 20px; font-weight: bold; margin: 0;"">Is there a person in this image?</p>
                    </div>
                </div>","1","main_experiment_trial","ten","supermarket_scheme","schematic_sequence","","","","",""
"","","","","","html-keyboard-response","79","282719","0.0-79.0","FFC04E568BB44DB0A7B284824F1032B1","019cf4a6-3828-7541-8c63-d9f7e65d1430","019cf498-06e0-702e-b525-9cde1ad77653","","null","<div style=""background-color: white; width: 100vw; height: 100vh;""></div>","null","","","","","","","","",""
"","","","","","html-keyboard-response","80","287732","0.0-80.0","FFC04E568BB44DB0A7B284824F1032B1","019cf4a6-3828-7541-8c63-d9f7e65d1430","019cf498-06e0-702e-b525-9cde1ad77653","","null","
                <div class=""stimulus-container"">
                    <img src=""images/causal_sequence/saving_a_cat_causal/saving_a_cat_causal_1.png"" class=""exp-image"">
                    <div class=""question-area""></div> 
                </div>","null","","","","","","","","",""
"","","","","","html-button-response","81","288293","0.0-81.0","FFC04E568BB44DB0A7B284824F1032B1","019cf4a6-3828-7541-8c63-d9f7e65d1430","019cf498-06e0-702e-b525-9cde1ad77653","","560","
                <div class=""stimulus-container"">
                    <img src=""images/causal_sequence/saving_a_cat_causal/saving_a_cat_causal_1.png"" class=""exp-image"">
                    <div class=""question-area"">
                        <p style=""font-size: 20px; font-weight: bold; margin: 0;"">Is there a person in this image?</p>
                    </div>
                </div>","0","main_experiment_trial","1","saving_a_cat_causal","causal_sequence","","","","",""
"","","","","","html-keyboard-response","82","293306","0.0-82.0","FFC04E568BB44DB0A7B284824F1032B1","019cf4a6-3828-7541-8c63-d9f7e65d1430","019cf498-06e0-702e-b525-9cde1ad77653","","null","
                <div class=""stimulus-container"">
                    <img src=""images/causal_sequence/saving_a_cat_causal/saving_a_cat_causal_2.png"" class=""exp-image"">
                    <div class=""question-area""></div> 
                </div>","null","","","","","","","","",""
"","","","","","html-button-response","83","294195","0.0-83.0","FFC04E568BB44DB0A7B284824F1032B1","019cf4a6-3828-7541-8c63-d9f7e65d1430","019cf498-06e0-702e-b525-9cde1ad77653","","888","
                <div class=""stimulus-container"">
                    <img src=""images/causal_sequence/saving_a_cat_causal/saving_a_cat_causal_2.png"" class=""exp-image"">
                    <div class=""question-area"">
                        <p style=""font-size: 20px; font-weight: bold; margin: 0;"">Is there a person in this image?</p>
                    </div>
                </div>","1","main_experiment_trial","2","saving_a_cat_causal","causal_sequence","","","","",""
"","","","","","html-keyboard-response","84","299197","0.0-84.0","FFC04E568BB44DB0A7B284824F1032B1","019cf4a6-3828-7541-8c63-d9f7e65d1430","019cf498-06e0-702e-b525-9cde1ad77653","","null","
                <div class=""stimulus-container"">
                    <img src=""images/causal_sequence/saving_a_cat_causal/saving_a_cat_causal_3.png"" class=""exp-image"">
                    <div class=""question-area""></div> 
                </div>","null","","","","","","","","",""
"","","","","","html-button-response","85","299873","0.0-85.0","FFC04E568BB44DB0A7B284824F1032B1","019cf4a6-3828-7541-8c63-d9f7e65d1430","019cf498-06e0-702e-b525-9cde1ad77653","","676","
                <div class=""stimulus-container"">
                    <img src=""images/causal_sequence/saving_a_cat_causal/saving_a_cat_causal_3.png"" class=""exp-image"">
                    <div class=""question-area"">
                        <p style=""font-size: 20px; font-weight: bold; margin: 0;"">Is there a person in this image?</p>
                    </div>
                </div>","1","main_experiment_trial","3","saving_a_cat_causal","causal_sequence","","","","",""
"","","","","","html-keyboard-response","86","304874","0.0-86.0","FFC04E568BB44DB0A7B284824F1032B1","019cf4a6-3828-7541-8c63-d9f7e65d1430","019cf498-06e0-702e-b525-9cde1ad77653","","null","
                <div class=""stimulus-container"">
                    <img src=""images/causal_sequence/saving_a_cat_causal/saving_a_cat_causal_4.png"" class=""exp-image"">
                    <div class=""question-area""></div> 
                </div>","null","","","","","","","","",""
"","","","","","html-button-response","87","305281","0.0-87.0","FFC04E568BB44DB0A7B284824F1032B1","019cf4a6-3828-7541-8c63-d9f7e65d1430","019cf498-06e0-702e-b525-9cde1ad77653","","406","
                <div class=""stimulus-container"">
                    <img src=""images/causal_sequence/saving_a_cat_causal/saving_a_cat_causal_4.png"" class=""exp-image"">
                    <div class=""question-area"">
                        <p style=""font-size: 20px; font-weight: bold; margin: 0;"">Is there a person in this image?</p>
                    </div>
                </div>","0","main_experiment_trial","4","saving_a_cat_causal","causal_sequence","","","","",""
"","","","","","html-keyboard-response","88","310282","0.0-88.0","FFC04E568BB44DB0A7B284824F1032B1","019cf4a6-3828-7541-8c63-d9f7e65d1430","019cf498-06e0-702e-b525-9cde1ad77653","","null","
                <div class=""stimulus-container"">
                    <img src=""images/causal_sequence/saving_a_cat_causal/saving_a_cat_causal_5.png"" class=""exp-image"">
                    <div class=""question-area""></div> 
                </div>","null","","","","","","","","",""
"","","","","","html-button-response","89","310688","0.0-89.0","FFC04E568BB44DB0A7B284824F1032B1","019cf4a6-3828-7541-8c63-d9f7e65d1430","019cf498-06e0-702e-b525-9cde1ad77653","","406","
                <div class=""stimulus-container"">
                    <img src=""images/causal_sequence/saving_a_cat_causal/saving_a_cat_causal_5.png"" class=""exp-image"">
                    <div class=""question-area"">
                        <p style=""font-size: 20px; font-weight: bold; margin: 0;"">Is there a person in this image?</p>
                    </div>
                </div>","0","main_experiment_trial","5","saving_a_cat_causal","causal_sequence","","","","",""
"","","","","","html-keyboard-response","90","315693","0.0-90.0","FFC04E568BB44DB0A7B284824F1032B1","019cf4a6-3828-7541-8c63-d9f7e65d1430","019cf498-06e0-702e-b525-9cde1ad77653","","null","
                <div class=""stimulus-container"">
                    <img src=""images/causal_sequence/saving_a_cat_causal/saving_a_cat_causal_6.png"" class=""exp-image"">
                    <div class=""question-area""></div> 
                </div>","null","","","","","","","","",""
"","","","","","html-button-response","91","316059","0.0-91.0","FFC04E568BB44DB0A7B284824F1032B1","019cf4a6-3828-7541-8c63-d9f7e65d1430","019cf498-06e0-702e-b525-9cde1ad77653","","365","
                <div class=""stimulus-container"">
                    <img src=""images/causal_sequence/saving_a_cat_causal/saving_a_cat_causal_6.png"" class=""exp-image"">
                    <div class=""question-area"">
                        <p style=""font-size: 20px; font-weight: bold; margin: 0;"">Is there a person in this image?</p>
                    </div>
                </div>","0","main_experiment_trial","6","saving_a_cat_causal","causal_sequence","","","","",""
"","","","","","html-keyboard-response","92","321070","0.0-92.0","FFC04E568BB44DB0A7B284824F1032B1","019cf4a6-3828-7541-8c63-d9f7e65d1430","019cf498-06e0-702e-b525-9cde1ad77653","","null","
                <div class=""stimulus-container"">
                    <img src=""images/causal_sequence/saving_a_cat_causal/saving_a_cat_causal_7.png"" class=""exp-image"">
                    <div class=""question-area""></div> 
                </div>","null","","","","","","","","",""
"","","","","","html-button-response","93","321481","0.0-93.0","FFC04E568BB44DB0A7B284824F1032B1","019cf4a6-3828-7541-8c63-d9f7e65d1430","019cf498-06e0-702e-b525-9cde1ad77653","","411","
                <div class=""stimulus-container"">
                    <img src=""images/causal_sequence/saving_a_cat_causal/saving_a_cat_causal_7.png"" class=""exp-image"">
                    <div class=""question-area"">
                        <p style=""font-size: 20px; font-weight: bold; margin: 0;"">Is there a person in this image?</p>
                    </div>
                </div>","0","main_experiment_trial","7","saving_a_cat_causal","causal_sequence","","","","",""
"","","","","","html-keyboard-response","94","326496","0.0-94.0","FFC04E568BB44DB0A7B284824F1032B1","019cf4a6-3828-7541-8c63-d9f7e65d1430","019cf498-06e0-702e-b525-9cde1ad77653","","null","
                <div class=""stimulus-container"">
                    <img src=""images/causal_sequence/saving_a_cat_causal/saving_a_cat_causal_8.png"" class=""exp-image"">
                    <div class=""question-area""></div> 
                </div>","null","","","","","","","","",""
"","","","","","html-button-response","95","326859","0.0-95.0","FFC04E568BB44DB0A7B284824F1032B1","019cf4a6-3828-7541-8c63-d9f7e65d1430","019cf498-06e0-702e-b525-9cde1ad77653","","363","
                <div class=""stimulus-container"">
                    <img src=""images/causal_sequence/saving_a_cat_causal/saving_a_cat_causal_8.png"" class=""exp-image"">
                    <div class=""question-area"">
                        <p style=""font-size: 20px; font-weight: bold; margin: 0;"">Is there a person in this image?</p>
                    </div>
                </div>","0","main_experiment_trial","8","saving_a_cat_causal","causal_sequence","","","","",""
"","","","","","html-keyboard-response","96","331870","0.0-96.0","FFC04E568BB44DB0A7B284824F1032B1","019cf4a6-3828-7541-8c63-d9f7e65d1430","019cf498-06e0-702e-b525-9cde1ad77653","","null","
                <div class=""stimulus-container"">
                    <img src=""images/causal_sequence/saving_a_cat_causal/saving_a_cat_causal_9.png"" class=""exp-image"">
                    <div class=""question-area""></div> 
                </div>","null","","","","","","","","",""
"","","","","","html-button-response","97","332807","0.0-97.0","FFC04E568BB44DB0A7B284824F1032B1","019cf4a6-3828-7541-8c63-d9f7e65d1430","019cf498-06e0-702e-b525-9cde1ad77653","","936","
                <div class=""stimulus-container"">
                    <img src=""images/causal_sequence/saving_a_cat_causal/saving_a_cat_causal_9.png"" class=""exp-image"">
                    <div class=""question-area"">
                        <p style=""font-size: 20px; font-weight: bold; margin: 0;"">Is there a person in this image?</p>
                    </div>
                </div>","0","main_experiment_trial","9","saving_a_cat_causal","causal_sequence","","","","",""
"","","","","","html-keyboard-response","98","337812","0.0-98.0","FFC04E568BB44DB0A7B284824F1032B1","019cf4a6-3828-7541-8c63-d9f7e65d1430","019cf498-06e0-702e-b525-9cde1ad77653","","null","
                <div class=""stimulus-container"">
                    <img src=""images/causal_sequence/saving_a_cat_causal/saving_a_cat_causal_ten.png"" class=""exp-image"">
                    <div class=""question-area""></div> 
                </div>","null","","","","","","","","",""
"","","","","","html-button-response","99","338454","0.0-99.0","FFC04E568BB44DB0A7B284824F1032B1","019cf4a6-3828-7541-8c63-d9f7e65d1430","019cf498-06e0-702e-b525-9cde1ad77653","","641","
                <div class=""stimulus-container"">
                    <img src=""images/causal_sequence/saving_a_cat_causal/saving_a_cat_causal_ten.png"" class=""exp-image"">
                    <div class=""question-area"">
                        <p style=""font-size: 20px; font-weight: bold; margin: 0;"">Is there a person in this image?</p>
                    </div>
                </div>","0","main_experiment_trial","ten","saving_a_cat_causal","causal_sequence","","","","",""
"","","","","","html-keyboard-response","100","339456","0.0-100.0","FFC04E568BB44DB0A7B284824F1032B1","019cf4a6-3828-7541-8c63-d9f7e65d1430","019cf498-06e0-702e-b525-9cde1ad77653","","null","<div style=""background-color: white; width: 100vw; height: 100vh;""></div>","null","","","","","","","","",""
"","","","","","html-keyboard-response","101","344467","0.0-101.0","FFC04E568BB44DB0A7B284824F1032B1","019cf4a6-3828-7541-8c63-d9f7e65d1430","019cf498-06e0-702e-b525-9cde1ad77653","","null","
                <div class=""stimulus-container"">
                    <img src=""images/causal_sequence/coin_causal/coin_causal_1.png"" class=""exp-image"">
                    <div class=""question-area""></div> 
                </div>","null","","","","","","","","",""
"","","","","","html-button-response","102","344897","0.0-102.0","FFC04E568BB44DB0A7B284824F1032B1","019cf4a6-3828-7541-8c63-d9f7e65d1430","019cf498-06e0-702e-b525-9cde1ad77653","","430","
                <div class=""stimulus-container"">
                    <img src=""images/causal_sequence/coin_causal/coin_causal_1.png"" class=""exp-image"">
                    <div class=""question-area"">
                        <p style=""font-size: 20px; font-weight: bold; margin: 0;"">Is there a person in this image?</p>
                    </div>
                </div>","0","main_experiment_trial","1","coin_causal","causal_sequence","","","","",""
"","","","","","html-keyboard-response","103","349908","0.0-103.0","FFC04E568BB44DB0A7B284824F1032B1","019cf4a6-3828-7541-8c63-d9f7e65d1430","019cf498-06e0-702e-b525-9cde1ad77653","","null","
                <div class=""stimulus-container"">
                    <img src=""images/causal_sequence/coin_causal/coin_causal_2.png"" class=""exp-image"">
                    <div class=""question-area""></div> 
                </div>","null","","","","","","","","",""
"","","","","","html-button-response","104","350304","0.0-104.0","FFC04E568BB44DB0A7B284824F1032B1","019cf4a6-3828-7541-8c63-d9f7e65d1430","019cf498-06e0-702e-b525-9cde1ad77653","","396","
                <div class=""stimulus-container"">
                    <img src=""images/causal_sequence/coin_causal/coin_causal_2.png"" class=""exp-image"">
                    <div class=""question-area"">
                        <p style=""font-size: 20px; font-weight: bold; margin: 0;"">Is there a person in this image?</p>
                    </div>
                </div>","0","main_experiment_trial","2","coin_causal","causal_sequence","","","","",""
"","","","","","html-keyboard-response","105","355314","0.0-105.0","FFC04E568BB44DB0A7B284824F1032B1","019cf4a6-3828-7541-8c63-d9f7e65d1430","019cf498-06e0-702e-b525-9cde1ad77653","","null","
                <div class=""stimulus-container"">
                    <img src=""images/causal_sequence/coin_causal/coin_causal_3.png"" class=""exp-image"">
                    <div class=""question-area""></div> 
                </div>","null","","","","","","","","",""
"","","","","","html-button-response","106","355674","0.0-106.0","FFC04E568BB44DB0A7B284824F1032B1","019cf4a6-3828-7541-8c63-d9f7e65d1430","019cf498-06e0-702e-b525-9cde1ad77653","","360","
                <div class=""stimulus-container"">
                    <img src=""images/causal_sequence/coin_causal/coin_causal_3.png"" class=""exp-image"">
                    <div class=""question-area"">
                        <p style=""font-size: 20px; font-weight: bold; margin: 0;"">Is there a person in this image?</p>
                    </div>
                </div>","0","main_experiment_trial","3","coin_causal","causal_sequence","","","","",""
"","","","","","html-keyboard-response","107","360683","0.0-107.0","FFC04E568BB44DB0A7B284824F1032B1","019cf4a6-3828-7541-8c63-d9f7e65d1430","019cf498-06e0-702e-b525-9cde1ad77653","","null","
                <div class=""stimulus-container"">
                    <img src=""images/causal_sequence/coin_causal/coin_causal_4.png"" class=""exp-image"">
                    <div class=""question-area""></div> 
                </div>","null","","","","","","","","",""
"","","","","","html-button-response","108","361052","0.0-108.0","FFC04E568BB44DB0A7B284824F1032B1","019cf4a6-3828-7541-8c63-d9f7e65d1430","019cf498-06e0-702e-b525-9cde1ad77653","","368","
                <div class=""stimulus-container"">
                    <img src=""images/causal_sequence/coin_causal/coin_causal_4.png"" class=""exp-image"">
                    <div class=""question-area"">
                        <p style=""font-size: 20px; font-weight: bold; margin: 0;"">Is there a person in this image?</p>
                    </div>
                </div>","0","main_experiment_trial","4","coin_causal","causal_sequence","","","","",""
"","","","","","html-keyboard-response","109","366064","0.0-109.0","FFC04E568BB44DB0A7B284824F1032B1","019cf4a6-3828-7541-8c63-d9f7e65d1430","019cf498-06e0-702e-b525-9cde1ad77653","","null","
                <div class=""stimulus-container"">
                    <img src=""images/causal_sequence/coin_causal/coin_causal_5.png"" class=""exp-image"">
                    <div class=""question-area""></div> 
                </div>","null","","","","","","","","",""
"","","","","","html-button-response","110","366467","0.0-110.0","FFC04E568BB44DB0A7B284824F1032B1","019cf4a6-3828-7541-8c63-d9f7e65d1430","019cf498-06e0-702e-b525-9cde1ad77653","","403","
                <div class=""stimulus-container"">
                    <img src=""images/causal_sequence/coin_causal/coin_causal_5.png"" class=""exp-image"">
                    <div class=""question-area"">
                        <p style=""font-size: 20px; font-weight: bold; margin: 0;"">Is there a person in this image?</p>
                    </div>
                </div>","0","main_experiment_trial","5","coin_causal","causal_sequence","","","","",""
"","","","","","html-keyboard-response","111","371479","0.0-111.0","FFC04E568BB44DB0A7B284824F1032B1","019cf4a6-3828-7541-8c63-d9f7e65d1430","019cf498-06e0-702e-b525-9cde1ad77653","","null","
                <div class=""stimulus-container"">
                    <img src=""images/causal_sequence/coin_causal/coin_causal_6.png"" class=""exp-image"">
                    <div class=""question-area""></div> 
                </div>","null","","","","","","","","",""
"","","","","","html-button-response","112","371920","0.0-112.0","FFC04E568BB44DB0A7B284824F1032B1","019cf4a6-3828-7541-8c63-d9f7e65d1430","019cf498-06e0-702e-b525-9cde1ad77653","","441","
                <div class=""stimulus-container"">
                    <img src=""images/causal_sequence/coin_causal/coin_causal_6.png"" class=""exp-image"">
                    <div class=""question-area"">
                        <p style=""font-size: 20px; font-weight: bold; margin: 0;"">Is there a person in this image?</p>
                    </div>
                </div>","0","main_experiment_trial","6","coin_causal","causal_sequence","","","","",""
"","","","","","html-keyboard-response","113","376922","0.0-113.0","FFC04E568BB44DB0A7B284824F1032B1","019cf4a6-3828-7541-8c63-d9f7e65d1430","019cf498-06e0-702e-b525-9cde1ad77653","","null","
                <div class=""stimulus-container"">
                    <img src=""images/causal_sequence/coin_causal/coin_causal_7.png"" class=""exp-image"">
                    <div class=""question-area""></div> 
                </div>","null","","","","","","","","",""
"","","","","","html-button-response","114","377583","0.0-114.0","FFC04E568BB44DB0A7B284824F1032B1","019cf4a6-3828-7541-8c63-d9f7e65d1430","019cf498-06e0-702e-b525-9cde1ad77653","","661","
                <div class=""stimulus-container"">
                    <img src=""images/causal_sequence/coin_causal/coin_causal_7.png"" class=""exp-image"">
                    <div class=""question-area"">
                        <p style=""font-size: 20px; font-weight: bold; margin: 0;"">Is there a person in this image?</p>
                    </div>
                </div>","1","main_experiment_trial","7","coin_causal","causal_sequence","","","","",""
"","","","","","html-keyboard-response","115","382595","0.0-115.0","FFC04E568BB44DB0A7B284824F1032B1","019cf4a6-3828-7541-8c63-d9f7e65d1430","019cf498-06e0-702e-b525-9cde1ad77653","","null","
                <div class=""stimulus-container"">
                    <img src=""images/causal_sequence/coin_causal/coin_causal_8.png"" class=""exp-image"">
                    <div class=""question-area""></div> 
                </div>","null","","","","","","","","",""
"","","","","","html-button-response","116","383523","0.0-116.0","FFC04E568BB44DB0A7B284824F1032B1","019cf4a6-3828-7541-8c63-d9f7e65d1430","019cf498-06e0-702e-b525-9cde1ad77653","","928","
                <div class=""stimulus-container"">
                    <img src=""images/causal_sequence/coin_causal/coin_causal_8.png"" class=""exp-image"">
                    <div class=""question-area"">
                        <p style=""font-size: 20px; font-weight: bold; margin: 0;"">Is there a person in this image?</p>
                    </div>
                </div>","0","main_experiment_trial","8","coin_causal","causal_sequence","","","","",""
"","","","","","html-keyboard-response","117","388536","0.0-117.0","FFC04E568BB44DB0A7B284824F1032B1","019cf4a6-3828-7541-8c63-d9f7e65d1430","019cf498-06e0-702e-b525-9cde1ad77653","","null","
                <div class=""stimulus-container"">
                    <img src=""images/causal_sequence/coin_causal/coin_causal_9.png"" class=""exp-image"">
                    <div class=""question-area""></div> 
                </div>","null","","","","","","","","",""
"","","","","","html-button-response","118","389801","0.0-118.0","FFC04E568BB44DB0A7B284824F1032B1","019cf4a6-3828-7541-8c63-d9f7e65d1430","019cf498-06e0-702e-b525-9cde1ad77653","","1265","
                <div class=""stimulus-container"">
                    <img src=""images/causal_sequence/coin_causal/coin_causal_9.png"" class=""exp-image"">
                    <div class=""question-area"">
                        <p style=""font-size: 20px; font-weight: bold; margin: 0;"">Is there a person in this image?</p>
                    </div>
                </div>","0","main_experiment_trial","9","coin_causal","causal_sequence","","","","",""
"","","","","","html-keyboard-response","119","394806","0.0-119.0","FFC04E568BB44DB0A7B284824F1032B1","019cf4a6-3828-7541-8c63-d9f7e65d1430","019cf498-06e0-702e-b525-9cde1ad77653","","null","
                <div class=""stimulus-container"">
                    <img src=""images/causal_sequence/coin_causal/coin_causal_ten.png"" class=""exp-image"">
                    <div class=""question-area""></div> 
                </div>","null","","","","","","","","",""
"","","","","","html-button-response","120","395208","0.0-120.0","FFC04E568BB44DB0A7B284824F1032B1","019cf4a6-3828-7541-8c63-d9f7e65d1430","019cf498-06e0-702e-b525-9cde1ad77653","","402","
                <div class=""stimulus-container"">
                    <img src=""images/causal_sequence/coin_causal/coin_causal_ten.png"" class=""exp-image"">
                    <div class=""question-area"">
                        <p style=""font-size: 20px; font-weight: bold; margin: 0;"">Is there a person in this image?</p>
                    </div>
                </div>","0","main_experiment_trial","ten","coin_causal","causal_sequence","","","","",""
"","","","","","html-keyboard-response","121","396210","0.0-121.0","FFC04E568BB44DB0A7B284824F1032B1","019cf4a6-3828-7541-8c63-d9f7e65d1430","019cf498-06e0-702e-b525-9cde1ad77653","","null","<div style=""background-color: white; width: 100vw; height: 100vh;""></div>","null","","","","","","","","",""
"","","","","","html-keyboard-response","122","401210","0.0-122.0","FFC04E568BB44DB0A7B284824F1032B1","019cf4a6-3828-7541-8c63-d9f7e65d1430","019cf498-06e0-702e-b525-9cde1ad77653","","null","
                <div class=""stimulus-container"">
                    <img src=""images/causal_sequence/dog_causal/dog_causal_1.png"" class=""exp-image"">
                    <div class=""question-area""></div> 
                </div>","null","","","","","","","","",""
"","","","","","html-button-response","123","401591","0.0-123.0","FFC04E568BB44DB0A7B284824F1032B1","019cf4a6-3828-7541-8c63-d9f7e65d1430","019cf498-06e0-702e-b525-9cde1ad77653","","380","
                <div class=""stimulus-container"">
                    <img src=""images/causal_sequence/dog_causal/dog_causal_1.png"" class=""exp-image"">
                    <div class=""question-area"">
                        <p style=""font-size: 20px; font-weight: bold; margin: 0;"">Is there a person in this image?</p>
                    </div>
                </div>","0","main_experiment_trial","1","dog_causal","causal_sequence","","","","",""
"","","","","","html-keyboard-response","124","406606","0.0-124.0","FFC04E568BB44DB0A7B284824F1032B1","019cf4a6-3828-7541-8c63-d9f7e65d1430","019cf498-06e0-702e-b525-9cde1ad77653","","null","
                <div class=""stimulus-container"">
                    <img src=""images/causal_sequence/dog_causal/dog_causal_2.png"" class=""exp-image"">
                    <div class=""question-area""></div> 
                </div>","null","","","","","","","","",""
"","","","","","html-button-response","125","407103","0.0-125.0","FFC04E568BB44DB0A7B284824F1032B1","019cf4a6-3828-7541-8c63-d9f7e65d1430","019cf498-06e0-702e-b525-9cde1ad77653","","497","
                <div class=""stimulus-container"">
                    <img src=""images/causal_sequence/dog_causal/dog_causal_2.png"" class=""exp-image"">
                    <div class=""question-area"">
                        <p style=""font-size: 20px; font-weight: bold; margin: 0;"">Is there a person in this image?</p>
                    </div>
                </div>","0","main_experiment_trial","2","dog_causal","causal_sequence","","","","",""
"","","","","","html-keyboard-response","126","412117","0.0-126.0","FFC04E568BB44DB0A7B284824F1032B1","019cf4a6-3828-7541-8c63-d9f7e65d1430","019cf498-06e0-702e-b525-9cde1ad77653","","null","
                <div class=""stimulus-container"">
                    <img src=""images/causal_sequence/dog_causal/dog_causal_3.png"" class=""exp-image"">
                    <div class=""question-area""></div> 
                </div>","null","","","","","","","","",""
"","","","","","html-button-response","127","412586","0.0-127.0","FFC04E568BB44DB0A7B284824F1032B1","019cf4a6-3828-7541-8c63-d9f7e65d1430","019cf498-06e0-702e-b525-9cde1ad77653","","469","
                <div class=""stimulus-container"">
                    <img src=""images/causal_sequence/dog_causal/dog_causal_3.png"" class=""exp-image"">
                    <div class=""question-area"">
                        <p style=""font-size: 20px; font-weight: bold; margin: 0;"">Is there a person in this image?</p>
                    </div>
                </div>","0","main_experiment_trial","3","dog_causal","causal_sequence","","","","",""
"","","","","","html-keyboard-response","128","417589","0.0-128.0","FFC04E568BB44DB0A7B284824F1032B1","019cf4a6-3828-7541-8c63-d9f7e65d1430","019cf498-06e0-702e-b525-9cde1ad77653","","null","
                <div class=""stimulus-container"">
                    <img src=""images/causal_sequence/dog_causal/dog_causal_4.png"" class=""exp-image"">
                    <div class=""question-area""></div> 
                </div>","null","","","","","","","","",""
"","","","","","html-button-response","129","417963","0.0-129.0","FFC04E568BB44DB0A7B284824F1032B1","019cf4a6-3828-7541-8c63-d9f7e65d1430","019cf498-06e0-702e-b525-9cde1ad77653","","374","
                <div class=""stimulus-container"">
                    <img src=""images/causal_sequence/dog_causal/dog_causal_4.png"" class=""exp-image"">
                    <div class=""question-area"">
                        <p style=""font-size: 20px; font-weight: bold; margin: 0;"">Is there a person in this image?</p>
                    </div>
                </div>","0","main_experiment_trial","4","dog_causal","causal_sequence","","","","",""
"","","","","","html-keyboard-response","130","422977","0.0-130.0","FFC04E568BB44DB0A7B284824F1032B1","019cf4a6-3828-7541-8c63-d9f7e65d1430","019cf498-06e0-702e-b525-9cde1ad77653","","null","
                <div class=""stimulus-container"">
                    <img src=""images/causal_sequence/dog_causal/dog_causal_5.png"" class=""exp-image"">
                    <div class=""question-area""></div> 
                </div>","null","","","","","","","","",""
"","","","","","html-button-response","131","423506","0.0-131.0","FFC04E568BB44DB0A7B284824F1032B1","019cf4a6-3828-7541-8c63-d9f7e65d1430","019cf498-06e0-702e-b525-9cde1ad77653","","529","
                <div class=""stimulus-container"">
                    <img src=""images/causal_sequence/dog_causal/dog_causal_5.png"" class=""exp-image"">
                    <div class=""question-area"">
                        <p style=""font-size: 20px; font-weight: bold; margin: 0;"">Is there a person in this image?</p>
                    </div>
                </div>","0","main_experiment_trial","5","dog_causal","causal_sequence","","","","",""
"","","","","","html-keyboard-response","132","428521","0.0-132.0","FFC04E568BB44DB0A7B284824F1032B1","019cf4a6-3828-7541-8c63-d9f7e65d1430","019cf498-06e0-702e-b525-9cde1ad77653","","null","
                <div class=""stimulus-container"">
                    <img src=""images/causal_sequence/dog_causal/dog_causal_6.png"" class=""exp-image"">
                    <div class=""question-area""></div> 
                </div>","null","","","","","","","","",""
"","","","","","html-button-response","133","429117","0.0-133.0","FFC04E568BB44DB0A7B284824F1032B1","019cf4a6-3828-7541-8c63-d9f7e65d1430","019cf498-06e0-702e-b525-9cde1ad77653","","595","
                <div class=""stimulus-container"">
                    <img src=""images/causal_sequence/dog_causal/dog_causal_6.png"" class=""exp-image"">
                    <div class=""question-area"">
                        <p style=""font-size: 20px; font-weight: bold; margin: 0;"">Is there a person in this image?</p>
                    </div>
                </div>","0","main_experiment_trial","6","dog_causal","causal_sequence","","","","",""
"","","","","","html-keyboard-response","134","434122","0.0-134.0","FFC04E568BB44DB0A7B284824F1032B1","019cf4a6-3828-7541-8c63-d9f7e65d1430","019cf498-06e0-702e-b525-9cde1ad77653","","null","
                <div class=""stimulus-container"">
                    <img src=""images/causal_sequence/dog_causal/dog_causal_7.png"" class=""exp-image"">
                    <div class=""question-area""></div> 
                </div>","null","","","","","","","","",""
"","","","","","html-button-response","135","434577","0.0-135.0","FFC04E568BB44DB0A7B284824F1032B1","019cf4a6-3828-7541-8c63-d9f7e65d1430","019cf498-06e0-702e-b525-9cde1ad77653","","454","
                <div class=""stimulus-container"">
                    <img src=""images/causal_sequence/dog_causal/dog_causal_7.png"" class=""exp-image"">
                    <div class=""question-area"">
                        <p style=""font-size: 20px; font-weight: bold; margin: 0;"">Is there a person in this image?</p>
                    </div>
                </div>","0","main_experiment_trial","7","dog_causal","causal_sequence","","","","",""
"","","","","","html-keyboard-response","136","439592","0.0-136.0","FFC04E568BB44DB0A7B284824F1032B1","019cf4a6-3828-7541-8c63-d9f7e65d1430","019cf498-06e0-702e-b525-9cde1ad77653","","null","
                <div class=""stimulus-container"">
                    <img src=""images/causal_sequence/dog_causal/dog_causal_8.png"" class=""exp-image"">
                    <div class=""question-area""></div> 
                </div>","null","","","","","","","","",""
"","","","","","html-button-response","137","440052","0.0-137.0","FFC04E568BB44DB0A7B284824F1032B1","019cf4a6-3828-7541-8c63-d9f7e65d1430","019cf498-06e0-702e-b525-9cde1ad77653","","459","
                <div class=""stimulus-container"">
                    <img src=""images/causal_sequence/dog_causal/dog_causal_8.png"" class=""exp-image"">
                    <div class=""question-area"">
                        <p style=""font-size: 20px; font-weight: bold; margin: 0;"">Is there a person in this image?</p>
                    </div>
                </div>","0","main_experiment_trial","8","dog_causal","causal_sequence","","","","",""
"","","","","","html-keyboard-response","138","445057","0.0-138.0","FFC04E568BB44DB0A7B284824F1032B1","019cf4a6-3828-7541-8c63-d9f7e65d1430","019cf498-06e0-702e-b525-9cde1ad77653","","null","
                <div class=""stimulus-container"">
                    <img src=""images/causal_sequence/dog_causal/dog_causal_9.png"" class=""exp-image"">
                    <div class=""question-area""></div> 
                </div>","null","","","","","","","","",""
"","","","","","html-button-response","139","445467","0.0-139.0","FFC04E568BB44DB0A7B284824F1032B1","019cf4a6-3828-7541-8c63-d9f7e65d1430","019cf498-06e0-702e-b525-9cde1ad77653","","409","
                <div class=""stimulus-container"">
                    <img src=""images/causal_sequence/dog_causal/dog_causal_9.png"" class=""exp-image"">
                    <div class=""question-area"">
                        <p style=""font-size: 20px; font-weight: bold; margin: 0;"">Is there a person in this image?</p>
                    </div>
                </div>","0","main_experiment_trial","9","dog_causal","causal_sequence","","","","",""
"","","","","","html-keyboard-response","140","450477","0.0-140.0","FFC04E568BB44DB0A7B284824F1032B1","019cf4a6-3828-7541-8c63-d9f7e65d1430","019cf498-06e0-702e-b525-9cde1ad77653","","null","
                <div class=""stimulus-container"">
                    <img src=""images/causal_sequence/dog_causal/dog_causal_ten.png"" class=""exp-image"">
                    <div class=""question-area""></div> 
                </div>","null","","","","","","","","",""
"","","","","","html-button-response","141","450829","0.0-141.0","FFC04E568BB44DB0A7B284824F1032B1","019cf4a6-3828-7541-8c63-d9f7e65d1430","019cf498-06e0-702e-b525-9cde1ad77653","","352","
                <div class=""stimulus-container"">
                    <img src=""images/causal_sequence/dog_causal/dog_causal_ten.png"" class=""exp-image"">
                    <div class=""question-area"">
                        <p style=""font-size: 20px; font-weight: bold; margin: 0;"">Is there a person in this image?</p>
                    </div>
                </div>","0","main_experiment_trial","ten","dog_causal","causal_sequence","","","","",""
"","","","","","html-keyboard-response","142","451831","0.0-142.0","FFC04E568BB44DB0A7B284824F1032B1","019cf4a6-3828-7541-8c63-d9f7e65d1430","019cf498-06e0-702e-b525-9cde1ad77653","","null","<div style=""background-color: white; width: 100vw; height: 100vh;""></div>","null","","","","","","","","",""
"","","","","","html-keyboard-response","143","456832","0.0-143.0","FFC04E568BB44DB0A7B284824F1032B1","019cf4a6-3828-7541-8c63-d9f7e65d1430","019cf498-06e0-702e-b525-9cde1ad77653","","null","
                <div class=""stimulus-container"">
                    <img src=""images/causal_sequence/museum_causal/museum_causal_1.png"" class=""exp-image"">
                    <div class=""question-area""></div> 
                </div>","null","","","","","","","","",""
"","","","","","html-button-response","144","457242","0.0-144.0","FFC04E568BB44DB0A7B284824F1032B1","019cf4a6-3828-7541-8c63-d9f7e65d1430","019cf498-06e0-702e-b525-9cde1ad77653","","410","
                <div class=""stimulus-container"">
                    <img src=""images/causal_sequence/museum_causal/museum_causal_1.png"" class=""exp-image"">
                    <div class=""question-area"">
                        <p style=""font-size: 20px; font-weight: bold; margin: 0;"">Is there a person in this image?</p>
                    </div>
                </div>","0","main_experiment_trial","1","museum_causal","causal_sequence","","","","",""
"","","","","","html-keyboard-response","145","462259","0.0-145.0","FFC04E568BB44DB0A7B284824F1032B1","019cf4a6-3828-7541-8c63-d9f7e65d1430","019cf498-06e0-702e-b525-9cde1ad77653","","null","
                <div class=""stimulus-container"">
                    <img src=""images/causal_sequence/museum_causal/museum_causal_2.png"" class=""exp-image"">
                    <div class=""question-area""></div> 
                </div>","null","","","","","","","","",""
"","","","","","html-button-response","146","462605","0.0-146.0","FFC04E568BB44DB0A7B284824F1032B1","019cf4a6-3828-7541-8c63-d9f7e65d1430","019cf498-06e0-702e-b525-9cde1ad77653","","346","
                <div class=""stimulus-container"">
                    <img src=""images/causal_sequence/museum_causal/museum_causal_2.png"" class=""exp-image"">
                    <div class=""question-area"">
                        <p style=""font-size: 20px; font-weight: bold; margin: 0;"">Is there a person in this image?</p>
                    </div>
                </div>","0","main_experiment_trial","2","museum_causal","causal_sequence","","","","",""
"","","","","","html-keyboard-response","147","467614","0.0-147.0","FFC04E568BB44DB0A7B284824F1032B1","019cf4a6-3828-7541-8c63-d9f7e65d1430","019cf498-06e0-702e-b525-9cde1ad77653","","null","
                <div class=""stimulus-container"">
                    <img src=""images/causal_sequence/museum_causal/museum_causal_3.png"" class=""exp-image"">
                    <div class=""question-area""></div> 
                </div>","null","","","","","","","","",""
"","","","","","html-button-response","148","467998","0.0-148.0","FFC04E568BB44DB0A7B284824F1032B1","019cf4a6-3828-7541-8c63-d9f7e65d1430","019cf498-06e0-702e-b525-9cde1ad77653","","383","
                <div class=""stimulus-container"">
                    <img src=""images/causal_sequence/museum_causal/museum_causal_3.png"" class=""exp-image"">
                    <div class=""question-area"">
                        <p style=""font-size: 20px; font-weight: bold; margin: 0;"">Is there a person in this image?</p>
                    </div>
                </div>","0","main_experiment_trial","3","museum_causal","causal_sequence","","","","",""
"","","","","","html-keyboard-response","149","473004","0.0-149.0","FFC04E568BB44DB0A7B284824F1032B1","019cf4a6-3828-7541-8c63-d9f7e65d1430","019cf498-06e0-702e-b525-9cde1ad77653","","null","
                <div class=""stimulus-container"">
                    <img src=""images/causal_sequence/museum_causal/museum_causal_4.png"" class=""exp-image"">
                    <div class=""question-area""></div> 
                </div>","null","","","","","","","","",""
"","","","","","html-button-response","150","473419","0.0-150.0","FFC04E568BB44DB0A7B284824F1032B1","019cf4a6-3828-7541-8c63-d9f7e65d1430","019cf498-06e0-702e-b525-9cde1ad77653","","415","
                <div class=""stimulus-container"">
                    <img src=""images/causal_sequence/museum_causal/museum_causal_4.png"" class=""exp-image"">
                    <div class=""question-area"">
                        <p style=""font-size: 20px; font-weight: bold; margin: 0;"">Is there a person in this image?</p>
                    </div>
                </div>","1","main_experiment_trial","4","museum_causal","causal_sequence","","","","",""
"","","","","","html-keyboard-response","151","478430","0.0-151.0","FFC04E568BB44DB0A7B284824F1032B1","019cf4a6-3828-7541-8c63-d9f7e65d1430","019cf498-06e0-702e-b525-9cde1ad77653","","null","
                <div class=""stimulus-container"">
                    <img src=""images/causal_sequence/museum_causal/museum_causal_5.png"" class=""exp-image"">
                    <div class=""question-area""></div> 
                </div>","null","","","","","","","","",""
"","","","","","html-button-response","152","478752","0.0-152.0","FFC04E568BB44DB0A7B284824F1032B1","019cf4a6-3828-7541-8c63-d9f7e65d1430","019cf498-06e0-702e-b525-9cde1ad77653","","321","
                <div class=""stimulus-container"">
                    <img src=""images/causal_sequence/museum_causal/museum_causal_5.png"" class=""exp-image"">
                    <div class=""question-area"">
                        <p style=""font-size: 20px; font-weight: bold; margin: 0;"">Is there a person in this image?</p>
                    </div>
                </div>","0","main_experiment_trial","5","museum_causal","causal_sequence","","","","",""
"","","","","","html-keyboard-response","153","483755","0.0-153.0","FFC04E568BB44DB0A7B284824F1032B1","019cf4a6-3828-7541-8c63-d9f7e65d1430","019cf498-06e0-702e-b525-9cde1ad77653","","null","
                <div class=""stimulus-container"">
                    <img src=""images/causal_sequence/museum_causal/museum_causal_6.png"" class=""exp-image"">
                    <div class=""question-area""></div> 
                </div>","null","","","","","","","","",""
"","","","","","html-button-response","154","484438","0.0-154.0","FFC04E568BB44DB0A7B284824F1032B1","019cf4a6-3828-7541-8c63-d9f7e65d1430","019cf498-06e0-702e-b525-9cde1ad77653","","683","
                <div class=""stimulus-container"">
                    <img src=""images/causal_sequence/museum_causal/museum_causal_6.png"" class=""exp-image"">
                    <div class=""question-area"">
                        <p style=""font-size: 20px; font-weight: bold; margin: 0;"">Is there a person in this image?</p>
                    </div>
                </div>","0","main_experiment_trial","6","museum_causal","causal_sequence","","","","",""
"","","","","","html-keyboard-response","155","489451","0.0-155.0","FFC04E568BB44DB0A7B284824F1032B1","019cf4a6-3828-7541-8c63-d9f7e65d1430","019cf498-06e0-702e-b525-9cde1ad77653","","null","
                <div class=""stimulus-container"">
                    <img src=""images/causal_sequence/museum_causal/museum_causal_7.png"" class=""exp-image"">
                    <div class=""question-area""></div> 
                </div>","null","","","","","","","","",""
"","","","","","html-button-response","156","489800","0.0-156.0","FFC04E568BB44DB0A7B284824F1032B1","019cf4a6-3828-7541-8c63-d9f7e65d1430","019cf498-06e0-702e-b525-9cde1ad77653","","348","
                <div class=""stimulus-container"">
                    <img src=""images/causal_sequence/museum_causal/museum_causal_7.png"" class=""exp-image"">
                    <div class=""question-area"">
                        <p style=""font-size: 20px; font-weight: bold; margin: 0;"">Is there a person in this image?</p>
                    </div>
                </div>","1","main_experiment_trial","7","museum_causal","causal_sequence","","","","",""
"","","","","","html-keyboard-response","157","494810","0.0-157.0","FFC04E568BB44DB0A7B284824F1032B1","019cf4a6-3828-7541-8c63-d9f7e65d1430","019cf498-06e0-702e-b525-9cde1ad77653","","null","
                <div class=""stimulus-container"">
                    <img src=""images/causal_sequence/museum_causal/museum_causal_8.png"" class=""exp-image"">
                    <div class=""question-area""></div> 
                </div>","null","","","","","","","","",""
"","","","","","html-button-response","158","495290","0.0-158.0","FFC04E568BB44DB0A7B284824F1032B1","019cf4a6-3828-7541-8c63-d9f7e65d1430","019cf498-06e0-702e-b525-9cde1ad77653","","479","
                <div class=""stimulus-container"">
                    <img src=""images/causal_sequence/museum_causal/museum_causal_8.png"" class=""exp-image"">
                    <div class=""question-area"">
                        <p style=""font-size: 20px; font-weight: bold; margin: 0;"">Is there a person in this image?</p>
                    </div>
                </div>","0","main_experiment_trial","8","museum_causal","causal_sequence","","","","",""
"","","","","","html-keyboard-response","159","500294","0.0-159.0","FFC04E568BB44DB0A7B284824F1032B1","019cf4a6-3828-7541-8c63-d9f7e65d1430","019cf498-06e0-702e-b525-9cde1ad77653","","null","
                <div class=""stimulus-container"">
                    <img src=""images/causal_sequence/museum_causal/museum_causal_9.png"" class=""exp-image"">
                    <div class=""question-area""></div> 
                </div>","null","","","","","","","","",""
"","","","","","html-button-response","160","500630","0.0-160.0","FFC04E568BB44DB0A7B284824F1032B1","019cf4a6-3828-7541-8c63-d9f7e65d1430","019cf498-06e0-702e-b525-9cde1ad77653","","335","
                <div class=""stimulus-container"">
                    <img src=""images/causal_sequence/museum_causal/museum_causal_9.png"" class=""exp-image"">
                    <div class=""question-area"">
                        <p style=""font-size: 20px; font-weight: bold; margin: 0;"">Is there a person in this image?</p>
                    </div>
                </div>","1","main_experiment_trial","9","museum_causal","causal_sequence","","","","",""
"","","","","","html-keyboard-response","161","505635","0.0-161.0","FFC04E568BB44DB0A7B284824F1032B1","019cf4a6-3828-7541-8c63-d9f7e65d1430","019cf498-06e0-702e-b525-9cde1ad77653","","null","
                <div class=""stimulus-container"">
                    <img src=""images/causal_sequence/museum_causal/museum_causal_ten.png"" class=""exp-image"">
                    <div class=""question-area""></div> 
                </div>","null","","","","","","","","",""
"","","","","","html-button-response","162","506023","0.0-162.0","FFC04E568BB44DB0A7B284824F1032B1","019cf4a6-3828-7541-8c63-d9f7e65d1430","019cf498-06e0-702e-b525-9cde1ad77653","","387","
                <div class=""stimulus-container"">
                    <img src=""images/causal_sequence/museum_causal/museum_causal_ten.png"" class=""exp-image"">
                    <div class=""question-area"">
                        <p style=""font-size: 20px; font-weight: bold; margin: 0;"">Is there a person in this image?</p>
                    </div>
                </div>","0","main_experiment_trial","ten","museum_causal","causal_sequence","","","","",""
"","","","","","html-keyboard-response","163","507036","0.0-163.0","FFC04E568BB44DB0A7B284824F1032B1","019cf4a6-3828-7541-8c63-d9f7e65d1430","019cf498-06e0-702e-b525-9cde1ad77653","","null","<div style=""background-color: white; width: 100vw; height: 100vh;""></div>","null","","","","","","","","",""
"","","","","","html-keyboard-response","164","512044","0.0-164.0","FFC04E568BB44DB0A7B284824F1032B1","019cf4a6-3828-7541-8c63-d9f7e65d1430","019cf498-06e0-702e-b525-9cde1ad77653","","null","
                <div class=""stimulus-container"">
                    <img src=""images/schematic_sequence/dinner_party_scheme/dinner_party_scheme_1.png"" class=""exp-image"">
                    <div class=""question-area""></div> 
                </div>","null","","","","","","","","",""
"","","","","","html-button-response","165","512759","0.0-165.0","FFC04E568BB44DB0A7B284824F1032B1","019cf4a6-3828-7541-8c63-d9f7e65d1430","019cf498-06e0-702e-b525-9cde1ad77653","","714","
                <div class=""stimulus-container"">
                    <img src=""images/schematic_sequence/dinner_party_scheme/dinner_party_scheme_1.png"" class=""exp-image"">
                    <div class=""question-area"">
                        <p style=""font-size: 20px; font-weight: bold; margin: 0;"">Is there a person in this image?</p>
                    </div>
                </div>","0","main_experiment_trial","1","dinner_party_scheme","schematic_sequence","","","","",""
"","","","","","html-keyboard-response","166","517762","0.0-166.0","FFC04E568BB44DB0A7B284824F1032B1","019cf4a6-3828-7541-8c63-d9f7e65d1430","019cf498-06e0-702e-b525-9cde1ad77653","","null","
                <div class=""stimulus-container"">
                    <img src=""images/schematic_sequence/dinner_party_scheme/dinner_party_scheme_2.png"" class=""exp-image"">
                    <div class=""question-area""></div> 
                </div>","null","","","","","","","","",""
"","","","","","html-button-response","167","518181","0.0-167.0","FFC04E568BB44DB0A7B284824F1032B1","019cf4a6-3828-7541-8c63-d9f7e65d1430","019cf498-06e0-702e-b525-9cde1ad77653","","419","
                <div class=""stimulus-container"">
                    <img src=""images/schematic_sequence/dinner_party_scheme/dinner_party_scheme_2.png"" class=""exp-image"">
                    <div class=""question-area"">
                        <p style=""font-size: 20px; font-weight: bold; margin: 0;"">Is there a person in this image?</p>
                    </div>
                </div>","0","main_experiment_trial","2","dinner_party_scheme","schematic_sequence","","","","",""
"","","","","","html-keyboard-response","168","523186","0.0-168.0","FFC04E568BB44DB0A7B284824F1032B1","019cf4a6-3828-7541-8c63-d9f7e65d1430","019cf498-06e0-702e-b525-9cde1ad77653","","null","
                <div class=""stimulus-container"">
                    <img src=""images/schematic_sequence/dinner_party_scheme/dinner_party_scheme_3.png"" class=""exp-image"">
                    <div class=""question-area""></div> 
                </div>","null","","","","","","","","",""
"","","","","","html-button-response","169","523573","0.0-169.0","FFC04E568BB44DB0A7B284824F1032B1","019cf4a6-3828-7541-8c63-d9f7e65d1430","019cf498-06e0-702e-b525-9cde1ad77653","","387","
                <div class=""stimulus-container"">
                    <img src=""images/schematic_sequence/dinner_party_scheme/dinner_party_scheme_3.png"" class=""exp-image"">
                    <div class=""question-area"">
                        <p style=""font-size: 20px; font-weight: bold; margin: 0;"">Is there a person in this image?</p>
                    </div>
                </div>","0","main_experiment_trial","3","dinner_party_scheme","schematic_sequence","","","","",""
"","","","","","html-keyboard-response","170","528580","0.0-170.0","FFC04E568BB44DB0A7B284824F1032B1","019cf4a6-3828-7541-8c63-d9f7e65d1430","019cf498-06e0-702e-b525-9cde1ad77653","","null","
                <div class=""stimulus-container"">
                    <img src=""images/schematic_sequence/dinner_party_scheme/dinner_party_scheme_4.png"" class=""exp-image"">
                    <div class=""question-area""></div> 
                </div>","null","","","","","","","","",""
"","","","","","html-button-response","171","528959","0.0-171.0","FFC04E568BB44DB0A7B284824F1032B1","019cf4a6-3828-7541-8c63-d9f7e65d1430","019cf498-06e0-702e-b525-9cde1ad77653","","378","
                <div class=""stimulus-container"">
                    <img src=""images/schematic_sequence/dinner_party_scheme/dinner_party_scheme_4.png"" class=""exp-image"">
                    <div class=""question-area"">
                        <p style=""font-size: 20px; font-weight: bold; margin: 0;"">Is there a person in this image?</p>
                    </div>
                </div>","0","main_experiment_trial","4","dinner_party_scheme","schematic_sequence","","","","",""
"","","","","","html-keyboard-response","172","533965","0.0-172.0","FFC04E568BB44DB0A7B284824F1032B1","019cf4a6-3828-7541-8c63-d9f7e65d1430","019cf498-06e0-702e-b525-9cde1ad77653","","null","
                <div class=""stimulus-container"">
                    <img src=""images/schematic_sequence/dinner_party_scheme/dinner_party_scheme_5.png"" class=""exp-image"">
                    <div class=""question-area""></div> 
                </div>","null","","","","","","","","",""
"","","","","","html-button-response","173","534351","0.0-173.0","FFC04E568BB44DB0A7B284824F1032B1","019cf4a6-3828-7541-8c63-d9f7e65d1430","019cf498-06e0-702e-b525-9cde1ad77653","","385","
                <div class=""stimulus-container"">
                    <img src=""images/schematic_sequence/dinner_party_scheme/dinner_party_scheme_5.png"" class=""exp-image"">
                    <div class=""question-area"">
                        <p style=""font-size: 20px; font-weight: bold; margin: 0;"">Is there a person in this image?</p>
                    </div>
                </div>","0","main_experiment_trial","5","dinner_party_scheme","schematic_sequence","","","","",""
"","","","","","html-keyboard-response","174","539364","0.0-174.0","FFC04E568BB44DB0A7B284824F1032B1","019cf4a6-3828-7541-8c63-d9f7e65d1430","019cf498-06e0-702e-b525-9cde1ad77653","","null","
                <div class=""stimulus-container"">
                    <img src=""images/schematic_sequence/dinner_party_scheme/dinner_party_scheme_6.png"" class=""exp-image"">
                    <div class=""question-area""></div> 
                </div>","null","","","","","","","","",""
"","","","","","html-button-response","175","540022","0.0-175.0","FFC04E568BB44DB0A7B284824F1032B1","019cf4a6-3828-7541-8c63-d9f7e65d1430","019cf498-06e0-702e-b525-9cde1ad77653","","657","
                <div class=""stimulus-container"">
                    <img src=""images/schematic_sequence/dinner_party_scheme/dinner_party_scheme_6.png"" class=""exp-image"">
                    <div class=""question-area"">
                        <p style=""font-size: 20px; font-weight: bold; margin: 0;"">Is there a person in this image?</p>
                    </div>
                </div>","0","main_experiment_trial","6","dinner_party_scheme","schematic_sequence","","","","",""
"","","","","","html-keyboard-response","176","545024","0.0-176.0","FFC04E568BB44DB0A7B284824F1032B1","019cf4a6-3828-7541-8c63-d9f7e65d1430","019cf498-06e0-702e-b525-9cde1ad77653","","null","
                <div class=""stimulus-container"">
                    <img src=""images/schematic_sequence/dinner_party_scheme/dinner_party_scheme_7.png"" class=""exp-image"">
                    <div class=""question-area""></div> 
                </div>","null","","","","","","","","",""
"","","","","","html-button-response","177","545512","0.0-177.0","FFC04E568BB44DB0A7B284824F1032B1","019cf4a6-3828-7541-8c63-d9f7e65d1430","019cf498-06e0-702e-b525-9cde1ad77653","","488","
                <div class=""stimulus-container"">
                    <img src=""images/schematic_sequence/dinner_party_scheme/dinner_party_scheme_7.png"" class=""exp-image"">
                    <div class=""question-area"">
                        <p style=""font-size: 20px; font-weight: bold; margin: 0;"">Is there a person in this image?</p>
                    </div>
                </div>","0","main_experiment_trial","7","dinner_party_scheme","schematic_sequence","","","","",""
"","","","","","html-keyboard-response","178","550514","0.0-178.0","FFC04E568BB44DB0A7B284824F1032B1","019cf4a6-3828-7541-8c63-d9f7e65d1430","019cf498-06e0-702e-b525-9cde1ad77653","","null","
                <div class=""stimulus-container"">
                    <img src=""images/schematic_sequence/dinner_party_scheme/dinner_party_scheme_8.png"" class=""exp-image"">
                    <div class=""question-area""></div> 
                </div>","null","","","","","","","","",""
"","","","","","html-button-response","179","550934","0.0-179.0","FFC04E568BB44DB0A7B284824F1032B1","019cf4a6-3828-7541-8c63-d9f7e65d1430","019cf498-06e0-702e-b525-9cde1ad77653","","419","
                <div class=""stimulus-container"">
                    <img src=""images/schematic_sequence/dinner_party_scheme/dinner_party_scheme_8.png"" class=""exp-image"">
                    <div class=""question-area"">
                        <p style=""font-size: 20px; font-weight: bold; margin: 0;"">Is there a person in this image?</p>
                    </div>
                </div>","0","main_experiment_trial","8","dinner_party_scheme","schematic_sequence","","","","",""
"","","","","","html-keyboard-response","180","555948","0.0-180.0","FFC04E568BB44DB0A7B284824F1032B1","019cf4a6-3828-7541-8c63-d9f7e65d1430","019cf498-06e0-702e-b525-9cde1ad77653","","null","
                <div class=""stimulus-container"">
                    <img src=""images/schematic_sequence/dinner_party_scheme/dinner_party_scheme_9.png"" class=""exp-image"">
                    <div class=""question-area""></div> 
                </div>","null","","","","","","","","",""
"","","","","","html-button-response","181","556364","0.0-181.0","FFC04E568BB44DB0A7B284824F1032B1","019cf4a6-3828-7541-8c63-d9f7e65d1430","019cf498-06e0-702e-b525-9cde1ad77653","","416","
                <div class=""stimulus-container"">
                    <img src=""images/schematic_sequence/dinner_party_scheme/dinner_party_scheme_9.png"" class=""exp-image"">
                    <div class=""question-area"">
                        <p style=""font-size: 20px; font-weight: bold; margin: 0;"">Is there a person in this image?</p>
                    </div>
                </div>","0","main_experiment_trial","9","dinner_party_scheme","schematic_sequence","","","","",""
"","","","","","html-keyboard-response","182","561374","0.0-182.0","FFC04E568BB44DB0A7B284824F1032B1","019cf4a6-3828-7541-8c63-d9f7e65d1430","019cf498-06e0-702e-b525-9cde1ad77653","","null","
                <div class=""stimulus-container"">
                    <img src=""images/schematic_sequence/dinner_party_scheme/dinner_party_scheme_ten.png"" class=""exp-image"">
                    <div class=""question-area""></div> 
                </div>","null","","","","","","","","",""
"","","","","","html-button-response","183","561930","0.0-183.0","FFC04E568BB44DB0A7B284824F1032B1","019cf4a6-3828-7541-8c63-d9f7e65d1430","019cf498-06e0-702e-b525-9cde1ad77653","","555","
                <div class=""stimulus-container"">
                    <img src=""images/schematic_sequence/dinner_party_scheme/dinner_party_scheme_ten.png"" class=""exp-image"">
                    <div class=""question-area"">
                        <p style=""font-size: 20px; font-weight: bold; margin: 0;"">Is there a person in this image?</p>
                    </div>
                </div>","0","main_experiment_trial","ten","dinner_party_scheme","schematic_sequence","","","","",""
