"success","timeout","failed_images","failed_audio","failed_video","trial_type","trial_index","time_elapsed","internal_node_id","subject_id","study_id","session_id","view_history","rt","stimulus","response","task","image_index","folder","sequence_type","presentation_order","valuable_image_index","reward_type","distance_from_x","target_X","chosen_image_index","is_x_plus_dist","correct_choice"
"true","false","[]","[]","[]","preload","0","2860","0.0-0.0","F23C5455D9794CD9B96FBE715F906BF7","019cfc7c-9ee4-7067-9150-ea838db8032a","019cfc7b-6c7b-7b1b-afe7-acad8efc6711","","","","","","","","","","","","","","","",""
"","","","","","instructions","1","17648","0.0-1.0","F23C5455D9794CD9B96FBE715F906BF7","019cfc7c-9ee4-7067-9150-ea838db8032a","019cfc7b-6c7b-7b1b-afe7-acad8efc6711","[{""page_index"":0,""viewing_time"":14788}]","14788","","","","","","","","","","","","","",""
"","","","","","instructions","2","99172","0.0-2.0","F23C5455D9794CD9B96FBE715F906BF7","019cfc7c-9ee4-7067-9150-ea838db8032a","019cfc7b-6c7b-7b1b-afe7-acad8efc6711","[{""page_index"":0,""viewing_time"":81523}]","81524","","","","","","","","","","","","","",""
"true","","","","","fullscreen","3","101274","0.0-3.0","F23C5455D9794CD9B96FBE715F906BF7","019cfc7c-9ee4-7067-9150-ea838db8032a","019cfc7b-6c7b-7b1b-afe7-acad8efc6711","","1099","","","","","","","","","","","","","",""
"","","","","","instructions","4","107495","0.0-4.0","F23C5455D9794CD9B96FBE715F906BF7","019cfc7c-9ee4-7067-9150-ea838db8032a","019cfc7b-6c7b-7b1b-afe7-acad8efc6711","[{""page_index"":0,""viewing_time"":6221}]","6221","","","","","","","","","","","","","",""
"","","","","","instructions","5","218579","0.0-5.0","F23C5455D9794CD9B96FBE715F906BF7","019cfc7c-9ee4-7067-9150-ea838db8032a","019cfc7b-6c7b-7b1b-afe7-acad8efc6711","[{""page_index"":0,""viewing_time"":111084}]","111084","","","","","","","","","","","","","",""
"","","","","","html-keyboard-response","6","222581","0.0-6.0","F23C5455D9794CD9B96FBE715F906BF7","019cfc7c-9ee4-7067-9150-ea838db8032a","019cfc7b-6c7b-7b1b-afe7-acad8efc6711","","null","
                <div class=""stimulus-container"">
                    <img src=""images/instructions/movie_1.png"" class=""exp-image"">
                    <div class=""question-area""></div> 
                </div>","null","","","","","","","","","","","",""
"","","","","","html-button-response","7","223632","0.0-7.0","F23C5455D9794CD9B96FBE715F906BF7","019cfc7c-9ee4-7067-9150-ea838db8032a","019cfc7b-6c7b-7b1b-afe7-acad8efc6711","","1050","
                <div class=""stimulus-container"">
                    <img src=""images/instructions/movie_1.png"" class=""exp-image"">
                    <div class=""question-area"">
                        <p style=""font-size: 20px; font-weight: bold; margin: 0;"">Was there a person in this image?</p>
                    </div>
                </div>","0","example_question","1","","","","","","","","","",""
"","","","","","html-keyboard-response","8","227634","0.0-8.0","F23C5455D9794CD9B96FBE715F906BF7","019cfc7c-9ee4-7067-9150-ea838db8032a","019cfc7b-6c7b-7b1b-afe7-acad8efc6711","","null","
                <div class=""stimulus-container"">
                    <img src=""images/instructions/movie_2.png"" class=""exp-image"">
                    <div class=""question-area""></div> 
                </div>","null","","","","","","","","","","","",""
"","","","","","html-button-response","9","228599","0.0-9.0","F23C5455D9794CD9B96FBE715F906BF7","019cfc7c-9ee4-7067-9150-ea838db8032a","019cfc7b-6c7b-7b1b-afe7-acad8efc6711","","965","
                <div class=""stimulus-container"">
                    <img src=""images/instructions/movie_2.png"" class=""exp-image"">
                    <div class=""question-area"">
                        <p style=""font-size: 20px; font-weight: bold; margin: 0;"">Was there a person in this image?</p>
                    </div>
                </div>","1","example_question","2","","","","","","","","","",""
"","","","","","html-keyboard-response","10","232601","0.0-10.0","F23C5455D9794CD9B96FBE715F906BF7","019cfc7c-9ee4-7067-9150-ea838db8032a","019cfc7b-6c7b-7b1b-afe7-acad8efc6711","","null","
                <div class=""stimulus-container"">
                    <img src=""images/instructions/movie_3.png"" class=""exp-image"">
                    <div class=""question-area""></div> 
                </div>","null","","","","","","","","","","","",""
"","","","","","html-button-response","11","233170","0.0-11.0","F23C5455D9794CD9B96FBE715F906BF7","019cfc7c-9ee4-7067-9150-ea838db8032a","019cfc7b-6c7b-7b1b-afe7-acad8efc6711","","568","
                <div class=""stimulus-container"">
                    <img src=""images/instructions/movie_3.png"" class=""exp-image"">
                    <div class=""question-area"">
                        <p style=""font-size: 20px; font-weight: bold; margin: 0;"">Was there a person in this image?</p>
                    </div>
                </div>","0","example_question","3","","","","","","","","","",""
"","","","","","html-keyboard-response","12","237172","0.0-12.0","F23C5455D9794CD9B96FBE715F906BF7","019cfc7c-9ee4-7067-9150-ea838db8032a","019cfc7b-6c7b-7b1b-afe7-acad8efc6711","","null","
                <div class=""stimulus-container"">
                    <img src=""images/instructions/movie_4.png"" class=""exp-image"">
                    <div class=""question-area""></div> 
                </div>","null","","","","","","","","","","","",""
"","","","","","html-button-response","13","237773","0.0-13.0","F23C5455D9794CD9B96FBE715F906BF7","019cfc7c-9ee4-7067-9150-ea838db8032a","019cfc7b-6c7b-7b1b-afe7-acad8efc6711","","599","
                <div class=""stimulus-container"">
                    <img src=""images/instructions/movie_4.png"" class=""exp-image"">
                    <div class=""question-area"">
                        <p style=""font-size: 20px; font-weight: bold; margin: 0;"">Was there a person in this image?</p>
                    </div>
                </div>","0","example_question","4","","","","","","","","","",""
"","","","","","instructions","14","289854","0.0-14.0","F23C5455D9794CD9B96FBE715F906BF7","019cfc7c-9ee4-7067-9150-ea838db8032a","019cfc7b-6c7b-7b1b-afe7-acad8efc6711","[{""page_index"":0,""viewing_time"":52081}]","52081","","","","","","","","","","","","","",""
"","","","","","instructions","15","376123","0.0-15.0","F23C5455D9794CD9B96FBE715F906BF7","019cfc7c-9ee4-7067-9150-ea838db8032a","019cfc7b-6c7b-7b1b-afe7-acad8efc6711","[{""page_index"":0,""viewing_time"":86269}]","86269","","","","","","","","","","","","","",""
"","","","","","html-keyboard-response","16","381125","0.0-16.0","F23C5455D9794CD9B96FBE715F906BF7","019cfc7c-9ee4-7067-9150-ea838db8032a","019cfc7b-6c7b-7b1b-afe7-acad8efc6711","","null","<div style=""background-color: white; width: 100vw; height: 100vh;""></div>","null","","","","","","","","","","","",""
"","","","","","html-keyboard-response","17","386127","0.0-17.0","F23C5455D9794CD9B96FBE715F906BF7","019cfc7c-9ee4-7067-9150-ea838db8032a","019cfc7b-6c7b-7b1b-afe7-acad8efc6711","","null","
                <div class=""stimulus-container"">
                    <img src=""images/schematic_sequence/flight_scheme/flight_scheme_1.png"" class=""exp-image"">
                    <div class=""question-area""></div> 
                </div>","null","","","","","","","","","","","",""
"","","","","","html-button-response","18","389129","0.0-18.0","F23C5455D9794CD9B96FBE715F906BF7","019cfc7c-9ee4-7067-9150-ea838db8032a","019cfc7b-6c7b-7b1b-afe7-acad8efc6711","","null","
                <div class=""stimulus-container"">
                    <img src=""images/schematic_sequence/flight_scheme/flight_scheme_1.png"" class=""exp-image"">
                    <div class=""question-area"">
                        <p style=""font-size: 20px; font-weight: bold; margin: 0;"">Is there a person in this image?</p>
                    </div>
                </div>","null","main_experiment_trial","1","flight_scheme","schematic_sequence","chronological","","","","","","",""
"","","","","","html-keyboard-response","19","394130","0.0-19.0","F23C5455D9794CD9B96FBE715F906BF7","019cfc7c-9ee4-7067-9150-ea838db8032a","019cfc7b-6c7b-7b1b-afe7-acad8efc6711","","null","
                <div class=""stimulus-container"">
                    <img src=""images/schematic_sequence/flight_scheme/flight_scheme_2.png"" class=""exp-image"">
                    <div class=""question-area""></div> 
                </div>","null","","","","","","","","","","","",""
"","","","","","html-button-response","20","395608","0.0-20.0","F23C5455D9794CD9B96FBE715F906BF7","019cfc7c-9ee4-7067-9150-ea838db8032a","019cfc7b-6c7b-7b1b-afe7-acad8efc6711","","1478","
                <div class=""stimulus-container"">
                    <img src=""images/schematic_sequence/flight_scheme/flight_scheme_2.png"" class=""exp-image"">
                    <div class=""question-area"">
                        <p style=""font-size: 20px; font-weight: bold; margin: 0;"">Is there a person in this image?</p>
                    </div>
                </div>","1","main_experiment_trial","2","flight_scheme","schematic_sequence","chronological","","","","","","",""
"","","","","","html-keyboard-response","21","400610","0.0-21.0","F23C5455D9794CD9B96FBE715F906BF7","019cfc7c-9ee4-7067-9150-ea838db8032a","019cfc7b-6c7b-7b1b-afe7-acad8efc6711","","null","
                <div class=""stimulus-container"">
                    <img src=""images/schematic_sequence/flight_scheme/flight_scheme_3.png"" class=""exp-image"">
                    <div class=""question-area""></div> 
                </div>","null","","","","","","","","","","","",""
"","","","","","html-button-response","22","401210","0.0-22.0","F23C5455D9794CD9B96FBE715F906BF7","019cfc7c-9ee4-7067-9150-ea838db8032a","019cfc7b-6c7b-7b1b-afe7-acad8efc6711","","599","
                <div class=""stimulus-container"">
                    <img src=""images/schematic_sequence/flight_scheme/flight_scheme_3.png"" class=""exp-image"">
                    <div class=""question-area"">
                        <p style=""font-size: 20px; font-weight: bold; margin: 0;"">Is there a person in this image?</p>
                    </div>
                </div>","0","main_experiment_trial","3","flight_scheme","schematic_sequence","chronological","","","","","","",""
"","","","","","html-keyboard-response","23","406211","0.0-23.0","F23C5455D9794CD9B96FBE715F906BF7","019cfc7c-9ee4-7067-9150-ea838db8032a","019cfc7b-6c7b-7b1b-afe7-acad8efc6711","","null","
                <div class=""stimulus-container"">
                    <img src=""images/schematic_sequence/flight_scheme/flight_scheme_4.png"" class=""exp-image"">
                    <div class=""question-area""></div> 
                </div>","null","","","","","","","","","","","",""
"","","","","","html-button-response","24","407032","0.0-24.0","F23C5455D9794CD9B96FBE715F906BF7","019cfc7c-9ee4-7067-9150-ea838db8032a","019cfc7b-6c7b-7b1b-afe7-acad8efc6711","","821","
                <div class=""stimulus-container"">
                    <img src=""images/schematic_sequence/flight_scheme/flight_scheme_4.png"" class=""exp-image"">
                    <div class=""question-area"">
                        <p style=""font-size: 20px; font-weight: bold; margin: 0;"">Is there a person in this image?</p>
                    </div>
                </div>","0","main_experiment_trial","4","flight_scheme","schematic_sequence","chronological","","","","","","",""
"","","","","","html-keyboard-response","25","412034","0.0-25.0","F23C5455D9794CD9B96FBE715F906BF7","019cfc7c-9ee4-7067-9150-ea838db8032a","019cfc7b-6c7b-7b1b-afe7-acad8efc6711","","null","
                <div class=""stimulus-container"">
                    <img src=""images/schematic_sequence/flight_scheme/flight_scheme_5.png"" class=""exp-image"">
                    <div class=""question-area""></div> 
                </div>","null","","","","","","","","","","","",""
"","","","","","html-button-response","26","413095","0.0-26.0","F23C5455D9794CD9B96FBE715F906BF7","019cfc7c-9ee4-7067-9150-ea838db8032a","019cfc7b-6c7b-7b1b-afe7-acad8efc6711","","1060","
                <div class=""stimulus-container"">
                    <img src=""images/schematic_sequence/flight_scheme/flight_scheme_5.png"" class=""exp-image"">
                    <div class=""question-area"">
                        <p style=""font-size: 20px; font-weight: bold; margin: 0;"">Is there a person in this image?</p>
                    </div>
                </div>","0","main_experiment_trial","5","flight_scheme","schematic_sequence","chronological","","","","","","",""
"","","","","","html-keyboard-response","27","418097","0.0-27.0","F23C5455D9794CD9B96FBE715F906BF7","019cfc7c-9ee4-7067-9150-ea838db8032a","019cfc7b-6c7b-7b1b-afe7-acad8efc6711","","null","
                <div class=""stimulus-container"">
                    <img src=""images/schematic_sequence/flight_scheme/flight_scheme_6.png"" class=""exp-image"">
                    <div class=""question-area""></div> 
                </div>","null","","","","","","","","","","","",""
"","","","","","html-button-response","28","418939","0.0-28.0","F23C5455D9794CD9B96FBE715F906BF7","019cfc7c-9ee4-7067-9150-ea838db8032a","019cfc7b-6c7b-7b1b-afe7-acad8efc6711","","841","
                <div class=""stimulus-container"">
                    <img src=""images/schematic_sequence/flight_scheme/flight_scheme_6.png"" class=""exp-image"">
                    <div class=""question-area"">
                        <p style=""font-size: 20px; font-weight: bold; margin: 0;"">Is there a person in this image?</p>
                    </div>
                </div>","1","main_experiment_trial","6","flight_scheme","schematic_sequence","chronological","","","","","","",""
"","","","","","html-keyboard-response","29","423941","0.0-29.0","F23C5455D9794CD9B96FBE715F906BF7","019cfc7c-9ee4-7067-9150-ea838db8032a","019cfc7b-6c7b-7b1b-afe7-acad8efc6711","","null","
                <div class=""stimulus-container"">
                    <img src=""images/schematic_sequence/flight_scheme/flight_scheme_7.png"" class=""exp-image"">
                    <div class=""question-area""></div> 
                </div>","null","","","","","","","","","","","",""
"","","","","","html-button-response","30","426943","0.0-30.0","F23C5455D9794CD9B96FBE715F906BF7","019cfc7c-9ee4-7067-9150-ea838db8032a","019cfc7b-6c7b-7b1b-afe7-acad8efc6711","","null","
                <div class=""stimulus-container"">
                    <img src=""images/schematic_sequence/flight_scheme/flight_scheme_7.png"" class=""exp-image"">
                    <div class=""question-area"">
                        <p style=""font-size: 20px; font-weight: bold; margin: 0;"">Is there a person in this image?</p>
                    </div>
                </div>","null","main_experiment_trial","7","flight_scheme","schematic_sequence","chronological","","","","","","",""
"","","","","","html-keyboard-response","31","431944","0.0-31.0","F23C5455D9794CD9B96FBE715F906BF7","019cfc7c-9ee4-7067-9150-ea838db8032a","019cfc7b-6c7b-7b1b-afe7-acad8efc6711","","null","
                <div class=""stimulus-container"">
                    <img src=""images/schematic_sequence/flight_scheme/flight_scheme_8.png"" class=""exp-image"">
                    <div class=""question-area""></div> 
                </div>","null","","","","","","","","","","","",""
"","","","","","html-button-response","32","432346","0.0-32.0","F23C5455D9794CD9B96FBE715F906BF7","019cfc7c-9ee4-7067-9150-ea838db8032a","019cfc7b-6c7b-7b1b-afe7-acad8efc6711","","402","
                <div class=""stimulus-container"">
                    <img src=""images/schematic_sequence/flight_scheme/flight_scheme_8.png"" class=""exp-image"">
                    <div class=""question-area"">
                        <p style=""font-size: 20px; font-weight: bold; margin: 0;"">Is there a person in this image?</p>
                    </div>
                </div>","1","main_experiment_trial","8","flight_scheme","schematic_sequence","chronological","","","","","","",""
"","","","","","html-keyboard-response","33","437347","0.0-33.0","F23C5455D9794CD9B96FBE715F906BF7","019cfc7c-9ee4-7067-9150-ea838db8032a","019cfc7b-6c7b-7b1b-afe7-acad8efc6711","","null","
                <div class=""stimulus-container"">
                    <img src=""images/schematic_sequence/flight_scheme/flight_scheme_9.png"" class=""exp-image"">
                    <div class=""question-area""></div> 
                </div>","null","","","","","","","","","","","",""
"","","","","","html-button-response","34","437865","0.0-34.0","F23C5455D9794CD9B96FBE715F906BF7","019cfc7c-9ee4-7067-9150-ea838db8032a","019cfc7b-6c7b-7b1b-afe7-acad8efc6711","","518","
                <div class=""stimulus-container"">
                    <img src=""images/schematic_sequence/flight_scheme/flight_scheme_9.png"" class=""exp-image"">
                    <div class=""question-area"">
                        <p style=""font-size: 20px; font-weight: bold; margin: 0;"">Is there a person in this image?</p>
                    </div>
                </div>","0","main_experiment_trial","9","flight_scheme","schematic_sequence","chronological","","","","","","",""
"","","","","","html-keyboard-response","35","442867","0.0-35.0","F23C5455D9794CD9B96FBE715F906BF7","019cfc7c-9ee4-7067-9150-ea838db8032a","019cfc7b-6c7b-7b1b-afe7-acad8efc6711","","null","
                <div class=""stimulus-container"">
                    <img src=""images/schematic_sequence/flight_scheme/flight_scheme_ten.png"" class=""exp-image"">
                    <div class=""question-area""></div> 
                </div>","null","","","","","","","","","","","",""
"","","","","","html-button-response","36","444519","0.0-36.0","F23C5455D9794CD9B96FBE715F906BF7","019cfc7c-9ee4-7067-9150-ea838db8032a","019cfc7b-6c7b-7b1b-afe7-acad8efc6711","","1652","
                <div class=""stimulus-container"">
                    <img src=""images/schematic_sequence/flight_scheme/flight_scheme_ten.png"" class=""exp-image"">
                    <div class=""question-area"">
                        <p style=""font-size: 20px; font-weight: bold; margin: 0;"">Is there a person in this image?</p>
                    </div>
                </div>","0","main_experiment_trial","ten","flight_scheme","schematic_sequence","chronological","","","","","","",""
"","","","","","html-keyboard-response","37","449520","0.0-37.0","F23C5455D9794CD9B96FBE715F906BF7","019cfc7c-9ee4-7067-9150-ea838db8032a","019cfc7b-6c7b-7b1b-afe7-acad8efc6711","","null","<div style=""background-color: white; width: 100vw; height: 100vh;""></div>","null","","","","","","","","","","","",""
"","","","","","html-keyboard-response","38","454522","0.0-38.0","F23C5455D9794CD9B96FBE715F906BF7","019cfc7c-9ee4-7067-9150-ea838db8032a","019cfc7b-6c7b-7b1b-afe7-acad8efc6711","","null","
                <div class=""stimulus-container"">
                    <img src=""images/causal_sequence/the_performance_causal/the_performance_causal_1.png"" class=""exp-image"">
                    <div class=""question-area""></div> 
                </div>","null","","","","","","","","","","","",""
"","","","","","html-button-response","39","455127","0.0-39.0","F23C5455D9794CD9B96FBE715F906BF7","019cfc7c-9ee4-7067-9150-ea838db8032a","019cfc7b-6c7b-7b1b-afe7-acad8efc6711","","604","
                <div class=""stimulus-container"">
                    <img src=""images/causal_sequence/the_performance_causal/the_performance_causal_1.png"" class=""exp-image"">
                    <div class=""question-area"">
                        <p style=""font-size: 20px; font-weight: bold; margin: 0;"">Is there a person in this image?</p>
                    </div>
                </div>","0","main_experiment_trial","1","the_performance_causal","causal_sequence","chronological","","","","","","",""
"","","","","","html-keyboard-response","40","460128","0.0-40.0","F23C5455D9794CD9B96FBE715F906BF7","019cfc7c-9ee4-7067-9150-ea838db8032a","019cfc7b-6c7b-7b1b-afe7-acad8efc6711","","null","
                <div class=""stimulus-container"">
                    <img src=""images/causal_sequence/the_performance_causal/the_performance_causal_2.png"" class=""exp-image"">
                    <div class=""question-area""></div> 
                </div>","null","","","","","","","","","","","",""
"","","","","","html-button-response","41","461135","0.0-41.0","F23C5455D9794CD9B96FBE715F906BF7","019cfc7c-9ee4-7067-9150-ea838db8032a","019cfc7b-6c7b-7b1b-afe7-acad8efc6711","","1007","
                <div class=""stimulus-container"">
                    <img src=""images/causal_sequence/the_performance_causal/the_performance_causal_2.png"" class=""exp-image"">
                    <div class=""question-area"">
                        <p style=""font-size: 20px; font-weight: bold; margin: 0;"">Is there a person in this image?</p>
                    </div>
                </div>","0","main_experiment_trial","2","the_performance_causal","causal_sequence","chronological","","","","","","",""
"","","","","","html-keyboard-response","42","466137","0.0-42.0","F23C5455D9794CD9B96FBE715F906BF7","019cfc7c-9ee4-7067-9150-ea838db8032a","019cfc7b-6c7b-7b1b-afe7-acad8efc6711","","null","
                <div class=""stimulus-container"">
                    <img src=""images/causal_sequence/the_performance_causal/the_performance_causal_3.png"" class=""exp-image"">
                    <div class=""question-area""></div> 
                </div>","null","","","","","","","","","","","",""
"","","","","","html-button-response","43","468502","0.0-43.0","F23C5455D9794CD9B96FBE715F906BF7","019cfc7c-9ee4-7067-9150-ea838db8032a","019cfc7b-6c7b-7b1b-afe7-acad8efc6711","","2365","
                <div class=""stimulus-container"">
                    <img src=""images/causal_sequence/the_performance_causal/the_performance_causal_3.png"" class=""exp-image"">
                    <div class=""question-area"">
                        <p style=""font-size: 20px; font-weight: bold; margin: 0;"">Is there a person in this image?</p>
                    </div>
                </div>","0","main_experiment_trial","3","the_performance_causal","causal_sequence","chronological","","","","","","",""
"","","","","","html-keyboard-response","44","473504","0.0-44.0","F23C5455D9794CD9B96FBE715F906BF7","019cfc7c-9ee4-7067-9150-ea838db8032a","019cfc7b-6c7b-7b1b-afe7-acad8efc6711","","null","
                <div class=""stimulus-container"">
                    <img src=""images/causal_sequence/the_performance_causal/the_performance_causal_4.png"" class=""exp-image"">
                    <div class=""question-area""></div> 
                </div>","null","","","","","","","","","","","",""
"","","","","","html-button-response","45","476507","0.0-45.0","F23C5455D9794CD9B96FBE715F906BF7","019cfc7c-9ee4-7067-9150-ea838db8032a","019cfc7b-6c7b-7b1b-afe7-acad8efc6711","","null","
                <div class=""stimulus-container"">
                    <img src=""images/causal_sequence/the_performance_causal/the_performance_causal_4.png"" class=""exp-image"">
                    <div class=""question-area"">
                        <p style=""font-size: 20px; font-weight: bold; margin: 0;"">Is there a person in this image?</p>
                    </div>
                </div>","null","main_experiment_trial","4","the_performance_causal","causal_sequence","chronological","","","","","","",""
"","","","","","html-keyboard-response","46","481509","0.0-46.0","F23C5455D9794CD9B96FBE715F906BF7","019cfc7c-9ee4-7067-9150-ea838db8032a","019cfc7b-6c7b-7b1b-afe7-acad8efc6711","","null","
                <div class=""stimulus-container"">
                    <img src=""images/causal_sequence/the_performance_causal/the_performance_causal_5.png"" class=""exp-image"">
                    <div class=""question-area""></div> 
                </div>","null","","","","","","","","","","","",""
"","","","","","html-button-response","47","482035","0.0-47.0","F23C5455D9794CD9B96FBE715F906BF7","019cfc7c-9ee4-7067-9150-ea838db8032a","019cfc7b-6c7b-7b1b-afe7-acad8efc6711","","525","
                <div class=""stimulus-container"">
                    <img src=""images/causal_sequence/the_performance_causal/the_performance_causal_5.png"" class=""exp-image"">
                    <div class=""question-area"">
                        <p style=""font-size: 20px; font-weight: bold; margin: 0;"">Is there a person in this image?</p>
                    </div>
                </div>","0","main_experiment_trial","5","the_performance_causal","causal_sequence","chronological","","","","","","",""
"","","","","","html-keyboard-response","48","487036","0.0-48.0","F23C5455D9794CD9B96FBE715F906BF7","019cfc7c-9ee4-7067-9150-ea838db8032a","019cfc7b-6c7b-7b1b-afe7-acad8efc6711","","null","
                <div class=""stimulus-container"">
                    <img src=""images/causal_sequence/the_performance_causal/the_performance_causal_6.png"" class=""exp-image"">
                    <div class=""question-area""></div> 
                </div>","null","","","","","","","","","","","",""
"","","","","","html-button-response","49","487447","0.0-49.0","F23C5455D9794CD9B96FBE715F906BF7","019cfc7c-9ee4-7067-9150-ea838db8032a","019cfc7b-6c7b-7b1b-afe7-acad8efc6711","","410","
                <div class=""stimulus-container"">
                    <img src=""images/causal_sequence/the_performance_causal/the_performance_causal_6.png"" class=""exp-image"">
                    <div class=""question-area"">
                        <p style=""font-size: 20px; font-weight: bold; margin: 0;"">Is there a person in this image?</p>
                    </div>
                </div>","0","main_experiment_trial","6","the_performance_causal","causal_sequence","chronological","","","","","","",""
"","","","","","html-keyboard-response","50","492448","0.0-50.0","F23C5455D9794CD9B96FBE715F906BF7","019cfc7c-9ee4-7067-9150-ea838db8032a","019cfc7b-6c7b-7b1b-afe7-acad8efc6711","","null","
                <div class=""stimulus-container"">
                    <img src=""images/causal_sequence/the_performance_causal/the_performance_causal_7.png"" class=""exp-image"">
                    <div class=""question-area""></div> 
                </div>","null","","","","","","","","","","","",""
"","","","","","html-button-response","51","493038","0.0-51.0","F23C5455D9794CD9B96FBE715F906BF7","019cfc7c-9ee4-7067-9150-ea838db8032a","019cfc7b-6c7b-7b1b-afe7-acad8efc6711","","590","
                <div class=""stimulus-container"">
                    <img src=""images/causal_sequence/the_performance_causal/the_performance_causal_7.png"" class=""exp-image"">
                    <div class=""question-area"">
                        <p style=""font-size: 20px; font-weight: bold; margin: 0;"">Is there a person in this image?</p>
                    </div>
                </div>","0","main_experiment_trial","7","the_performance_causal","causal_sequence","chronological","","","","","","",""
"","","","","","html-keyboard-response","52","498041","0.0-52.0","F23C5455D9794CD9B96FBE715F906BF7","019cfc7c-9ee4-7067-9150-ea838db8032a","019cfc7b-6c7b-7b1b-afe7-acad8efc6711","","null","
                <div class=""stimulus-container"">
                    <img src=""images/causal_sequence/the_performance_causal/the_performance_causal_8.png"" class=""exp-image"">
                    <div class=""question-area""></div> 
                </div>","null","","","","","","","","","","","",""
"","","","","","html-button-response","53","499835","0.0-53.0","F23C5455D9794CD9B96FBE715F906BF7","019cfc7c-9ee4-7067-9150-ea838db8032a","019cfc7b-6c7b-7b1b-afe7-acad8efc6711","","1793","
                <div class=""stimulus-container"">
                    <img src=""images/causal_sequence/the_performance_causal/the_performance_causal_8.png"" class=""exp-image"">
                    <div class=""question-area"">
                        <p style=""font-size: 20px; font-weight: bold; margin: 0;"">Is there a person in this image?</p>
                    </div>
                </div>","0","main_experiment_trial","8","the_performance_causal","causal_sequence","chronological","","","","","","",""
"","","","","","html-keyboard-response","54","504837","0.0-54.0","F23C5455D9794CD9B96FBE715F906BF7","019cfc7c-9ee4-7067-9150-ea838db8032a","019cfc7b-6c7b-7b1b-afe7-acad8efc6711","","null","
                <div class=""stimulus-container"">
                    <img src=""images/causal_sequence/the_performance_causal/the_performance_causal_9.png"" class=""exp-image"">
                    <div class=""question-area""></div> 
                </div>","null","","","","","","","","","","","",""
"","","","","","html-button-response","55","505459","0.0-55.0","F23C5455D9794CD9B96FBE715F906BF7","019cfc7c-9ee4-7067-9150-ea838db8032a","019cfc7b-6c7b-7b1b-afe7-acad8efc6711","","622","
                <div class=""stimulus-container"">
                    <img src=""images/causal_sequence/the_performance_causal/the_performance_causal_9.png"" class=""exp-image"">
                    <div class=""question-area"">
                        <p style=""font-size: 20px; font-weight: bold; margin: 0;"">Is there a person in this image?</p>
                    </div>
                </div>","0","main_experiment_trial","9","the_performance_causal","causal_sequence","chronological","","","","","","",""
"","","","","","html-keyboard-response","56","510461","0.0-56.0","F23C5455D9794CD9B96FBE715F906BF7","019cfc7c-9ee4-7067-9150-ea838db8032a","019cfc7b-6c7b-7b1b-afe7-acad8efc6711","","null","
                <div class=""stimulus-container"">
                    <img src=""images/causal_sequence/the_performance_causal/the_performance_causal_ten.png"" class=""exp-image"">
                    <div class=""question-area""></div> 
                </div>","null","","","","","","","","","","","",""
"","","","","","html-button-response","57","510961","0.0-57.0","F23C5455D9794CD9B96FBE715F906BF7","019cfc7c-9ee4-7067-9150-ea838db8032a","019cfc7b-6c7b-7b1b-afe7-acad8efc6711","","498","
                <div class=""stimulus-container"">
                    <img src=""images/causal_sequence/the_performance_causal/the_performance_causal_ten.png"" class=""exp-image"">
                    <div class=""question-area"">
                        <p style=""font-size: 20px; font-weight: bold; margin: 0;"">Is there a person in this image?</p>
                    </div>
                </div>","0","main_experiment_trial","ten","the_performance_causal","causal_sequence","chronological","","","","","","",""
"","","","","","html-keyboard-response","58","515963","0.0-58.0","F23C5455D9794CD9B96FBE715F906BF7","019cfc7c-9ee4-7067-9150-ea838db8032a","019cfc7b-6c7b-7b1b-afe7-acad8efc6711","","null","<div style=""background-color: white; width: 100vw; height: 100vh;""></div>","null","","","","","","","","","","","",""
"","","","","","html-keyboard-response","59","520964","0.0-59.0","F23C5455D9794CD9B96FBE715F906BF7","019cfc7c-9ee4-7067-9150-ea838db8032a","019cfc7b-6c7b-7b1b-afe7-acad8efc6711","","null","
                <div class=""stimulus-container"">
                    <img src=""images/schematic_sequence/supermarket_scheme/supermarket_scheme_1.png"" class=""exp-image"">
                    <div class=""question-area""></div> 
                </div>","null","","","","","","","","","","","",""
"","","","","","html-button-response","60","522283","0.0-60.0","F23C5455D9794CD9B96FBE715F906BF7","019cfc7c-9ee4-7067-9150-ea838db8032a","019cfc7b-6c7b-7b1b-afe7-acad8efc6711","","1318","
                <div class=""stimulus-container"">
                    <img src=""images/schematic_sequence/supermarket_scheme/supermarket_scheme_1.png"" class=""exp-image"">
                    <div class=""question-area"">
                        <p style=""font-size: 20px; font-weight: bold; margin: 0;"">Is there a person in this image?</p>
                    </div>
                </div>","1","main_experiment_trial","1","supermarket_scheme","schematic_sequence","chronological","","","","","","",""
"","","","","","html-keyboard-response","61","527284","0.0-61.0","F23C5455D9794CD9B96FBE715F906BF7","019cfc7c-9ee4-7067-9150-ea838db8032a","019cfc7b-6c7b-7b1b-afe7-acad8efc6711","","null","
                <div class=""stimulus-container"">
                    <img src=""images/schematic_sequence/supermarket_scheme/supermarket_scheme_2.png"" class=""exp-image"">
                    <div class=""question-area""></div> 
                </div>","null","","","","","","","","","","","",""
"","","","","","html-button-response","62","528669","0.0-62.0","F23C5455D9794CD9B96FBE715F906BF7","019cfc7c-9ee4-7067-9150-ea838db8032a","019cfc7b-6c7b-7b1b-afe7-acad8efc6711","","1384","
                <div class=""stimulus-container"">
                    <img src=""images/schematic_sequence/supermarket_scheme/supermarket_scheme_2.png"" class=""exp-image"">
                    <div class=""question-area"">
                        <p style=""font-size: 20px; font-weight: bold; margin: 0;"">Is there a person in this image?</p>
                    </div>
                </div>","1","main_experiment_trial","2","supermarket_scheme","schematic_sequence","chronological","","","","","","",""
"","","","","","html-keyboard-response","63","533671","0.0-63.0","F23C5455D9794CD9B96FBE715F906BF7","019cfc7c-9ee4-7067-9150-ea838db8032a","019cfc7b-6c7b-7b1b-afe7-acad8efc6711","","null","
                <div class=""stimulus-container"">
                    <img src=""images/schematic_sequence/supermarket_scheme/supermarket_scheme_3.png"" class=""exp-image"">
                    <div class=""question-area""></div> 
                </div>","null","","","","","","","","","","","",""
"","","","","","html-button-response","64","534898","0.0-64.0","F23C5455D9794CD9B96FBE715F906BF7","019cfc7c-9ee4-7067-9150-ea838db8032a","019cfc7b-6c7b-7b1b-afe7-acad8efc6711","","1226","
                <div class=""stimulus-container"">
                    <img src=""images/schematic_sequence/supermarket_scheme/supermarket_scheme_3.png"" class=""exp-image"">
                    <div class=""question-area"">
                        <p style=""font-size: 20px; font-weight: bold; margin: 0;"">Is there a person in this image?</p>
                    </div>
                </div>","1","main_experiment_trial","3","supermarket_scheme","schematic_sequence","chronological","","","","","","",""
"","","","","","html-keyboard-response","65","539900","0.0-65.0","F23C5455D9794CD9B96FBE715F906BF7","019cfc7c-9ee4-7067-9150-ea838db8032a","019cfc7b-6c7b-7b1b-afe7-acad8efc6711","","null","
                <div class=""stimulus-container"">
                    <img src=""images/schematic_sequence/supermarket_scheme/supermarket_scheme_4.png"" class=""exp-image"">
                    <div class=""question-area""></div> 
                </div>","null","","","","","","","","","","","",""
"","","","","","html-button-response","66","540568","0.0-66.0","F23C5455D9794CD9B96FBE715F906BF7","019cfc7c-9ee4-7067-9150-ea838db8032a","019cfc7b-6c7b-7b1b-afe7-acad8efc6711","","668","
                <div class=""stimulus-container"">
                    <img src=""images/schematic_sequence/supermarket_scheme/supermarket_scheme_4.png"" class=""exp-image"">
                    <div class=""question-area"">
                        <p style=""font-size: 20px; font-weight: bold; margin: 0;"">Is there a person in this image?</p>
                    </div>
                </div>","0","main_experiment_trial","4","supermarket_scheme","schematic_sequence","chronological","","","","","","",""
"","","","","","html-keyboard-response","67","545570","0.0-67.0","F23C5455D9794CD9B96FBE715F906BF7","019cfc7c-9ee4-7067-9150-ea838db8032a","019cfc7b-6c7b-7b1b-afe7-acad8efc6711","","null","
                <div class=""stimulus-container"">
                    <img src=""images/schematic_sequence/supermarket_scheme/supermarket_scheme_5.png"" class=""exp-image"">
                    <div class=""question-area""></div> 
                </div>","null","","","","","","","","","","","",""
"","","","","","html-button-response","68","546090","0.0-68.0","F23C5455D9794CD9B96FBE715F906BF7","019cfc7c-9ee4-7067-9150-ea838db8032a","019cfc7b-6c7b-7b1b-afe7-acad8efc6711","","520","
                <div class=""stimulus-container"">
                    <img src=""images/schematic_sequence/supermarket_scheme/supermarket_scheme_5.png"" class=""exp-image"">
                    <div class=""question-area"">
                        <p style=""font-size: 20px; font-weight: bold; margin: 0;"">Is there a person in this image?</p>
                    </div>
                </div>","1","main_experiment_trial","5","supermarket_scheme","schematic_sequence","chronological","","","","","","",""
"","","","","","html-keyboard-response","69","551092","0.0-69.0","F23C5455D9794CD9B96FBE715F906BF7","019cfc7c-9ee4-7067-9150-ea838db8032a","019cfc7b-6c7b-7b1b-afe7-acad8efc6711","","null","
                <div class=""stimulus-container"">
                    <img src=""images/schematic_sequence/supermarket_scheme/supermarket_scheme_6.png"" class=""exp-image"">
                    <div class=""question-area""></div> 
                </div>","null","","","","","","","","","","","",""
"","","","","","html-button-response","70","552070","0.0-70.0","F23C5455D9794CD9B96FBE715F906BF7","019cfc7c-9ee4-7067-9150-ea838db8032a","019cfc7b-6c7b-7b1b-afe7-acad8efc6711","","978","
                <div class=""stimulus-container"">
                    <img src=""images/schematic_sequence/supermarket_scheme/supermarket_scheme_6.png"" class=""exp-image"">
                    <div class=""question-area"">
                        <p style=""font-size: 20px; font-weight: bold; margin: 0;"">Is there a person in this image?</p>
                    </div>
                </div>","0","main_experiment_trial","6","supermarket_scheme","schematic_sequence","chronological","","","","","","",""
"","","","","","html-keyboard-response","71","557072","0.0-71.0","F23C5455D9794CD9B96FBE715F906BF7","019cfc7c-9ee4-7067-9150-ea838db8032a","019cfc7b-6c7b-7b1b-afe7-acad8efc6711","","null","
                <div class=""stimulus-container"">
                    <img src=""images/schematic_sequence/supermarket_scheme/supermarket_scheme_7.png"" class=""exp-image"">
                    <div class=""question-area""></div> 
                </div>","null","","","","","","","","","","","",""
"","","","","","html-button-response","72","558273","0.0-72.0","F23C5455D9794CD9B96FBE715F906BF7","019cfc7c-9ee4-7067-9150-ea838db8032a","019cfc7b-6c7b-7b1b-afe7-acad8efc6711","","1200","
                <div class=""stimulus-container"">
                    <img src=""images/schematic_sequence/supermarket_scheme/supermarket_scheme_7.png"" class=""exp-image"">
                    <div class=""question-area"">
                        <p style=""font-size: 20px; font-weight: bold; margin: 0;"">Is there a person in this image?</p>
                    </div>
                </div>","0","main_experiment_trial","7","supermarket_scheme","schematic_sequence","chronological","","","","","","",""
"","","","","","html-keyboard-response","73","563273","0.0-73.0","F23C5455D9794CD9B96FBE715F906BF7","019cfc7c-9ee4-7067-9150-ea838db8032a","019cfc7b-6c7b-7b1b-afe7-acad8efc6711","","null","
                <div class=""stimulus-container"">
                    <img src=""images/schematic_sequence/supermarket_scheme/supermarket_scheme_8.png"" class=""exp-image"">
                    <div class=""question-area""></div> 
                </div>","null","","","","","","","","","","","",""
"","","","","","html-button-response","74","563677","0.0-74.0","F23C5455D9794CD9B96FBE715F906BF7","019cfc7c-9ee4-7067-9150-ea838db8032a","019cfc7b-6c7b-7b1b-afe7-acad8efc6711","","403","
                <div class=""stimulus-container"">
                    <img src=""images/schematic_sequence/supermarket_scheme/supermarket_scheme_8.png"" class=""exp-image"">
                    <div class=""question-area"">
                        <p style=""font-size: 20px; font-weight: bold; margin: 0;"">Is there a person in this image?</p>
                    </div>
                </div>","0","main_experiment_trial","8","supermarket_scheme","schematic_sequence","chronological","","","","","","",""
"","","","","","html-keyboard-response","75","568678","0.0-75.0","F23C5455D9794CD9B96FBE715F906BF7","019cfc7c-9ee4-7067-9150-ea838db8032a","019cfc7b-6c7b-7b1b-afe7-acad8efc6711","","null","
                <div class=""stimulus-container"">
                    <img src=""images/schematic_sequence/supermarket_scheme/supermarket_scheme_9.png"" class=""exp-image"">
                    <div class=""question-area""></div> 
                </div>","null","","","","","","","","","","","",""
"","","","","","html-button-response","76","570018","0.0-76.0","F23C5455D9794CD9B96FBE715F906BF7","019cfc7c-9ee4-7067-9150-ea838db8032a","019cfc7b-6c7b-7b1b-afe7-acad8efc6711","","1339","
                <div class=""stimulus-container"">
                    <img src=""images/schematic_sequence/supermarket_scheme/supermarket_scheme_9.png"" class=""exp-image"">
                    <div class=""question-area"">
                        <p style=""font-size: 20px; font-weight: bold; margin: 0;"">Is there a person in this image?</p>
                    </div>
                </div>","0","main_experiment_trial","9","supermarket_scheme","schematic_sequence","chronological","","","","","","",""
"","","","","","html-keyboard-response","77","575019","0.0-77.0","F23C5455D9794CD9B96FBE715F906BF7","019cfc7c-9ee4-7067-9150-ea838db8032a","019cfc7b-6c7b-7b1b-afe7-acad8efc6711","","null","
                <div class=""stimulus-container"">
                    <img src=""images/schematic_sequence/supermarket_scheme/supermarket_scheme_ten.png"" class=""exp-image"">
                    <div class=""question-area""></div> 
                </div>","null","","","","","","","","","","","",""
"","","","","","html-button-response","78","575706","0.0-78.0","F23C5455D9794CD9B96FBE715F906BF7","019cfc7c-9ee4-7067-9150-ea838db8032a","019cfc7b-6c7b-7b1b-afe7-acad8efc6711","","686","
                <div class=""stimulus-container"">
                    <img src=""images/schematic_sequence/supermarket_scheme/supermarket_scheme_ten.png"" class=""exp-image"">
                    <div class=""question-area"">
                        <p style=""font-size: 20px; font-weight: bold; margin: 0;"">Is there a person in this image?</p>
                    </div>
                </div>","1","main_experiment_trial","ten","supermarket_scheme","schematic_sequence","chronological","","","","","","",""
"","","","","","html-keyboard-response","79","580707","0.0-79.0","F23C5455D9794CD9B96FBE715F906BF7","019cfc7c-9ee4-7067-9150-ea838db8032a","019cfc7b-6c7b-7b1b-afe7-acad8efc6711","","null","<div style=""background-color: white; width: 100vw; height: 100vh;""></div>","null","","","","","","","","","","","",""
"","","","","","html-keyboard-response","80","585711","0.0-80.0","F23C5455D9794CD9B96FBE715F906BF7","019cfc7c-9ee4-7067-9150-ea838db8032a","019cfc7b-6c7b-7b1b-afe7-acad8efc6711","","null","
                <div class=""stimulus-container"">
                    <img src=""images/semantic_sequence/visiting_cities_semantic/visiting_cities_semantic_1.png"" class=""exp-image"">
                    <div class=""question-area""></div> 
                </div>","null","","","","","","","","","","","",""
"","","","","","html-button-response","81","586356","0.0-81.0","F23C5455D9794CD9B96FBE715F906BF7","019cfc7c-9ee4-7067-9150-ea838db8032a","019cfc7b-6c7b-7b1b-afe7-acad8efc6711","","644","
                <div class=""stimulus-container"">
                    <img src=""images/semantic_sequence/visiting_cities_semantic/visiting_cities_semantic_1.png"" class=""exp-image"">
                    <div class=""question-area"">
                        <p style=""font-size: 20px; font-weight: bold; margin: 0;"">Is there a person in this image?</p>
                    </div>
                </div>","1","main_experiment_trial","1","visiting_cities_semantic","semantic_sequence","chronological","","","","","","",""
"","","","","","html-keyboard-response","82","591358","0.0-82.0","F23C5455D9794CD9B96FBE715F906BF7","019cfc7c-9ee4-7067-9150-ea838db8032a","019cfc7b-6c7b-7b1b-afe7-acad8efc6711","","null","
                <div class=""stimulus-container"">
                    <img src=""images/semantic_sequence/visiting_cities_semantic/visiting_cities_semantic_2.png"" class=""exp-image"">
                    <div class=""question-area""></div> 
                </div>","null","","","","","","","","","","","",""
"","","","","","html-button-response","83","591976","0.0-83.0","F23C5455D9794CD9B96FBE715F906BF7","019cfc7c-9ee4-7067-9150-ea838db8032a","019cfc7b-6c7b-7b1b-afe7-acad8efc6711","","618","
                <div class=""stimulus-container"">
                    <img src=""images/semantic_sequence/visiting_cities_semantic/visiting_cities_semantic_2.png"" class=""exp-image"">
                    <div class=""question-area"">
                        <p style=""font-size: 20px; font-weight: bold; margin: 0;"">Is there a person in this image?</p>
                    </div>
                </div>","1","main_experiment_trial","2","visiting_cities_semantic","semantic_sequence","chronological","","","","","","",""
"","","","","","html-keyboard-response","84","596979","0.0-84.0","F23C5455D9794CD9B96FBE715F906BF7","019cfc7c-9ee4-7067-9150-ea838db8032a","019cfc7b-6c7b-7b1b-afe7-acad8efc6711","","null","
                <div class=""stimulus-container"">
                    <img src=""images/semantic_sequence/visiting_cities_semantic/visiting_cities_semantic_3.png"" class=""exp-image"">
                    <div class=""question-area""></div> 
                </div>","null","","","","","","","","","","","",""
"","","","","","html-button-response","85","597879","0.0-85.0","F23C5455D9794CD9B96FBE715F906BF7","019cfc7c-9ee4-7067-9150-ea838db8032a","019cfc7b-6c7b-7b1b-afe7-acad8efc6711","","900","
                <div class=""stimulus-container"">
                    <img src=""images/semantic_sequence/visiting_cities_semantic/visiting_cities_semantic_3.png"" class=""exp-image"">
                    <div class=""question-area"">
                        <p style=""font-size: 20px; font-weight: bold; margin: 0;"">Is there a person in this image?</p>
                    </div>
                </div>","1","main_experiment_trial","3","visiting_cities_semantic","semantic_sequence","chronological","","","","","","",""
"","","","","","html-keyboard-response","86","602881","0.0-86.0","F23C5455D9794CD9B96FBE715F906BF7","019cfc7c-9ee4-7067-9150-ea838db8032a","019cfc7b-6c7b-7b1b-afe7-acad8efc6711","","null","
                <div class=""stimulus-container"">
                    <img src=""images/semantic_sequence/visiting_cities_semantic/visiting_cities_semantic_4.png"" class=""exp-image"">
                    <div class=""question-area""></div> 
                </div>","null","","","","","","","","","","","",""
"","","","","","html-button-response","87","603549","0.0-87.0","F23C5455D9794CD9B96FBE715F906BF7","019cfc7c-9ee4-7067-9150-ea838db8032a","019cfc7b-6c7b-7b1b-afe7-acad8efc6711","","668","
                <div class=""stimulus-container"">
                    <img src=""images/semantic_sequence/visiting_cities_semantic/visiting_cities_semantic_4.png"" class=""exp-image"">
                    <div class=""question-area"">
                        <p style=""font-size: 20px; font-weight: bold; margin: 0;"">Is there a person in this image?</p>
                    </div>
                </div>","1","main_experiment_trial","4","visiting_cities_semantic","semantic_sequence","chronological","","","","","","",""
"","","","","","html-keyboard-response","88","608551","0.0-88.0","F23C5455D9794CD9B96FBE715F906BF7","019cfc7c-9ee4-7067-9150-ea838db8032a","019cfc7b-6c7b-7b1b-afe7-acad8efc6711","","null","
                <div class=""stimulus-container"">
                    <img src=""images/semantic_sequence/visiting_cities_semantic/visiting_cities_semantic_5.png"" class=""exp-image"">
                    <div class=""question-area""></div> 
                </div>","null","","","","","","","","","","","",""
"","","","","","html-button-response","89","609929","0.0-89.0","F23C5455D9794CD9B96FBE715F906BF7","019cfc7c-9ee4-7067-9150-ea838db8032a","019cfc7b-6c7b-7b1b-afe7-acad8efc6711","","1378","
                <div class=""stimulus-container"">
                    <img src=""images/semantic_sequence/visiting_cities_semantic/visiting_cities_semantic_5.png"" class=""exp-image"">
                    <div class=""question-area"">
                        <p style=""font-size: 20px; font-weight: bold; margin: 0;"">Is there a person in this image?</p>
                    </div>
                </div>","1","main_experiment_trial","5","visiting_cities_semantic","semantic_sequence","chronological","","","","","","",""
"","","","","","html-keyboard-response","90","614931","0.0-90.0","F23C5455D9794CD9B96FBE715F906BF7","019cfc7c-9ee4-7067-9150-ea838db8032a","019cfc7b-6c7b-7b1b-afe7-acad8efc6711","","null","
                <div class=""stimulus-container"">
                    <img src=""images/semantic_sequence/visiting_cities_semantic/visiting_cities_semantic_6.png"" class=""exp-image"">
                    <div class=""question-area""></div> 
                </div>","null","","","","","","","","","","","",""
"","","","","","html-button-response","91","615779","0.0-91.0","F23C5455D9794CD9B96FBE715F906BF7","019cfc7c-9ee4-7067-9150-ea838db8032a","019cfc7b-6c7b-7b1b-afe7-acad8efc6711","","848","
                <div class=""stimulus-container"">
                    <img src=""images/semantic_sequence/visiting_cities_semantic/visiting_cities_semantic_6.png"" class=""exp-image"">
                    <div class=""question-area"">
                        <p style=""font-size: 20px; font-weight: bold; margin: 0;"">Is there a person in this image?</p>
                    </div>
                </div>","1","main_experiment_trial","6","visiting_cities_semantic","semantic_sequence","chronological","","","","","","",""
"","","","","","html-keyboard-response","92","620782","0.0-92.0","F23C5455D9794CD9B96FBE715F906BF7","019cfc7c-9ee4-7067-9150-ea838db8032a","019cfc7b-6c7b-7b1b-afe7-acad8efc6711","","null","
                <div class=""stimulus-container"">
                    <img src=""images/semantic_sequence/visiting_cities_semantic/visiting_cities_semantic_7.png"" class=""exp-image"">
                    <div class=""question-area""></div> 
                </div>","null","","","","","","","","","","","",""
"","","","","","html-button-response","93","621490","0.0-93.0","F23C5455D9794CD9B96FBE715F906BF7","019cfc7c-9ee4-7067-9150-ea838db8032a","019cfc7b-6c7b-7b1b-afe7-acad8efc6711","","707","
                <div class=""stimulus-container"">
                    <img src=""images/semantic_sequence/visiting_cities_semantic/visiting_cities_semantic_7.png"" class=""exp-image"">
                    <div class=""question-area"">
                        <p style=""font-size: 20px; font-weight: bold; margin: 0;"">Is there a person in this image?</p>
                    </div>
                </div>","0","main_experiment_trial","7","visiting_cities_semantic","semantic_sequence","chronological","","","","","","",""
"","","","","","html-keyboard-response","94","626492","0.0-94.0","F23C5455D9794CD9B96FBE715F906BF7","019cfc7c-9ee4-7067-9150-ea838db8032a","019cfc7b-6c7b-7b1b-afe7-acad8efc6711","","null","
                <div class=""stimulus-container"">
                    <img src=""images/semantic_sequence/visiting_cities_semantic/visiting_cities_semantic_8.png"" class=""exp-image"">
                    <div class=""question-area""></div> 
                </div>","null","","","","","","","","","","","",""
"","","","","","html-button-response","95","626934","0.0-95.0","F23C5455D9794CD9B96FBE715F906BF7","019cfc7c-9ee4-7067-9150-ea838db8032a","019cfc7b-6c7b-7b1b-afe7-acad8efc6711","","442","
                <div class=""stimulus-container"">
                    <img src=""images/semantic_sequence/visiting_cities_semantic/visiting_cities_semantic_8.png"" class=""exp-image"">
                    <div class=""question-area"">
                        <p style=""font-size: 20px; font-weight: bold; margin: 0;"">Is there a person in this image?</p>
                    </div>
                </div>","1","main_experiment_trial","8","visiting_cities_semantic","semantic_sequence","chronological","","","","","","",""
"","","","","","html-keyboard-response","96","631935","0.0-96.0","F23C5455D9794CD9B96FBE715F906BF7","019cfc7c-9ee4-7067-9150-ea838db8032a","019cfc7b-6c7b-7b1b-afe7-acad8efc6711","","null","
                <div class=""stimulus-container"">
                    <img src=""images/semantic_sequence/visiting_cities_semantic/visiting_cities_semantic_9.png"" class=""exp-image"">
                    <div class=""question-area""></div> 
                </div>","null","","","","","","","","","","","",""
"","","","","","html-button-response","97","632549","0.0-97.0","F23C5455D9794CD9B96FBE715F906BF7","019cfc7c-9ee4-7067-9150-ea838db8032a","019cfc7b-6c7b-7b1b-afe7-acad8efc6711","","614","
                <div class=""stimulus-container"">
                    <img src=""images/semantic_sequence/visiting_cities_semantic/visiting_cities_semantic_9.png"" class=""exp-image"">
                    <div class=""question-area"">
                        <p style=""font-size: 20px; font-weight: bold; margin: 0;"">Is there a person in this image?</p>
                    </div>
                </div>","1","main_experiment_trial","9","visiting_cities_semantic","semantic_sequence","chronological","","","","","","",""
"","","","","","html-keyboard-response","98","637550","0.0-98.0","F23C5455D9794CD9B96FBE715F906BF7","019cfc7c-9ee4-7067-9150-ea838db8032a","019cfc7b-6c7b-7b1b-afe7-acad8efc6711","","null","
                <div class=""stimulus-container"">
                    <img src=""images/semantic_sequence/visiting_cities_semantic/visiting_cities_semantic_ten.png"" class=""exp-image"">
                    <div class=""question-area""></div> 
                </div>","null","","","","","","","","","","","",""
"","","","","","html-button-response","99","638251","0.0-99.0","F23C5455D9794CD9B96FBE715F906BF7","019cfc7c-9ee4-7067-9150-ea838db8032a","019cfc7b-6c7b-7b1b-afe7-acad8efc6711","","701","
                <div class=""stimulus-container"">
                    <img src=""images/semantic_sequence/visiting_cities_semantic/visiting_cities_semantic_ten.png"" class=""exp-image"">
                    <div class=""question-area"">
                        <p style=""font-size: 20px; font-weight: bold; margin: 0;"">Is there a person in this image?</p>
                    </div>
                </div>","1","main_experiment_trial","ten","visiting_cities_semantic","semantic_sequence","chronological","","","","","","",""
"","","","","","html-keyboard-response","100","643253","0.0-100.0","F23C5455D9794CD9B96FBE715F906BF7","019cfc7c-9ee4-7067-9150-ea838db8032a","019cfc7b-6c7b-7b1b-afe7-acad8efc6711","","null","<div style=""background-color: white; width: 100vw; height: 100vh;""></div>","null","","","","","","","","","","","",""
"","","","","","html-keyboard-response","101","648255","0.0-101.0","F23C5455D9794CD9B96FBE715F906BF7","019cfc7c-9ee4-7067-9150-ea838db8032a","019cfc7b-6c7b-7b1b-afe7-acad8efc6711","","null","
                <div class=""stimulus-container"">
                    <img src=""images/causal_sequence/package_causal/package_causal_1.png"" class=""exp-image"">
                    <div class=""question-area""></div> 
                </div>","null","","","","","","","","","","","",""
"","","","","","html-button-response","102","648757","0.0-102.0","F23C5455D9794CD9B96FBE715F906BF7","019cfc7c-9ee4-7067-9150-ea838db8032a","019cfc7b-6c7b-7b1b-afe7-acad8efc6711","","502","
                <div class=""stimulus-container"">
                    <img src=""images/causal_sequence/package_causal/package_causal_1.png"" class=""exp-image"">
                    <div class=""question-area"">
                        <p style=""font-size: 20px; font-weight: bold; margin: 0;"">Is there a person in this image?</p>
                    </div>
                </div>","0","main_experiment_trial","1","package_causal","causal_sequence","chronological","","","","","","",""
"","","","","","html-keyboard-response","103","653758","0.0-103.0","F23C5455D9794CD9B96FBE715F906BF7","019cfc7c-9ee4-7067-9150-ea838db8032a","019cfc7b-6c7b-7b1b-afe7-acad8efc6711","","null","
                <div class=""stimulus-container"">
                    <img src=""images/causal_sequence/package_causal/package_causal_2.png"" class=""exp-image"">
                    <div class=""question-area""></div> 
                </div>","null","","","","","","","","","","","",""
"","","","","","html-button-response","104","654415","0.0-104.0","F23C5455D9794CD9B96FBE715F906BF7","019cfc7c-9ee4-7067-9150-ea838db8032a","019cfc7b-6c7b-7b1b-afe7-acad8efc6711","","656","
                <div class=""stimulus-container"">
                    <img src=""images/causal_sequence/package_causal/package_causal_2.png"" class=""exp-image"">
                    <div class=""question-area"">
                        <p style=""font-size: 20px; font-weight: bold; margin: 0;"">Is there a person in this image?</p>
                    </div>
                </div>","0","main_experiment_trial","2","package_causal","causal_sequence","chronological","","","","","","",""
"","","","","","html-keyboard-response","105","659417","0.0-105.0","F23C5455D9794CD9B96FBE715F906BF7","019cfc7c-9ee4-7067-9150-ea838db8032a","019cfc7b-6c7b-7b1b-afe7-acad8efc6711","","null","
                <div class=""stimulus-container"">
                    <img src=""images/causal_sequence/package_causal/package_causal_3.png"" class=""exp-image"">
                    <div class=""question-area""></div> 
                </div>","null","","","","","","","","","","","",""
"","","","","","html-button-response","106","660175","0.0-106.0","F23C5455D9794CD9B96FBE715F906BF7","019cfc7c-9ee4-7067-9150-ea838db8032a","019cfc7b-6c7b-7b1b-afe7-acad8efc6711","","757","
                <div class=""stimulus-container"">
                    <img src=""images/causal_sequence/package_causal/package_causal_3.png"" class=""exp-image"">
                    <div class=""question-area"">
                        <p style=""font-size: 20px; font-weight: bold; margin: 0;"">Is there a person in this image?</p>
                    </div>
                </div>","0","main_experiment_trial","3","package_causal","causal_sequence","chronological","","","","","","",""
"","","","","","html-keyboard-response","107","665176","0.0-107.0","F23C5455D9794CD9B96FBE715F906BF7","019cfc7c-9ee4-7067-9150-ea838db8032a","019cfc7b-6c7b-7b1b-afe7-acad8efc6711","","null","
                <div class=""stimulus-container"">
                    <img src=""images/causal_sequence/package_causal/package_causal_4.png"" class=""exp-image"">
                    <div class=""question-area""></div> 
                </div>","null","","","","","","","","","","","",""
"","","","","","html-button-response","108","665627","0.0-108.0","F23C5455D9794CD9B96FBE715F906BF7","019cfc7c-9ee4-7067-9150-ea838db8032a","019cfc7b-6c7b-7b1b-afe7-acad8efc6711","","451","
                <div class=""stimulus-container"">
                    <img src=""images/causal_sequence/package_causal/package_causal_4.png"" class=""exp-image"">
                    <div class=""question-area"">
                        <p style=""font-size: 20px; font-weight: bold; margin: 0;"">Is there a person in this image?</p>
                    </div>
                </div>","1","main_experiment_trial","4","package_causal","causal_sequence","chronological","","","","","","",""
"","","","","","html-keyboard-response","109","670629","0.0-109.0","F23C5455D9794CD9B96FBE715F906BF7","019cfc7c-9ee4-7067-9150-ea838db8032a","019cfc7b-6c7b-7b1b-afe7-acad8efc6711","","null","
                <div class=""stimulus-container"">
                    <img src=""images/causal_sequence/package_causal/package_causal_5.png"" class=""exp-image"">
                    <div class=""question-area""></div> 
                </div>","null","","","","","","","","","","","",""
"","","","","","html-button-response","110","671103","0.0-110.0","F23C5455D9794CD9B96FBE715F906BF7","019cfc7c-9ee4-7067-9150-ea838db8032a","019cfc7b-6c7b-7b1b-afe7-acad8efc6711","","474","
                <div class=""stimulus-container"">
                    <img src=""images/causal_sequence/package_causal/package_causal_5.png"" class=""exp-image"">
                    <div class=""question-area"">
                        <p style=""font-size: 20px; font-weight: bold; margin: 0;"">Is there a person in this image?</p>
                    </div>
                </div>","0","main_experiment_trial","5","package_causal","causal_sequence","chronological","","","","","","",""
"","","","","","html-keyboard-response","111","676105","0.0-111.0","F23C5455D9794CD9B96FBE715F906BF7","019cfc7c-9ee4-7067-9150-ea838db8032a","019cfc7b-6c7b-7b1b-afe7-acad8efc6711","","null","
                <div class=""stimulus-container"">
                    <img src=""images/causal_sequence/package_causal/package_causal_6.png"" class=""exp-image"">
                    <div class=""question-area""></div> 
                </div>","null","","","","","","","","","","","",""
"","","","","","html-button-response","112","676893","0.0-112.0","F23C5455D9794CD9B96FBE715F906BF7","019cfc7c-9ee4-7067-9150-ea838db8032a","019cfc7b-6c7b-7b1b-afe7-acad8efc6711","","788","
                <div class=""stimulus-container"">
                    <img src=""images/causal_sequence/package_causal/package_causal_6.png"" class=""exp-image"">
                    <div class=""question-area"">
                        <p style=""font-size: 20px; font-weight: bold; margin: 0;"">Is there a person in this image?</p>
                    </div>
                </div>","0","main_experiment_trial","6","package_causal","causal_sequence","chronological","","","","","","",""
"","","","","","html-keyboard-response","113","681895","0.0-113.0","F23C5455D9794CD9B96FBE715F906BF7","019cfc7c-9ee4-7067-9150-ea838db8032a","019cfc7b-6c7b-7b1b-afe7-acad8efc6711","","null","
                <div class=""stimulus-container"">
                    <img src=""images/causal_sequence/package_causal/package_causal_7.png"" class=""exp-image"">
                    <div class=""question-area""></div> 
                </div>","null","","","","","","","","","","","",""
"","","","","","html-button-response","114","682773","0.0-114.0","F23C5455D9794CD9B96FBE715F906BF7","019cfc7c-9ee4-7067-9150-ea838db8032a","019cfc7b-6c7b-7b1b-afe7-acad8efc6711","","877","
                <div class=""stimulus-container"">
                    <img src=""images/causal_sequence/package_causal/package_causal_7.png"" class=""exp-image"">
                    <div class=""question-area"">
                        <p style=""font-size: 20px; font-weight: bold; margin: 0;"">Is there a person in this image?</p>
                    </div>
                </div>","0","main_experiment_trial","7","package_causal","causal_sequence","chronological","","","","","","",""
"","","","","","html-keyboard-response","115","687774","0.0-115.0","F23C5455D9794CD9B96FBE715F906BF7","019cfc7c-9ee4-7067-9150-ea838db8032a","019cfc7b-6c7b-7b1b-afe7-acad8efc6711","","null","
                <div class=""stimulus-container"">
                    <img src=""images/causal_sequence/package_causal/package_causal_8.png"" class=""exp-image"">
                    <div class=""question-area""></div> 
                </div>","null","","","","","","","","","","","",""
"","","","","","html-button-response","116","688481","0.0-116.0","F23C5455D9794CD9B96FBE715F906BF7","019cfc7c-9ee4-7067-9150-ea838db8032a","019cfc7b-6c7b-7b1b-afe7-acad8efc6711","","706","
                <div class=""stimulus-container"">
                    <img src=""images/causal_sequence/package_causal/package_causal_8.png"" class=""exp-image"">
                    <div class=""question-area"">
                        <p style=""font-size: 20px; font-weight: bold; margin: 0;"">Is there a person in this image?</p>
                    </div>
                </div>","0","main_experiment_trial","8","package_causal","causal_sequence","chronological","","","","","","",""
"","","","","","html-keyboard-response","117","693483","0.0-117.0","F23C5455D9794CD9B96FBE715F906BF7","019cfc7c-9ee4-7067-9150-ea838db8032a","019cfc7b-6c7b-7b1b-afe7-acad8efc6711","","null","
                <div class=""stimulus-container"">
                    <img src=""images/causal_sequence/package_causal/package_causal_9.png"" class=""exp-image"">
                    <div class=""question-area""></div> 
                </div>","null","","","","","","","","","","","",""
"","","","","","html-button-response","118","694262","0.0-118.0","F23C5455D9794CD9B96FBE715F906BF7","019cfc7c-9ee4-7067-9150-ea838db8032a","019cfc7b-6c7b-7b1b-afe7-acad8efc6711","","779","
                <div class=""stimulus-container"">
                    <img src=""images/causal_sequence/package_causal/package_causal_9.png"" class=""exp-image"">
                    <div class=""question-area"">
                        <p style=""font-size: 20px; font-weight: bold; margin: 0;"">Is there a person in this image?</p>
                    </div>
                </div>","0","main_experiment_trial","9","package_causal","causal_sequence","chronological","","","","","","",""
"","","","","","html-keyboard-response","119","699264","0.0-119.0","F23C5455D9794CD9B96FBE715F906BF7","019cfc7c-9ee4-7067-9150-ea838db8032a","019cfc7b-6c7b-7b1b-afe7-acad8efc6711","","null","
                <div class=""stimulus-container"">
                    <img src=""images/causal_sequence/package_causal/package_causal_ten.png"" class=""exp-image"">
                    <div class=""question-area""></div> 
                </div>","null","","","","","","","","","","","",""
"","","","","","html-button-response","120","700332","0.0-120.0","F23C5455D9794CD9B96FBE715F906BF7","019cfc7c-9ee4-7067-9150-ea838db8032a","019cfc7b-6c7b-7b1b-afe7-acad8efc6711","","1068","
                <div class=""stimulus-container"">
                    <img src=""images/causal_sequence/package_causal/package_causal_ten.png"" class=""exp-image"">
                    <div class=""question-area"">
                        <p style=""font-size: 20px; font-weight: bold; margin: 0;"">Is there a person in this image?</p>
                    </div>
                </div>","0","main_experiment_trial","ten","package_causal","causal_sequence","chronological","","","","","","",""
"","","","","","html-keyboard-response","121","705333","0.0-121.0","F23C5455D9794CD9B96FBE715F906BF7","019cfc7c-9ee4-7067-9150-ea838db8032a","019cfc7b-6c7b-7b1b-afe7-acad8efc6711","","null","<div style=""background-color: white; width: 100vw; height: 100vh;""></div>","null","","","","","","","","","","","",""
"","","","","","html-keyboard-response","122","710336","0.0-122.0","F23C5455D9794CD9B96FBE715F906BF7","019cfc7c-9ee4-7067-9150-ea838db8032a","019cfc7b-6c7b-7b1b-afe7-acad8efc6711","","null","
                <div class=""stimulus-container"">
                    <img src=""images/semantic_sequence/self_care_activities_semantic/self_care_activities_semantic_1.png"" class=""exp-image"">
                    <div class=""question-area""></div> 
                </div>","null","","","","","","","","","","","",""
"","","","","","html-button-response","123","711022","0.0-123.0","F23C5455D9794CD9B96FBE715F906BF7","019cfc7c-9ee4-7067-9150-ea838db8032a","019cfc7b-6c7b-7b1b-afe7-acad8efc6711","","686","
                <div class=""stimulus-container"">
                    <img src=""images/semantic_sequence/self_care_activities_semantic/self_care_activities_semantic_1.png"" class=""exp-image"">
                    <div class=""question-area"">
                        <p style=""font-size: 20px; font-weight: bold; margin: 0;"">Is there a person in this image?</p>
                    </div>
                </div>","0","main_experiment_trial","1","self_care_activities_semantic","semantic_sequence","chronological","","","","","","",""
"","","","","","html-keyboard-response","124","716020","0.0-124.0","F23C5455D9794CD9B96FBE715F906BF7","019cfc7c-9ee4-7067-9150-ea838db8032a","019cfc7b-6c7b-7b1b-afe7-acad8efc6711","","null","
                <div class=""stimulus-container"">
                    <img src=""images/semantic_sequence/self_care_activities_semantic/self_care_activities_semantic_2.png"" class=""exp-image"">
                    <div class=""question-area""></div> 
                </div>","null","","","","","","","","","","","",""
"","","","","","html-button-response","125","716441","0.0-125.0","F23C5455D9794CD9B96FBE715F906BF7","019cfc7c-9ee4-7067-9150-ea838db8032a","019cfc7b-6c7b-7b1b-afe7-acad8efc6711","","421","
                <div class=""stimulus-container"">
                    <img src=""images/semantic_sequence/self_care_activities_semantic/self_care_activities_semantic_2.png"" class=""exp-image"">
                    <div class=""question-area"">
                        <p style=""font-size: 20px; font-weight: bold; margin: 0;"">Is there a person in this image?</p>
                    </div>
                </div>","0","main_experiment_trial","2","self_care_activities_semantic","semantic_sequence","chronological","","","","","","",""
"","","","","","html-keyboard-response","126","721439","0.0-126.0","F23C5455D9794CD9B96FBE715F906BF7","019cfc7c-9ee4-7067-9150-ea838db8032a","019cfc7b-6c7b-7b1b-afe7-acad8efc6711","","null","
                <div class=""stimulus-container"">
                    <img src=""images/semantic_sequence/self_care_activities_semantic/self_care_activities_semantic_3.png"" class=""exp-image"">
                    <div class=""question-area""></div> 
                </div>","null","","","","","","","","","","","",""
"","","","","","html-button-response","127","721817","0.0-127.0","F23C5455D9794CD9B96FBE715F906BF7","019cfc7c-9ee4-7067-9150-ea838db8032a","019cfc7b-6c7b-7b1b-afe7-acad8efc6711","","378","
                <div class=""stimulus-container"">
                    <img src=""images/semantic_sequence/self_care_activities_semantic/self_care_activities_semantic_3.png"" class=""exp-image"">
                    <div class=""question-area"">
                        <p style=""font-size: 20px; font-weight: bold; margin: 0;"">Is there a person in this image?</p>
                    </div>
                </div>","0","main_experiment_trial","3","self_care_activities_semantic","semantic_sequence","chronological","","","","","","",""
"","","","","","html-keyboard-response","128","726816","0.0-128.0","F23C5455D9794CD9B96FBE715F906BF7","019cfc7c-9ee4-7067-9150-ea838db8032a","019cfc7b-6c7b-7b1b-afe7-acad8efc6711","","null","
                <div class=""stimulus-container"">
                    <img src=""images/semantic_sequence/self_care_activities_semantic/self_care_activities_semantic_4.png"" class=""exp-image"">
                    <div class=""question-area""></div> 
                </div>","null","","","","","","","","","","","",""
"","","","","","html-button-response","129","727319","0.0-129.0","F23C5455D9794CD9B96FBE715F906BF7","019cfc7c-9ee4-7067-9150-ea838db8032a","019cfc7b-6c7b-7b1b-afe7-acad8efc6711","","503","
                <div class=""stimulus-container"">
                    <img src=""images/semantic_sequence/self_care_activities_semantic/self_care_activities_semantic_4.png"" class=""exp-image"">
                    <div class=""question-area"">
                        <p style=""font-size: 20px; font-weight: bold; margin: 0;"">Is there a person in this image?</p>
                    </div>
                </div>","0","main_experiment_trial","4","self_care_activities_semantic","semantic_sequence","chronological","","","","","","",""
"","","","","","html-keyboard-response","130","732319","0.0-130.0","F23C5455D9794CD9B96FBE715F906BF7","019cfc7c-9ee4-7067-9150-ea838db8032a","019cfc7b-6c7b-7b1b-afe7-acad8efc6711","","null","
                <div class=""stimulus-container"">
                    <img src=""images/semantic_sequence/self_care_activities_semantic/self_care_activities_semantic_5.png"" class=""exp-image"">
                    <div class=""question-area""></div> 
                </div>","null","","","","","","","","","","","",""
"","","","","","html-button-response","131","734287","0.0-131.0","F23C5455D9794CD9B96FBE715F906BF7","019cfc7c-9ee4-7067-9150-ea838db8032a","019cfc7b-6c7b-7b1b-afe7-acad8efc6711","","1968","
                <div class=""stimulus-container"">
                    <img src=""images/semantic_sequence/self_care_activities_semantic/self_care_activities_semantic_5.png"" class=""exp-image"">
                    <div class=""question-area"">
                        <p style=""font-size: 20px; font-weight: bold; margin: 0;"">Is there a person in this image?</p>
                    </div>
                </div>","0","main_experiment_trial","5","self_care_activities_semantic","semantic_sequence","chronological","","","","","","",""
"","","","","","html-keyboard-response","132","739287","0.0-132.0","F23C5455D9794CD9B96FBE715F906BF7","019cfc7c-9ee4-7067-9150-ea838db8032a","019cfc7b-6c7b-7b1b-afe7-acad8efc6711","","null","
                <div class=""stimulus-container"">
                    <img src=""images/semantic_sequence/self_care_activities_semantic/self_care_activities_semantic_6.png"" class=""exp-image"">
                    <div class=""question-area""></div> 
                </div>","null","","","","","","","","","","","",""
"","","","","","html-button-response","133","740960","0.0-133.0","F23C5455D9794CD9B96FBE715F906BF7","019cfc7c-9ee4-7067-9150-ea838db8032a","019cfc7b-6c7b-7b1b-afe7-acad8efc6711","","1673","
                <div class=""stimulus-container"">
                    <img src=""images/semantic_sequence/self_care_activities_semantic/self_care_activities_semantic_6.png"" class=""exp-image"">
                    <div class=""question-area"">
                        <p style=""font-size: 20px; font-weight: bold; margin: 0;"">Is there a person in this image?</p>
                    </div>
                </div>","1","main_experiment_trial","6","self_care_activities_semantic","semantic_sequence","chronological","","","","","","",""
"","","","","","html-keyboard-response","134","745961","0.0-134.0","F23C5455D9794CD9B96FBE715F906BF7","019cfc7c-9ee4-7067-9150-ea838db8032a","019cfc7b-6c7b-7b1b-afe7-acad8efc6711","","null","
                <div class=""stimulus-container"">
                    <img src=""images/semantic_sequence/self_care_activities_semantic/self_care_activities_semantic_7.png"" class=""exp-image"">
                    <div class=""question-area""></div> 
                </div>","null","","","","","","","","","","","",""
"","","","","","html-button-response","135","747083","0.0-135.0","F23C5455D9794CD9B96FBE715F906BF7","019cfc7c-9ee4-7067-9150-ea838db8032a","019cfc7b-6c7b-7b1b-afe7-acad8efc6711","","1122","
                <div class=""stimulus-container"">
                    <img src=""images/semantic_sequence/self_care_activities_semantic/self_care_activities_semantic_7.png"" class=""exp-image"">
                    <div class=""question-area"">
                        <p style=""font-size: 20px; font-weight: bold; margin: 0;"">Is there a person in this image?</p>
                    </div>
                </div>","0","main_experiment_trial","7","self_care_activities_semantic","semantic_sequence","chronological","","","","","","",""
"","","","","","html-keyboard-response","136","752084","0.0-136.0","F23C5455D9794CD9B96FBE715F906BF7","019cfc7c-9ee4-7067-9150-ea838db8032a","019cfc7b-6c7b-7b1b-afe7-acad8efc6711","","null","
                <div class=""stimulus-container"">
                    <img src=""images/semantic_sequence/self_care_activities_semantic/self_care_activities_semantic_8.png"" class=""exp-image"">
                    <div class=""question-area""></div> 
                </div>","null","","","","","","","","","","","",""
"","","","","","html-button-response","137","753229","0.0-137.0","F23C5455D9794CD9B96FBE715F906BF7","019cfc7c-9ee4-7067-9150-ea838db8032a","019cfc7b-6c7b-7b1b-afe7-acad8efc6711","","1145","
                <div class=""stimulus-container"">
                    <img src=""images/semantic_sequence/self_care_activities_semantic/self_care_activities_semantic_8.png"" class=""exp-image"">
                    <div class=""question-area"">
                        <p style=""font-size: 20px; font-weight: bold; margin: 0;"">Is there a person in this image?</p>
                    </div>
                </div>","0","main_experiment_trial","8","self_care_activities_semantic","semantic_sequence","chronological","","","","","","",""
"","","","","","html-keyboard-response","138","758231","0.0-138.0","F23C5455D9794CD9B96FBE715F906BF7","019cfc7c-9ee4-7067-9150-ea838db8032a","019cfc7b-6c7b-7b1b-afe7-acad8efc6711","","null","
                <div class=""stimulus-container"">
                    <img src=""images/semantic_sequence/self_care_activities_semantic/self_care_activities_semantic_9.png"" class=""exp-image"">
                    <div class=""question-area""></div> 
                </div>","null","","","","","","","","","","","",""
"","","","","","html-button-response","139","759080","0.0-139.0","F23C5455D9794CD9B96FBE715F906BF7","019cfc7c-9ee4-7067-9150-ea838db8032a","019cfc7b-6c7b-7b1b-afe7-acad8efc6711","","849","
                <div class=""stimulus-container"">
                    <img src=""images/semantic_sequence/self_care_activities_semantic/self_care_activities_semantic_9.png"" class=""exp-image"">
                    <div class=""question-area"">
                        <p style=""font-size: 20px; font-weight: bold; margin: 0;"">Is there a person in this image?</p>
                    </div>
                </div>","0","main_experiment_trial","9","self_care_activities_semantic","semantic_sequence","chronological","","","","","","",""
"","","","","","html-keyboard-response","140","764081","0.0-140.0","F23C5455D9794CD9B96FBE715F906BF7","019cfc7c-9ee4-7067-9150-ea838db8032a","019cfc7b-6c7b-7b1b-afe7-acad8efc6711","","null","
                <div class=""stimulus-container"">
                    <img src=""images/semantic_sequence/self_care_activities_semantic/self_care_activities_semantic_ten.png"" class=""exp-image"">
                    <div class=""question-area""></div> 
                </div>","null","","","","","","","","","","","",""
"","","","","","html-button-response","141","767083","0.0-141.0","F23C5455D9794CD9B96FBE715F906BF7","019cfc7c-9ee4-7067-9150-ea838db8032a","019cfc7b-6c7b-7b1b-afe7-acad8efc6711","","null","
                <div class=""stimulus-container"">
                    <img src=""images/semantic_sequence/self_care_activities_semantic/self_care_activities_semantic_ten.png"" class=""exp-image"">
                    <div class=""question-area"">
                        <p style=""font-size: 20px; font-weight: bold; margin: 0;"">Is there a person in this image?</p>
                    </div>
                </div>","null","main_experiment_trial","ten","self_care_activities_semantic","semantic_sequence","chronological","","","","","","",""
"","","","","","html-keyboard-response","142","772085","0.0-142.0","F23C5455D9794CD9B96FBE715F906BF7","019cfc7c-9ee4-7067-9150-ea838db8032a","019cfc7b-6c7b-7b1b-afe7-acad8efc6711","","null","<div style=""background-color: white; width: 100vw; height: 100vh;""></div>","null","","","","","","","","","","","",""
"","","","","","html-keyboard-response","143","777086","0.0-143.0","F23C5455D9794CD9B96FBE715F906BF7","019cfc7c-9ee4-7067-9150-ea838db8032a","019cfc7b-6c7b-7b1b-afe7-acad8efc6711","","null","
                <div class=""stimulus-container"">
                    <img src=""images/schematic_sequence/dinner_party_scheme/dinner_party_scheme_1.png"" class=""exp-image"">
                    <div class=""question-area""></div> 
                </div>","null","","","","","","","","","","","",""
"","","","","","html-button-response","144","777663","0.0-144.0","F23C5455D9794CD9B96FBE715F906BF7","019cfc7c-9ee4-7067-9150-ea838db8032a","019cfc7b-6c7b-7b1b-afe7-acad8efc6711","","577","
                <div class=""stimulus-container"">
                    <img src=""images/schematic_sequence/dinner_party_scheme/dinner_party_scheme_1.png"" class=""exp-image"">
                    <div class=""question-area"">
                        <p style=""font-size: 20px; font-weight: bold; margin: 0;"">Is there a person in this image?</p>
                    </div>
                </div>","0","main_experiment_trial","1","dinner_party_scheme","schematic_sequence","chronological","","","","","","",""
"","","","","","html-keyboard-response","145","782665","0.0-145.0","F23C5455D9794CD9B96FBE715F906BF7","019cfc7c-9ee4-7067-9150-ea838db8032a","019cfc7b-6c7b-7b1b-afe7-acad8efc6711","","null","
                <div class=""stimulus-container"">
                    <img src=""images/schematic_sequence/dinner_party_scheme/dinner_party_scheme_2.png"" class=""exp-image"">
                    <div class=""question-area""></div> 
                </div>","null","","","","","","","","","","","",""
"","","","","","html-button-response","146","784337","0.0-146.0","F23C5455D9794CD9B96FBE715F906BF7","019cfc7c-9ee4-7067-9150-ea838db8032a","019cfc7b-6c7b-7b1b-afe7-acad8efc6711","","1672","
                <div class=""stimulus-container"">
                    <img src=""images/schematic_sequence/dinner_party_scheme/dinner_party_scheme_2.png"" class=""exp-image"">
                    <div class=""question-area"">
                        <p style=""font-size: 20px; font-weight: bold; margin: 0;"">Is there a person in this image?</p>
                    </div>
                </div>","1","main_experiment_trial","2","dinner_party_scheme","schematic_sequence","chronological","","","","","","",""
"","","","","","html-keyboard-response","147","789339","0.0-147.0","F23C5455D9794CD9B96FBE715F906BF7","019cfc7c-9ee4-7067-9150-ea838db8032a","019cfc7b-6c7b-7b1b-afe7-acad8efc6711","","null","
                <div class=""stimulus-container"">
                    <img src=""images/schematic_sequence/dinner_party_scheme/dinner_party_scheme_3.png"" class=""exp-image"">
                    <div class=""question-area""></div> 
                </div>","null","","","","","","","","","","","",""
"","","","","","html-button-response","148","790667","0.0-148.0","F23C5455D9794CD9B96FBE715F906BF7","019cfc7c-9ee4-7067-9150-ea838db8032a","019cfc7b-6c7b-7b1b-afe7-acad8efc6711","","1328","
                <div class=""stimulus-container"">
                    <img src=""images/schematic_sequence/dinner_party_scheme/dinner_party_scheme_3.png"" class=""exp-image"">
                    <div class=""question-area"">
                        <p style=""font-size: 20px; font-weight: bold; margin: 0;"">Is there a person in this image?</p>
                    </div>
                </div>","0","main_experiment_trial","3","dinner_party_scheme","schematic_sequence","chronological","","","","","","",""
"","","","","","html-keyboard-response","149","795669","0.0-149.0","F23C5455D9794CD9B96FBE715F906BF7","019cfc7c-9ee4-7067-9150-ea838db8032a","019cfc7b-6c7b-7b1b-afe7-acad8efc6711","","null","
                <div class=""stimulus-container"">
                    <img src=""images/schematic_sequence/dinner_party_scheme/dinner_party_scheme_4.png"" class=""exp-image"">
                    <div class=""question-area""></div> 
                </div>","null","","","","","","","","","","","",""
"","","","","","html-button-response","150","796489","0.0-150.0","F23C5455D9794CD9B96FBE715F906BF7","019cfc7c-9ee4-7067-9150-ea838db8032a","019cfc7b-6c7b-7b1b-afe7-acad8efc6711","","819","
                <div class=""stimulus-container"">
                    <img src=""images/schematic_sequence/dinner_party_scheme/dinner_party_scheme_4.png"" class=""exp-image"">
                    <div class=""question-area"">
                        <p style=""font-size: 20px; font-weight: bold; margin: 0;"">Is there a person in this image?</p>
                    </div>
                </div>","0","main_experiment_trial","4","dinner_party_scheme","schematic_sequence","chronological","","","","","","",""
"","","","","","html-keyboard-response","151","801490","0.0-151.0","F23C5455D9794CD9B96FBE715F906BF7","019cfc7c-9ee4-7067-9150-ea838db8032a","019cfc7b-6c7b-7b1b-afe7-acad8efc6711","","null","
                <div class=""stimulus-container"">
                    <img src=""images/schematic_sequence/dinner_party_scheme/dinner_party_scheme_5.png"" class=""exp-image"">
                    <div class=""question-area""></div> 
                </div>","null","","","","","","","","","","","",""
"","","","","","html-button-response","152","802013","0.0-152.0","F23C5455D9794CD9B96FBE715F906BF7","019cfc7c-9ee4-7067-9150-ea838db8032a","019cfc7b-6c7b-7b1b-afe7-acad8efc6711","","523","
                <div class=""stimulus-container"">
                    <img src=""images/schematic_sequence/dinner_party_scheme/dinner_party_scheme_5.png"" class=""exp-image"">
                    <div class=""question-area"">
                        <p style=""font-size: 20px; font-weight: bold; margin: 0;"">Is there a person in this image?</p>
                    </div>
                </div>","0","main_experiment_trial","5","dinner_party_scheme","schematic_sequence","chronological","","","","","","",""
"","","","","","html-keyboard-response","153","807015","0.0-153.0","F23C5455D9794CD9B96FBE715F906BF7","019cfc7c-9ee4-7067-9150-ea838db8032a","019cfc7b-6c7b-7b1b-afe7-acad8efc6711","","null","
                <div class=""stimulus-container"">
                    <img src=""images/schematic_sequence/dinner_party_scheme/dinner_party_scheme_6.png"" class=""exp-image"">
                    <div class=""question-area""></div> 
                </div>","null","","","","","","","","","","","",""
"","","","","","html-button-response","154","808252","0.0-154.0","F23C5455D9794CD9B96FBE715F906BF7","019cfc7c-9ee4-7067-9150-ea838db8032a","019cfc7b-6c7b-7b1b-afe7-acad8efc6711","","1237","
                <div class=""stimulus-container"">
                    <img src=""images/schematic_sequence/dinner_party_scheme/dinner_party_scheme_6.png"" class=""exp-image"">
                    <div class=""question-area"">
                        <p style=""font-size: 20px; font-weight: bold; margin: 0;"">Is there a person in this image?</p>
                    </div>
                </div>","0","main_experiment_trial","6","dinner_party_scheme","schematic_sequence","chronological","","","","","","",""
"","","","","","html-keyboard-response","155","813253","0.0-155.0","F23C5455D9794CD9B96FBE715F906BF7","019cfc7c-9ee4-7067-9150-ea838db8032a","019cfc7b-6c7b-7b1b-afe7-acad8efc6711","","null","
                <div class=""stimulus-container"">
                    <img src=""images/schematic_sequence/dinner_party_scheme/dinner_party_scheme_7.png"" class=""exp-image"">
                    <div class=""question-area""></div> 
                </div>","null","","","","","","","","","","","",""
"","","","","","html-button-response","156","813711","0.0-156.0","F23C5455D9794CD9B96FBE715F906BF7","019cfc7c-9ee4-7067-9150-ea838db8032a","019cfc7b-6c7b-7b1b-afe7-acad8efc6711","","458","
                <div class=""stimulus-container"">
                    <img src=""images/schematic_sequence/dinner_party_scheme/dinner_party_scheme_7.png"" class=""exp-image"">
                    <div class=""question-area"">
                        <p style=""font-size: 20px; font-weight: bold; margin: 0;"">Is there a person in this image?</p>
                    </div>
                </div>","0","main_experiment_trial","7","dinner_party_scheme","schematic_sequence","chronological","","","","","","",""
"","","","","","html-keyboard-response","157","818712","0.0-157.0","F23C5455D9794CD9B96FBE715F906BF7","019cfc7c-9ee4-7067-9150-ea838db8032a","019cfc7b-6c7b-7b1b-afe7-acad8efc6711","","null","
                <div class=""stimulus-container"">
                    <img src=""images/schematic_sequence/dinner_party_scheme/dinner_party_scheme_8.png"" class=""exp-image"">
                    <div class=""question-area""></div> 
                </div>","null","","","","","","","","","","","",""
"","","","","","html-button-response","158","819804","0.0-158.0","F23C5455D9794CD9B96FBE715F906BF7","019cfc7c-9ee4-7067-9150-ea838db8032a","019cfc7b-6c7b-7b1b-afe7-acad8efc6711","","1091","
                <div class=""stimulus-container"">
                    <img src=""images/schematic_sequence/dinner_party_scheme/dinner_party_scheme_8.png"" class=""exp-image"">
                    <div class=""question-area"">
                        <p style=""font-size: 20px; font-weight: bold; margin: 0;"">Is there a person in this image?</p>
                    </div>
                </div>","0","main_experiment_trial","8","dinner_party_scheme","schematic_sequence","chronological","","","","","","",""
"","","","","","html-keyboard-response","159","824806","0.0-159.0","F23C5455D9794CD9B96FBE715F906BF7","019cfc7c-9ee4-7067-9150-ea838db8032a","019cfc7b-6c7b-7b1b-afe7-acad8efc6711","","null","
                <div class=""stimulus-container"">
                    <img src=""images/schematic_sequence/dinner_party_scheme/dinner_party_scheme_9.png"" class=""exp-image"">
                    <div class=""question-area""></div> 
                </div>","null","","","","","","","","","","","",""
"","","","","","html-button-response","160","825464","0.0-160.0","F23C5455D9794CD9B96FBE715F906BF7","019cfc7c-9ee4-7067-9150-ea838db8032a","019cfc7b-6c7b-7b1b-afe7-acad8efc6711","","656","
                <div class=""stimulus-container"">
                    <img src=""images/schematic_sequence/dinner_party_scheme/dinner_party_scheme_9.png"" class=""exp-image"">
                    <div class=""question-area"">
                        <p style=""font-size: 20px; font-weight: bold; margin: 0;"">Is there a person in this image?</p>
                    </div>
                </div>","0","main_experiment_trial","9","dinner_party_scheme","schematic_sequence","chronological","","","","","","",""
"","","","","","html-keyboard-response","161","830466","0.0-161.0","F23C5455D9794CD9B96FBE715F906BF7","019cfc7c-9ee4-7067-9150-ea838db8032a","019cfc7b-6c7b-7b1b-afe7-acad8efc6711","","null","
                <div class=""stimulus-container"">
                    <img src=""images/schematic_sequence/dinner_party_scheme/dinner_party_scheme_ten.png"" class=""exp-image"">
                    <div class=""question-area""></div> 
                </div>","null","","","","","","","","","","","",""
"","","","","","html-button-response","162","831506","0.0-162.0","F23C5455D9794CD9B96FBE715F906BF7","019cfc7c-9ee4-7067-9150-ea838db8032a","019cfc7b-6c7b-7b1b-afe7-acad8efc6711","","1039","
                <div class=""stimulus-container"">
                    <img src=""images/schematic_sequence/dinner_party_scheme/dinner_party_scheme_ten.png"" class=""exp-image"">
                    <div class=""question-area"">
                        <p style=""font-size: 20px; font-weight: bold; margin: 0;"">Is there a person in this image?</p>
                    </div>
                </div>","0","main_experiment_trial","ten","dinner_party_scheme","schematic_sequence","chronological","","","","","","",""
"","","","","","html-keyboard-response","163","836508","0.0-163.0","F23C5455D9794CD9B96FBE715F906BF7","019cfc7c-9ee4-7067-9150-ea838db8032a","019cfc7b-6c7b-7b1b-afe7-acad8efc6711","","null","<div style=""background-color: white; width: 100vw; height: 100vh;""></div>","null","","","","","","","","","","","",""
"","","","","","html-keyboard-response","164","841511","0.0-164.0","F23C5455D9794CD9B96FBE715F906BF7","019cfc7c-9ee4-7067-9150-ea838db8032a","019cfc7b-6c7b-7b1b-afe7-acad8efc6711","","null","
                <div class=""stimulus-container"">
                    <img src=""images/schematic_sequence/restaurant_scheme/restaurant_scheme_1.png"" class=""exp-image"">
                    <div class=""question-area""></div> 
                </div>","null","","","","","","","","","","","",""
"","","","","","html-button-response","165","842399","0.0-165.0","F23C5455D9794CD9B96FBE715F906BF7","019cfc7c-9ee4-7067-9150-ea838db8032a","019cfc7b-6c7b-7b1b-afe7-acad8efc6711","","888","
                <div class=""stimulus-container"">
                    <img src=""images/schematic_sequence/restaurant_scheme/restaurant_scheme_1.png"" class=""exp-image"">
                    <div class=""question-area"">
                        <p style=""font-size: 20px; font-weight: bold; margin: 0;"">Is there a person in this image?</p>
                    </div>
                </div>","0","main_experiment_trial","1","restaurant_scheme","schematic_sequence","chronological","","","","","","",""
"","","","","","html-keyboard-response","166","847401","0.0-166.0","F23C5455D9794CD9B96FBE715F906BF7","019cfc7c-9ee4-7067-9150-ea838db8032a","019cfc7b-6c7b-7b1b-afe7-acad8efc6711","","null","
                <div class=""stimulus-container"">
                    <img src=""images/schematic_sequence/restaurant_scheme/restaurant_scheme_2.png"" class=""exp-image"">
                    <div class=""question-area""></div> 
                </div>","null","","","","","","","","","","","",""
"","","","","","html-button-response","167","847978","0.0-167.0","F23C5455D9794CD9B96FBE715F906BF7","019cfc7c-9ee4-7067-9150-ea838db8032a","019cfc7b-6c7b-7b1b-afe7-acad8efc6711","","577","
                <div class=""stimulus-container"">
                    <img src=""images/schematic_sequence/restaurant_scheme/restaurant_scheme_2.png"" class=""exp-image"">
                    <div class=""question-area"">
                        <p style=""font-size: 20px; font-weight: bold; margin: 0;"">Is there a person in this image?</p>
                    </div>
                </div>","1","main_experiment_trial","2","restaurant_scheme","schematic_sequence","chronological","","","","","","",""
"","","","","","html-keyboard-response","168","852980","0.0-168.0","F23C5455D9794CD9B96FBE715F906BF7","019cfc7c-9ee4-7067-9150-ea838db8032a","019cfc7b-6c7b-7b1b-afe7-acad8efc6711","","null","
                <div class=""stimulus-container"">
                    <img src=""images/schematic_sequence/restaurant_scheme/restaurant_scheme_3.png"" class=""exp-image"">
                    <div class=""question-area""></div> 
                </div>","null","","","","","","","","","","","",""
"","","","","","html-button-response","169","853811","0.0-169.0","F23C5455D9794CD9B96FBE715F906BF7","019cfc7c-9ee4-7067-9150-ea838db8032a","019cfc7b-6c7b-7b1b-afe7-acad8efc6711","","831","
                <div class=""stimulus-container"">
                    <img src=""images/schematic_sequence/restaurant_scheme/restaurant_scheme_3.png"" class=""exp-image"">
                    <div class=""question-area"">
                        <p style=""font-size: 20px; font-weight: bold; margin: 0;"">Is there a person in this image?</p>
                    </div>
                </div>","1","main_experiment_trial","3","restaurant_scheme","schematic_sequence","chronological","","","","","","",""
"","","","","","html-keyboard-response","170","858813","0.0-170.0","F23C5455D9794CD9B96FBE715F906BF7","019cfc7c-9ee4-7067-9150-ea838db8032a","019cfc7b-6c7b-7b1b-afe7-acad8efc6711","","null","
                <div class=""stimulus-container"">
                    <img src=""images/schematic_sequence/restaurant_scheme/restaurant_scheme_4.png"" class=""exp-image"">
                    <div class=""question-area""></div> 
                </div>","null","","","","","","","","","","","",""
"","","","","","html-button-response","171","859709","0.0-171.0","F23C5455D9794CD9B96FBE715F906BF7","019cfc7c-9ee4-7067-9150-ea838db8032a","019cfc7b-6c7b-7b1b-afe7-acad8efc6711","","896","
                <div class=""stimulus-container"">
                    <img src=""images/schematic_sequence/restaurant_scheme/restaurant_scheme_4.png"" class=""exp-image"">
                    <div class=""question-area"">
                        <p style=""font-size: 20px; font-weight: bold; margin: 0;"">Is there a person in this image?</p>
                    </div>
                </div>","0","main_experiment_trial","4","restaurant_scheme","schematic_sequence","chronological","","","","","","",""
"","","","","","html-keyboard-response","172","864711","0.0-172.0","F23C5455D9794CD9B96FBE715F906BF7","019cfc7c-9ee4-7067-9150-ea838db8032a","019cfc7b-6c7b-7b1b-afe7-acad8efc6711","","null","
                <div class=""stimulus-container"">
                    <img src=""images/schematic_sequence/restaurant_scheme/restaurant_scheme_5.png"" class=""exp-image"">
                    <div class=""question-area""></div> 
                </div>","null","","","","","","","","","","","",""
"","","","","","html-button-response","173","865227","0.0-173.0","F23C5455D9794CD9B96FBE715F906BF7","019cfc7c-9ee4-7067-9150-ea838db8032a","019cfc7b-6c7b-7b1b-afe7-acad8efc6711","","516","
                <div class=""stimulus-container"">
                    <img src=""images/schematic_sequence/restaurant_scheme/restaurant_scheme_5.png"" class=""exp-image"">
                    <div class=""question-area"">
                        <p style=""font-size: 20px; font-weight: bold; margin: 0;"">Is there a person in this image?</p>
                    </div>
                </div>","0","main_experiment_trial","5","restaurant_scheme","schematic_sequence","chronological","","","","","","",""
"","","","","","html-keyboard-response","174","870229","0.0-174.0","F23C5455D9794CD9B96FBE715F906BF7","019cfc7c-9ee4-7067-9150-ea838db8032a","019cfc7b-6c7b-7b1b-afe7-acad8efc6711","","null","
                <div class=""stimulus-container"">
                    <img src=""images/schematic_sequence/restaurant_scheme/restaurant_scheme_6.png"" class=""exp-image"">
                    <div class=""question-area""></div> 
                </div>","null","","","","","","","","","","","",""
"","","","","","html-button-response","175","870834","0.0-175.0","F23C5455D9794CD9B96FBE715F906BF7","019cfc7c-9ee4-7067-9150-ea838db8032a","019cfc7b-6c7b-7b1b-afe7-acad8efc6711","","604","
                <div class=""stimulus-container"">
                    <img src=""images/schematic_sequence/restaurant_scheme/restaurant_scheme_6.png"" class=""exp-image"">
                    <div class=""question-area"">
                        <p style=""font-size: 20px; font-weight: bold; margin: 0;"">Is there a person in this image?</p>
                    </div>
                </div>","1","main_experiment_trial","6","restaurant_scheme","schematic_sequence","chronological","","","","","","",""
