"success","timeout","failed_images","failed_audio","failed_video","trial_type","trial_index","time_elapsed","internal_node_id","subject_id","study_id","session_id","view_history","rt","stimulus","response","task","image_index","folder","sequence_type","valuable_image_index","reward_type","chosen_image_index","target_X","correct_choice"
"true","false","[]","[]","[]","preload","0","24472","0.0-0.0","FB25281A27054908B94BF854F13F30CC","019cf7c1-019d-78eb-815c-7aaa2af07eec","019cf7bd-52b9-7f96-9138-a5960b400b31","","","","","","","","","","","","",""
"","","","","","instructions","1","29027","0.0-1.0","FB25281A27054908B94BF854F13F30CC","019cf7c1-019d-78eb-815c-7aaa2af07eec","019cf7bd-52b9-7f96-9138-a5960b400b31","[{""page_index"":0,""viewing_time"":4553}]","4553","","","","","","","","","","",""
"","","","","","instructions","2","35616","0.0-2.0","FB25281A27054908B94BF854F13F30CC","019cf7c1-019d-78eb-815c-7aaa2af07eec","019cf7bd-52b9-7f96-9138-a5960b400b31","[{""page_index"":0,""viewing_time"":6588}]","6588","","","","","","","","","","",""
"true","","","","","fullscreen","3","39081","0.0-3.0","FB25281A27054908B94BF854F13F30CC","019cf7c1-019d-78eb-815c-7aaa2af07eec","019cf7bd-52b9-7f96-9138-a5960b400b31","","2461","","","","","","","","","","",""
"","","","","","instructions","4","47696","0.0-4.0","FB25281A27054908B94BF854F13F30CC","019cf7c1-019d-78eb-815c-7aaa2af07eec","019cf7bd-52b9-7f96-9138-a5960b400b31","[{""page_index"":0,""viewing_time"":8614}]","8615","","","","","","","","","","",""
"","","","","","instructions","5","54754","0.0-5.0","FB25281A27054908B94BF854F13F30CC","019cf7c1-019d-78eb-815c-7aaa2af07eec","019cf7bd-52b9-7f96-9138-a5960b400b31","[{""page_index"":0,""viewing_time"":7057}]","7057","","","","","","","","","","",""
"","","","","","html-keyboard-response","6","58757","0.0-6.0","FB25281A27054908B94BF854F13F30CC","019cf7c1-019d-78eb-815c-7aaa2af07eec","019cf7bd-52b9-7f96-9138-a5960b400b31","","null","
                <div class=""stimulus-container"">
                    <img src=""images/instructions/movie_1.png"" class=""exp-image"">
                    <div class=""question-area""></div> 
                </div>","null","","","","","","","","",""
"","","","","","html-button-response","7","61092","0.0-7.0","FB25281A27054908B94BF854F13F30CC","019cf7c1-019d-78eb-815c-7aaa2af07eec","019cf7bd-52b9-7f96-9138-a5960b400b31","","2332","
                <div class=""stimulus-container"">
                    <img src=""images/instructions/movie_1.png"" class=""exp-image"">
                    <div class=""question-area"">
                        <p style=""font-size: 20px; font-weight: bold; margin: 0;"">Was there a person in this image?</p>
                    </div>
                </div>","0","example_question","1","","","","","","",""
"","","","","","html-keyboard-response","8","65094","0.0-8.0","FB25281A27054908B94BF854F13F30CC","019cf7c1-019d-78eb-815c-7aaa2af07eec","019cf7bd-52b9-7f96-9138-a5960b400b31","","null","
                <div class=""stimulus-container"">
                    <img src=""images/instructions/movie_2.png"" class=""exp-image"">
                    <div class=""question-area""></div> 
                </div>","null","","","","","","","","",""
"","","","","","html-button-response","9","67969","0.0-9.0","FB25281A27054908B94BF854F13F30CC","019cf7c1-019d-78eb-815c-7aaa2af07eec","019cf7bd-52b9-7f96-9138-a5960b400b31","","2872","
                <div class=""stimulus-container"">
                    <img src=""images/instructions/movie_2.png"" class=""exp-image"">
                    <div class=""question-area"">
                        <p style=""font-size: 20px; font-weight: bold; margin: 0;"">Was there a person in this image?</p>
                    </div>
                </div>","0","example_question","2","","","","","","",""
"","","","","","html-keyboard-response","10","71971","0.0-10.0","FB25281A27054908B94BF854F13F30CC","019cf7c1-019d-78eb-815c-7aaa2af07eec","019cf7bd-52b9-7f96-9138-a5960b400b31","","null","
                <div class=""stimulus-container"">
                    <img src=""images/instructions/movie_3.png"" class=""exp-image"">
                    <div class=""question-area""></div> 
                </div>","null","","","","","","","","",""
"","","","","","html-button-response","11","73012","0.0-11.0","FB25281A27054908B94BF854F13F30CC","019cf7c1-019d-78eb-815c-7aaa2af07eec","019cf7bd-52b9-7f96-9138-a5960b400b31","","1039","
                <div class=""stimulus-container"">
                    <img src=""images/instructions/movie_3.png"" class=""exp-image"">
                    <div class=""question-area"">
                        <p style=""font-size: 20px; font-weight: bold; margin: 0;"">Was there a person in this image?</p>
                    </div>
                </div>","0","example_question","3","","","","","","",""
"","","","","","html-keyboard-response","12","77014","0.0-12.0","FB25281A27054908B94BF854F13F30CC","019cf7c1-019d-78eb-815c-7aaa2af07eec","019cf7bd-52b9-7f96-9138-a5960b400b31","","null","
                <div class=""stimulus-container"">
                    <img src=""images/instructions/movie_4.png"" class=""exp-image"">
                    <div class=""question-area""></div> 
                </div>","null","","","","","","","","",""
"","","","","","html-button-response","13","78209","0.0-13.0","FB25281A27054908B94BF854F13F30CC","019cf7c1-019d-78eb-815c-7aaa2af07eec","019cf7bd-52b9-7f96-9138-a5960b400b31","","1193","
                <div class=""stimulus-container"">
                    <img src=""images/instructions/movie_4.png"" class=""exp-image"">
                    <div class=""question-area"">
                        <p style=""font-size: 20px; font-weight: bold; margin: 0;"">Was there a person in this image?</p>
                    </div>
                </div>","0","example_question","4","","","","","","",""
"","","","","","instructions","14","80603","0.0-14.0","FB25281A27054908B94BF854F13F30CC","019cf7c1-019d-78eb-815c-7aaa2af07eec","019cf7bd-52b9-7f96-9138-a5960b400b31","[{""page_index"":0,""viewing_time"":2393}]","2394","","","","","","","","","","",""
"","","","","","instructions","15","87950","0.0-15.0","FB25281A27054908B94BF854F13F30CC","019cf7c1-019d-78eb-815c-7aaa2af07eec","019cf7bd-52b9-7f96-9138-a5960b400b31","[{""page_index"":0,""viewing_time"":7345}]","7345","","","","","","","","","","",""
"","","","","","html-keyboard-response","16","88951","0.0-16.0","FB25281A27054908B94BF854F13F30CC","019cf7c1-019d-78eb-815c-7aaa2af07eec","019cf7bd-52b9-7f96-9138-a5960b400b31","","null","<div style=""background-color: white; width: 100vw; height: 100vh;""></div>","null","","","","","","","","",""
"","","","","","html-keyboard-response","17","93953","0.0-17.0","FB25281A27054908B94BF854F13F30CC","019cf7c1-019d-78eb-815c-7aaa2af07eec","019cf7bd-52b9-7f96-9138-a5960b400b31","","null","
                <div class=""stimulus-container"">
                    <img src=""images/semantic_sequence/creative_activities_semantic/creative_activities_semantic_1.png"" class=""exp-image"">
                    <div class=""question-area""></div> 
                </div>","null","","","","","","","","",""
"","","","","","html-button-response","18","95981","0.0-18.0","FB25281A27054908B94BF854F13F30CC","019cf7c1-019d-78eb-815c-7aaa2af07eec","019cf7bd-52b9-7f96-9138-a5960b400b31","","2026","
                <div class=""stimulus-container"">
                    <img src=""images/semantic_sequence/creative_activities_semantic/creative_activities_semantic_1.png"" class=""exp-image"">
                    <div class=""question-area"">
                        <p style=""font-size: 20px; font-weight: bold; margin: 0;"">Is there a person in this image?</p>
                    </div>
                </div>","0","main_experiment_trial","1","creative_activities_semantic","semantic_sequence","","","","",""
"","","","","","html-keyboard-response","19","100983","0.0-19.0","FB25281A27054908B94BF854F13F30CC","019cf7c1-019d-78eb-815c-7aaa2af07eec","019cf7bd-52b9-7f96-9138-a5960b400b31","","null","
                <div class=""stimulus-container"">
                    <img src=""images/semantic_sequence/creative_activities_semantic/creative_activities_semantic_2.png"" class=""exp-image"">
                    <div class=""question-area""></div> 
                </div>","null","","","","","","","","",""
"","","","","","html-button-response","20","102496","0.0-20.0","FB25281A27054908B94BF854F13F30CC","019cf7c1-019d-78eb-815c-7aaa2af07eec","019cf7bd-52b9-7f96-9138-a5960b400b31","","1511","
                <div class=""stimulus-container"">
                    <img src=""images/semantic_sequence/creative_activities_semantic/creative_activities_semantic_2.png"" class=""exp-image"">
                    <div class=""question-area"">
                        <p style=""font-size: 20px; font-weight: bold; margin: 0;"">Is there a person in this image?</p>
                    </div>
                </div>","0","main_experiment_trial","2","creative_activities_semantic","semantic_sequence","","","","",""
"","","","","","html-keyboard-response","21","107497","0.0-21.0","FB25281A27054908B94BF854F13F30CC","019cf7c1-019d-78eb-815c-7aaa2af07eec","019cf7bd-52b9-7f96-9138-a5960b400b31","","null","
                <div class=""stimulus-container"">
                    <img src=""images/semantic_sequence/creative_activities_semantic/creative_activities_semantic_3.png"" class=""exp-image"">
                    <div class=""question-area""></div> 
                </div>","null","","","","","","","","",""
"","","","","","html-button-response","22","109027","0.0-22.0","FB25281A27054908B94BF854F13F30CC","019cf7c1-019d-78eb-815c-7aaa2af07eec","019cf7bd-52b9-7f96-9138-a5960b400b31","","1527","
                <div class=""stimulus-container"">
                    <img src=""images/semantic_sequence/creative_activities_semantic/creative_activities_semantic_3.png"" class=""exp-image"">
                    <div class=""question-area"">
                        <p style=""font-size: 20px; font-weight: bold; margin: 0;"">Is there a person in this image?</p>
                    </div>
                </div>","0","main_experiment_trial","3","creative_activities_semantic","semantic_sequence","","","","",""
"","","","","","html-keyboard-response","23","114029","0.0-23.0","FB25281A27054908B94BF854F13F30CC","019cf7c1-019d-78eb-815c-7aaa2af07eec","019cf7bd-52b9-7f96-9138-a5960b400b31","","null","
                <div class=""stimulus-container"">
                    <img src=""images/semantic_sequence/creative_activities_semantic/creative_activities_semantic_4.png"" class=""exp-image"">
                    <div class=""question-area""></div> 
                </div>","null","","","","","","","","",""
"","","","","","html-button-response","24","115440","0.0-24.0","FB25281A27054908B94BF854F13F30CC","019cf7c1-019d-78eb-815c-7aaa2af07eec","019cf7bd-52b9-7f96-9138-a5960b400b31","","1409","
                <div class=""stimulus-container"">
                    <img src=""images/semantic_sequence/creative_activities_semantic/creative_activities_semantic_4.png"" class=""exp-image"">
                    <div class=""question-area"">
                        <p style=""font-size: 20px; font-weight: bold; margin: 0;"">Is there a person in this image?</p>
                    </div>
                </div>","0","main_experiment_trial","4","creative_activities_semantic","semantic_sequence","","","","",""
"","","","","","html-keyboard-response","25","120442","0.0-25.0","FB25281A27054908B94BF854F13F30CC","019cf7c1-019d-78eb-815c-7aaa2af07eec","019cf7bd-52b9-7f96-9138-a5960b400b31","","null","
                <div class=""stimulus-container"">
                    <img src=""images/semantic_sequence/creative_activities_semantic/creative_activities_semantic_5.png"" class=""exp-image"">
                    <div class=""question-area""></div> 
                </div>","null","","","","","","","","",""
"","","","","","html-button-response","26","121849","0.0-26.0","FB25281A27054908B94BF854F13F30CC","019cf7c1-019d-78eb-815c-7aaa2af07eec","019cf7bd-52b9-7f96-9138-a5960b400b31","","1406","
                <div class=""stimulus-container"">
                    <img src=""images/semantic_sequence/creative_activities_semantic/creative_activities_semantic_5.png"" class=""exp-image"">
                    <div class=""question-area"">
                        <p style=""font-size: 20px; font-weight: bold; margin: 0;"">Is there a person in this image?</p>
                    </div>
                </div>","0","main_experiment_trial","5","creative_activities_semantic","semantic_sequence","","","","",""
"","","","","","html-keyboard-response","27","126851","0.0-27.0","FB25281A27054908B94BF854F13F30CC","019cf7c1-019d-78eb-815c-7aaa2af07eec","019cf7bd-52b9-7f96-9138-a5960b400b31","","null","
                <div class=""stimulus-container"">
                    <img src=""images/semantic_sequence/creative_activities_semantic/creative_activities_semantic_6.png"" class=""exp-image"">
                    <div class=""question-area""></div> 
                </div>","null","","","","","","","","",""
"","","","","","html-button-response","28","128443","0.0-28.0","FB25281A27054908B94BF854F13F30CC","019cf7c1-019d-78eb-815c-7aaa2af07eec","019cf7bd-52b9-7f96-9138-a5960b400b31","","1590","
                <div class=""stimulus-container"">
                    <img src=""images/semantic_sequence/creative_activities_semantic/creative_activities_semantic_6.png"" class=""exp-image"">
                    <div class=""question-area"">
                        <p style=""font-size: 20px; font-weight: bold; margin: 0;"">Is there a person in this image?</p>
                    </div>
                </div>","0","main_experiment_trial","6","creative_activities_semantic","semantic_sequence","","","","",""
"","","","","","html-keyboard-response","29","133445","0.0-29.0","FB25281A27054908B94BF854F13F30CC","019cf7c1-019d-78eb-815c-7aaa2af07eec","019cf7bd-52b9-7f96-9138-a5960b400b31","","null","
                <div class=""stimulus-container"">
                    <img src=""images/semantic_sequence/creative_activities_semantic/creative_activities_semantic_7.png"" class=""exp-image"">
                    <div class=""question-area""></div> 
                </div>","null","","","","","","","","",""
"","","","","","html-button-response","30","134503","0.0-30.0","FB25281A27054908B94BF854F13F30CC","019cf7c1-019d-78eb-815c-7aaa2af07eec","019cf7bd-52b9-7f96-9138-a5960b400b31","","1056","
                <div class=""stimulus-container"">
                    <img src=""images/semantic_sequence/creative_activities_semantic/creative_activities_semantic_7.png"" class=""exp-image"">
                    <div class=""question-area"">
                        <p style=""font-size: 20px; font-weight: bold; margin: 0;"">Is there a person in this image?</p>
                    </div>
                </div>","0","main_experiment_trial","7","creative_activities_semantic","semantic_sequence","","","","",""
"","","","","","html-keyboard-response","31","139505","0.0-31.0","FB25281A27054908B94BF854F13F30CC","019cf7c1-019d-78eb-815c-7aaa2af07eec","019cf7bd-52b9-7f96-9138-a5960b400b31","","null","
                <div class=""stimulus-container"">
                    <img src=""images/semantic_sequence/creative_activities_semantic/creative_activities_semantic_8.png"" class=""exp-image"">
                    <div class=""question-area""></div> 
                </div>","null","","","","","","","","",""
"","","","","","html-button-response","32","140668","0.0-32.0","FB25281A27054908B94BF854F13F30CC","019cf7c1-019d-78eb-815c-7aaa2af07eec","019cf7bd-52b9-7f96-9138-a5960b400b31","","1161","
                <div class=""stimulus-container"">
                    <img src=""images/semantic_sequence/creative_activities_semantic/creative_activities_semantic_8.png"" class=""exp-image"">
                    <div class=""question-area"">
                        <p style=""font-size: 20px; font-weight: bold; margin: 0;"">Is there a person in this image?</p>
                    </div>
                </div>","0","main_experiment_trial","8","creative_activities_semantic","semantic_sequence","","","","",""
"","","","","","html-keyboard-response","33","145669","0.0-33.0","FB25281A27054908B94BF854F13F30CC","019cf7c1-019d-78eb-815c-7aaa2af07eec","019cf7bd-52b9-7f96-9138-a5960b400b31","","null","
                <div class=""stimulus-container"">
                    <img src=""images/semantic_sequence/creative_activities_semantic/creative_activities_semantic_9.png"" class=""exp-image"">
                    <div class=""question-area""></div> 
                </div>","null","","","","","","","","",""
"","","","","","html-button-response","34","147549","0.0-34.0","FB25281A27054908B94BF854F13F30CC","019cf7c1-019d-78eb-815c-7aaa2af07eec","019cf7bd-52b9-7f96-9138-a5960b400b31","","1878","
                <div class=""stimulus-container"">
                    <img src=""images/semantic_sequence/creative_activities_semantic/creative_activities_semantic_9.png"" class=""exp-image"">
                    <div class=""question-area"">
                        <p style=""font-size: 20px; font-weight: bold; margin: 0;"">Is there a person in this image?</p>
                    </div>
                </div>","0","main_experiment_trial","9","creative_activities_semantic","semantic_sequence","","","","",""
"","","","","","html-keyboard-response","35","152550","0.0-35.0","FB25281A27054908B94BF854F13F30CC","019cf7c1-019d-78eb-815c-7aaa2af07eec","019cf7bd-52b9-7f96-9138-a5960b400b31","","null","
                <div class=""stimulus-container"">
                    <img src=""images/semantic_sequence/creative_activities_semantic/creative_activities_semantic_ten.png"" class=""exp-image"">
                    <div class=""question-area""></div> 
                </div>","null","","","","","","","","",""
"","","","","","html-button-response","36","153671","0.0-36.0","FB25281A27054908B94BF854F13F30CC","019cf7c1-019d-78eb-815c-7aaa2af07eec","019cf7bd-52b9-7f96-9138-a5960b400b31","","1119","
                <div class=""stimulus-container"">
                    <img src=""images/semantic_sequence/creative_activities_semantic/creative_activities_semantic_ten.png"" class=""exp-image"">
                    <div class=""question-area"">
                        <p style=""font-size: 20px; font-weight: bold; margin: 0;"">Is there a person in this image?</p>
                    </div>
                </div>","0","main_experiment_trial","ten","creative_activities_semantic","semantic_sequence","","","","",""
"","","","","","html-keyboard-response","37","154673","0.0-37.0","FB25281A27054908B94BF854F13F30CC","019cf7c1-019d-78eb-815c-7aaa2af07eec","019cf7bd-52b9-7f96-9138-a5960b400b31","","null","<div style=""background-color: white; width: 100vw; height: 100vh;""></div>","null","","","","","","","","",""
"","","","","","html-keyboard-response","38","159675","0.0-38.0","FB25281A27054908B94BF854F13F30CC","019cf7c1-019d-78eb-815c-7aaa2af07eec","019cf7bd-52b9-7f96-9138-a5960b400b31","","null","
                <div class=""stimulus-container"">
                    <img src=""images/semantic_sequence/kitchen_operations_semantic/kitchen_operations_semantic_1.png"" class=""exp-image"">
                    <div class=""question-area""></div> 
                </div>","null","","","","","","","","",""
"","","","","","html-button-response","39","160865","0.0-39.0","FB25281A27054908B94BF854F13F30CC","019cf7c1-019d-78eb-815c-7aaa2af07eec","019cf7bd-52b9-7f96-9138-a5960b400b31","","1189","
                <div class=""stimulus-container"">
                    <img src=""images/semantic_sequence/kitchen_operations_semantic/kitchen_operations_semantic_1.png"" class=""exp-image"">
                    <div class=""question-area"">
                        <p style=""font-size: 20px; font-weight: bold; margin: 0;"">Is there a person in this image?</p>
                    </div>
                </div>","0","main_experiment_trial","1","kitchen_operations_semantic","semantic_sequence","","","","",""
"","","","","","html-keyboard-response","40","165867","0.0-40.0","FB25281A27054908B94BF854F13F30CC","019cf7c1-019d-78eb-815c-7aaa2af07eec","019cf7bd-52b9-7f96-9138-a5960b400b31","","null","
                <div class=""stimulus-container"">
                    <img src=""images/semantic_sequence/kitchen_operations_semantic/kitchen_operations_semantic_2.png"" class=""exp-image"">
                    <div class=""question-area""></div> 
                </div>","null","","","","","","","","",""
"","","","","","html-button-response","41","166887","0.0-41.0","FB25281A27054908B94BF854F13F30CC","019cf7c1-019d-78eb-815c-7aaa2af07eec","019cf7bd-52b9-7f96-9138-a5960b400b31","","1018","
                <div class=""stimulus-container"">
                    <img src=""images/semantic_sequence/kitchen_operations_semantic/kitchen_operations_semantic_2.png"" class=""exp-image"">
                    <div class=""question-area"">
                        <p style=""font-size: 20px; font-weight: bold; margin: 0;"">Is there a person in this image?</p>
                    </div>
                </div>","0","main_experiment_trial","2","kitchen_operations_semantic","semantic_sequence","","","","",""
"","","","","","html-keyboard-response","42","171889","0.0-42.0","FB25281A27054908B94BF854F13F30CC","019cf7c1-019d-78eb-815c-7aaa2af07eec","019cf7bd-52b9-7f96-9138-a5960b400b31","","null","
                <div class=""stimulus-container"">
                    <img src=""images/semantic_sequence/kitchen_operations_semantic/kitchen_operations_semantic_3.png"" class=""exp-image"">
                    <div class=""question-area""></div> 
                </div>","null","","","","","","","","",""
"","","","","","html-button-response","43","173164","0.0-43.0","FB25281A27054908B94BF854F13F30CC","019cf7c1-019d-78eb-815c-7aaa2af07eec","019cf7bd-52b9-7f96-9138-a5960b400b31","","1273","
                <div class=""stimulus-container"">
                    <img src=""images/semantic_sequence/kitchen_operations_semantic/kitchen_operations_semantic_3.png"" class=""exp-image"">
                    <div class=""question-area"">
                        <p style=""font-size: 20px; font-weight: bold; margin: 0;"">Is there a person in this image?</p>
                    </div>
                </div>","0","main_experiment_trial","3","kitchen_operations_semantic","semantic_sequence","","","","",""
"","","","","","html-keyboard-response","44","178166","0.0-44.0","FB25281A27054908B94BF854F13F30CC","019cf7c1-019d-78eb-815c-7aaa2af07eec","019cf7bd-52b9-7f96-9138-a5960b400b31","","null","
                <div class=""stimulus-container"">
                    <img src=""images/semantic_sequence/kitchen_operations_semantic/kitchen_operations_semantic_4.png"" class=""exp-image"">
                    <div class=""question-area""></div> 
                </div>","null","","","","","","","","",""
"","","","","","html-button-response","45","179113","0.0-45.0","FB25281A27054908B94BF854F13F30CC","019cf7c1-019d-78eb-815c-7aaa2af07eec","019cf7bd-52b9-7f96-9138-a5960b400b31","","945","
                <div class=""stimulus-container"">
                    <img src=""images/semantic_sequence/kitchen_operations_semantic/kitchen_operations_semantic_4.png"" class=""exp-image"">
                    <div class=""question-area"">
                        <p style=""font-size: 20px; font-weight: bold; margin: 0;"">Is there a person in this image?</p>
                    </div>
                </div>","0","main_experiment_trial","4","kitchen_operations_semantic","semantic_sequence","","","","",""
"","","","","","html-keyboard-response","46","184115","0.0-46.0","FB25281A27054908B94BF854F13F30CC","019cf7c1-019d-78eb-815c-7aaa2af07eec","019cf7bd-52b9-7f96-9138-a5960b400b31","","null","
                <div class=""stimulus-container"">
                    <img src=""images/semantic_sequence/kitchen_operations_semantic/kitchen_operations_semantic_5.png"" class=""exp-image"">
                    <div class=""question-area""></div> 
                </div>","null","","","","","","","","",""
"","","","","","html-button-response","47","185232","0.0-47.0","FB25281A27054908B94BF854F13F30CC","019cf7c1-019d-78eb-815c-7aaa2af07eec","019cf7bd-52b9-7f96-9138-a5960b400b31","","1115","
                <div class=""stimulus-container"">
                    <img src=""images/semantic_sequence/kitchen_operations_semantic/kitchen_operations_semantic_5.png"" class=""exp-image"">
                    <div class=""question-area"">
                        <p style=""font-size: 20px; font-weight: bold; margin: 0;"">Is there a person in this image?</p>
                    </div>
                </div>","0","main_experiment_trial","5","kitchen_operations_semantic","semantic_sequence","","","","",""
"","","","","","html-keyboard-response","48","190234","0.0-48.0","FB25281A27054908B94BF854F13F30CC","019cf7c1-019d-78eb-815c-7aaa2af07eec","019cf7bd-52b9-7f96-9138-a5960b400b31","","null","
                <div class=""stimulus-container"">
                    <img src=""images/semantic_sequence/kitchen_operations_semantic/kitchen_operations_semantic_6.png"" class=""exp-image"">
                    <div class=""question-area""></div> 
                </div>","null","","","","","","","","",""
"","","","","","html-button-response","49","192081","0.0-49.0","FB25281A27054908B94BF854F13F30CC","019cf7c1-019d-78eb-815c-7aaa2af07eec","019cf7bd-52b9-7f96-9138-a5960b400b31","","1845","
                <div class=""stimulus-container"">
                    <img src=""images/semantic_sequence/kitchen_operations_semantic/kitchen_operations_semantic_6.png"" class=""exp-image"">
                    <div class=""question-area"">
                        <p style=""font-size: 20px; font-weight: bold; margin: 0;"">Is there a person in this image?</p>
                    </div>
                </div>","0","main_experiment_trial","6","kitchen_operations_semantic","semantic_sequence","","","","",""
"","","","","","html-keyboard-response","50","197083","0.0-50.0","FB25281A27054908B94BF854F13F30CC","019cf7c1-019d-78eb-815c-7aaa2af07eec","019cf7bd-52b9-7f96-9138-a5960b400b31","","null","
                <div class=""stimulus-container"">
                    <img src=""images/semantic_sequence/kitchen_operations_semantic/kitchen_operations_semantic_7.png"" class=""exp-image"">
                    <div class=""question-area""></div> 
                </div>","null","","","","","","","","",""
"","","","","","html-button-response","51","198125","0.0-51.0","FB25281A27054908B94BF854F13F30CC","019cf7c1-019d-78eb-815c-7aaa2af07eec","019cf7bd-52b9-7f96-9138-a5960b400b31","","1040","
                <div class=""stimulus-container"">
                    <img src=""images/semantic_sequence/kitchen_operations_semantic/kitchen_operations_semantic_7.png"" class=""exp-image"">
                    <div class=""question-area"">
                        <p style=""font-size: 20px; font-weight: bold; margin: 0;"">Is there a person in this image?</p>
                    </div>
                </div>","0","main_experiment_trial","7","kitchen_operations_semantic","semantic_sequence","","","","",""
"","","","","","html-keyboard-response","52","203126","0.0-52.0","FB25281A27054908B94BF854F13F30CC","019cf7c1-019d-78eb-815c-7aaa2af07eec","019cf7bd-52b9-7f96-9138-a5960b400b31","","null","
                <div class=""stimulus-container"">
                    <img src=""images/semantic_sequence/kitchen_operations_semantic/kitchen_operations_semantic_8.png"" class=""exp-image"">
                    <div class=""question-area""></div> 
                </div>","null","","","","","","","","",""
"","","","","","html-button-response","53","204229","0.0-53.0","FB25281A27054908B94BF854F13F30CC","019cf7c1-019d-78eb-815c-7aaa2af07eec","019cf7bd-52b9-7f96-9138-a5960b400b31","","1100","
                <div class=""stimulus-container"">
                    <img src=""images/semantic_sequence/kitchen_operations_semantic/kitchen_operations_semantic_8.png"" class=""exp-image"">
                    <div class=""question-area"">
                        <p style=""font-size: 20px; font-weight: bold; margin: 0;"">Is there a person in this image?</p>
                    </div>
                </div>","0","main_experiment_trial","8","kitchen_operations_semantic","semantic_sequence","","","","",""
"","","","","","html-keyboard-response","54","209230","0.0-54.0","FB25281A27054908B94BF854F13F30CC","019cf7c1-019d-78eb-815c-7aaa2af07eec","019cf7bd-52b9-7f96-9138-a5960b400b31","","null","
                <div class=""stimulus-container"">
                    <img src=""images/semantic_sequence/kitchen_operations_semantic/kitchen_operations_semantic_9.png"" class=""exp-image"">
                    <div class=""question-area""></div> 
                </div>","null","","","","","","","","",""
"","","","","","html-button-response","55","212233","0.0-55.0","FB25281A27054908B94BF854F13F30CC","019cf7c1-019d-78eb-815c-7aaa2af07eec","019cf7bd-52b9-7f96-9138-a5960b400b31","","null","
                <div class=""stimulus-container"">
                    <img src=""images/semantic_sequence/kitchen_operations_semantic/kitchen_operations_semantic_9.png"" class=""exp-image"">
                    <div class=""question-area"">
                        <p style=""font-size: 20px; font-weight: bold; margin: 0;"">Is there a person in this image?</p>
                    </div>
                </div>","null","main_experiment_trial","9","kitchen_operations_semantic","semantic_sequence","","","","",""
"","","","","","html-keyboard-response","56","217235","0.0-56.0","FB25281A27054908B94BF854F13F30CC","019cf7c1-019d-78eb-815c-7aaa2af07eec","019cf7bd-52b9-7f96-9138-a5960b400b31","","null","
                <div class=""stimulus-container"">
                    <img src=""images/semantic_sequence/kitchen_operations_semantic/kitchen_operations_semantic_ten.png"" class=""exp-image"">
                    <div class=""question-area""></div> 
                </div>","null","","","","","","","","",""
"","","","","","html-button-response","57","218561","0.0-57.0","FB25281A27054908B94BF854F13F30CC","019cf7c1-019d-78eb-815c-7aaa2af07eec","019cf7bd-52b9-7f96-9138-a5960b400b31","","1325","
                <div class=""stimulus-container"">
                    <img src=""images/semantic_sequence/kitchen_operations_semantic/kitchen_operations_semantic_ten.png"" class=""exp-image"">
                    <div class=""question-area"">
                        <p style=""font-size: 20px; font-weight: bold; margin: 0;"">Is there a person in this image?</p>
                    </div>
                </div>","0","main_experiment_trial","ten","kitchen_operations_semantic","semantic_sequence","","","","",""
"","","","","","html-keyboard-response","58","219563","0.0-58.0","FB25281A27054908B94BF854F13F30CC","019cf7c1-019d-78eb-815c-7aaa2af07eec","019cf7bd-52b9-7f96-9138-a5960b400b31","","null","<div style=""background-color: white; width: 100vw; height: 100vh;""></div>","null","","","","","","","","",""
"","","","","","html-keyboard-response","59","224565","0.0-59.0","FB25281A27054908B94BF854F13F30CC","019cf7c1-019d-78eb-815c-7aaa2af07eec","019cf7bd-52b9-7f96-9138-a5960b400b31","","null","
                <div class=""stimulus-container"">
                    <img src=""images/schematic_sequence/interview_scheme/interview_scheme_1.png"" class=""exp-image"">
                    <div class=""question-area""></div> 
                </div>","null","","","","","","","","",""
"","","","","","html-button-response","60","225967","0.0-60.0","FB25281A27054908B94BF854F13F30CC","019cf7c1-019d-78eb-815c-7aaa2af07eec","019cf7bd-52b9-7f96-9138-a5960b400b31","","1401","
                <div class=""stimulus-container"">
                    <img src=""images/schematic_sequence/interview_scheme/interview_scheme_1.png"" class=""exp-image"">
                    <div class=""question-area"">
                        <p style=""font-size: 20px; font-weight: bold; margin: 0;"">Is there a person in this image?</p>
                    </div>
                </div>","1","main_experiment_trial","1","interview_scheme","schematic_sequence","","","","",""
"","","","","","html-keyboard-response","61","230969","0.0-61.0","FB25281A27054908B94BF854F13F30CC","019cf7c1-019d-78eb-815c-7aaa2af07eec","019cf7bd-52b9-7f96-9138-a5960b400b31","","null","
                <div class=""stimulus-container"">
                    <img src=""images/schematic_sequence/interview_scheme/interview_scheme_2.png"" class=""exp-image"">
                    <div class=""question-area""></div> 
                </div>","null","","","","","","","","",""
"","","","","","html-button-response","62","233812","0.0-62.0","FB25281A27054908B94BF854F13F30CC","019cf7c1-019d-78eb-815c-7aaa2af07eec","019cf7bd-52b9-7f96-9138-a5960b400b31","","2841","
                <div class=""stimulus-container"">
                    <img src=""images/schematic_sequence/interview_scheme/interview_scheme_2.png"" class=""exp-image"">
                    <div class=""question-area"">
                        <p style=""font-size: 20px; font-weight: bold; margin: 0;"">Is there a person in this image?</p>
                    </div>
                </div>","0","main_experiment_trial","2","interview_scheme","schematic_sequence","","","","",""
"","","","","","html-keyboard-response","63","238814","0.0-63.0","FB25281A27054908B94BF854F13F30CC","019cf7c1-019d-78eb-815c-7aaa2af07eec","019cf7bd-52b9-7f96-9138-a5960b400b31","","null","
                <div class=""stimulus-container"">
                    <img src=""images/schematic_sequence/interview_scheme/interview_scheme_3.png"" class=""exp-image"">
                    <div class=""question-area""></div> 
                </div>","null","","","","","","","","",""
"","","","","","html-button-response","64","240348","0.0-64.0","FB25281A27054908B94BF854F13F30CC","019cf7c1-019d-78eb-815c-7aaa2af07eec","019cf7bd-52b9-7f96-9138-a5960b400b31","","1532","
                <div class=""stimulus-container"">
                    <img src=""images/schematic_sequence/interview_scheme/interview_scheme_3.png"" class=""exp-image"">
                    <div class=""question-area"">
                        <p style=""font-size: 20px; font-weight: bold; margin: 0;"">Is there a person in this image?</p>
                    </div>
                </div>","1","main_experiment_trial","3","interview_scheme","schematic_sequence","","","","",""
"","","","","","html-keyboard-response","65","245350","0.0-65.0","FB25281A27054908B94BF854F13F30CC","019cf7c1-019d-78eb-815c-7aaa2af07eec","019cf7bd-52b9-7f96-9138-a5960b400b31","","null","
                <div class=""stimulus-container"">
                    <img src=""images/schematic_sequence/interview_scheme/interview_scheme_4.png"" class=""exp-image"">
                    <div class=""question-area""></div> 
                </div>","null","","","","","","","","",""
"","","","","","html-button-response","66","246697","0.0-66.0","FB25281A27054908B94BF854F13F30CC","019cf7c1-019d-78eb-815c-7aaa2af07eec","019cf7bd-52b9-7f96-9138-a5960b400b31","","1345","
                <div class=""stimulus-container"">
                    <img src=""images/schematic_sequence/interview_scheme/interview_scheme_4.png"" class=""exp-image"">
                    <div class=""question-area"">
                        <p style=""font-size: 20px; font-weight: bold; margin: 0;"">Is there a person in this image?</p>
                    </div>
                </div>","1","main_experiment_trial","4","interview_scheme","schematic_sequence","","","","",""
"","","","","","html-keyboard-response","67","251699","0.0-67.0","FB25281A27054908B94BF854F13F30CC","019cf7c1-019d-78eb-815c-7aaa2af07eec","019cf7bd-52b9-7f96-9138-a5960b400b31","","null","
                <div class=""stimulus-container"">
                    <img src=""images/schematic_sequence/interview_scheme/interview_scheme_5.png"" class=""exp-image"">
                    <div class=""question-area""></div> 
                </div>","null","","","","","","","","",""
"","","","","","html-button-response","68","253222","0.0-68.0","FB25281A27054908B94BF854F13F30CC","019cf7c1-019d-78eb-815c-7aaa2af07eec","019cf7bd-52b9-7f96-9138-a5960b400b31","","1521","
                <div class=""stimulus-container"">
                    <img src=""images/schematic_sequence/interview_scheme/interview_scheme_5.png"" class=""exp-image"">
                    <div class=""question-area"">
                        <p style=""font-size: 20px; font-weight: bold; margin: 0;"">Is there a person in this image?</p>
                    </div>
                </div>","0","main_experiment_trial","5","interview_scheme","schematic_sequence","","","","",""
"","","","","","html-keyboard-response","69","258223","0.0-69.0","FB25281A27054908B94BF854F13F30CC","019cf7c1-019d-78eb-815c-7aaa2af07eec","019cf7bd-52b9-7f96-9138-a5960b400b31","","null","
                <div class=""stimulus-container"">
                    <img src=""images/schematic_sequence/interview_scheme/interview_scheme_6.png"" class=""exp-image"">
                    <div class=""question-area""></div> 
                </div>","null","","","","","","","","",""
"","","","","","html-button-response","70","260066","0.0-70.0","FB25281A27054908B94BF854F13F30CC","019cf7c1-019d-78eb-815c-7aaa2af07eec","019cf7bd-52b9-7f96-9138-a5960b400b31","","1840","
                <div class=""stimulus-container"">
                    <img src=""images/schematic_sequence/interview_scheme/interview_scheme_6.png"" class=""exp-image"">
                    <div class=""question-area"">
                        <p style=""font-size: 20px; font-weight: bold; margin: 0;"">Is there a person in this image?</p>
                    </div>
                </div>","0","main_experiment_trial","6","interview_scheme","schematic_sequence","","","","",""
"","","","","","html-keyboard-response","71","265067","0.0-71.0","FB25281A27054908B94BF854F13F30CC","019cf7c1-019d-78eb-815c-7aaa2af07eec","019cf7bd-52b9-7f96-9138-a5960b400b31","","null","
                <div class=""stimulus-container"">
                    <img src=""images/schematic_sequence/interview_scheme/interview_scheme_7.png"" class=""exp-image"">
                    <div class=""question-area""></div> 
                </div>","null","","","","","","","","",""
"","","","","","html-button-response","72","266319","0.0-72.0","FB25281A27054908B94BF854F13F30CC","019cf7c1-019d-78eb-815c-7aaa2af07eec","019cf7bd-52b9-7f96-9138-a5960b400b31","","1250","
                <div class=""stimulus-container"">
                    <img src=""images/schematic_sequence/interview_scheme/interview_scheme_7.png"" class=""exp-image"">
                    <div class=""question-area"">
                        <p style=""font-size: 20px; font-weight: bold; margin: 0;"">Is there a person in this image?</p>
                    </div>
                </div>","0","main_experiment_trial","7","interview_scheme","schematic_sequence","","","","",""
"","","","","","html-keyboard-response","73","271321","0.0-73.0","FB25281A27054908B94BF854F13F30CC","019cf7c1-019d-78eb-815c-7aaa2af07eec","019cf7bd-52b9-7f96-9138-a5960b400b31","","null","
                <div class=""stimulus-container"">
                    <img src=""images/schematic_sequence/interview_scheme/interview_scheme_8.png"" class=""exp-image"">
                    <div class=""question-area""></div> 
                </div>","null","","","","","","","","",""
"","","","","","html-button-response","74","273374","0.0-74.0","FB25281A27054908B94BF854F13F30CC","019cf7c1-019d-78eb-815c-7aaa2af07eec","019cf7bd-52b9-7f96-9138-a5960b400b31","","2051","
                <div class=""stimulus-container"">
                    <img src=""images/schematic_sequence/interview_scheme/interview_scheme_8.png"" class=""exp-image"">
                    <div class=""question-area"">
                        <p style=""font-size: 20px; font-weight: bold; margin: 0;"">Is there a person in this image?</p>
                    </div>
                </div>","0","main_experiment_trial","8","interview_scheme","schematic_sequence","","","","",""
"","","","","","html-keyboard-response","75","278376","0.0-75.0","FB25281A27054908B94BF854F13F30CC","019cf7c1-019d-78eb-815c-7aaa2af07eec","019cf7bd-52b9-7f96-9138-a5960b400b31","","null","
                <div class=""stimulus-container"">
                    <img src=""images/schematic_sequence/interview_scheme/interview_scheme_9.png"" class=""exp-image"">
                    <div class=""question-area""></div> 
                </div>","null","","","","","","","","",""
"","","","","","html-button-response","76","280921","0.0-76.0","FB25281A27054908B94BF854F13F30CC","019cf7c1-019d-78eb-815c-7aaa2af07eec","019cf7bd-52b9-7f96-9138-a5960b400b31","","2543","
                <div class=""stimulus-container"">
                    <img src=""images/schematic_sequence/interview_scheme/interview_scheme_9.png"" class=""exp-image"">
                    <div class=""question-area"">
                        <p style=""font-size: 20px; font-weight: bold; margin: 0;"">Is there a person in this image?</p>
                    </div>
                </div>","0","main_experiment_trial","9","interview_scheme","schematic_sequence","","","","",""
"","","","","","html-keyboard-response","77","285923","0.0-77.0","FB25281A27054908B94BF854F13F30CC","019cf7c1-019d-78eb-815c-7aaa2af07eec","019cf7bd-52b9-7f96-9138-a5960b400b31","","null","
                <div class=""stimulus-container"">
                    <img src=""images/schematic_sequence/interview_scheme/interview_scheme_ten.png"" class=""exp-image"">
                    <div class=""question-area""></div> 
                </div>","null","","","","","","","","",""
"","","","","","html-button-response","78","287856","0.0-78.0","FB25281A27054908B94BF854F13F30CC","019cf7c1-019d-78eb-815c-7aaa2af07eec","019cf7bd-52b9-7f96-9138-a5960b400b31","","1931","
                <div class=""stimulus-container"">
                    <img src=""images/schematic_sequence/interview_scheme/interview_scheme_ten.png"" class=""exp-image"">
                    <div class=""question-area"">
                        <p style=""font-size: 20px; font-weight: bold; margin: 0;"">Is there a person in this image?</p>
                    </div>
                </div>","0","main_experiment_trial","ten","interview_scheme","schematic_sequence","","","","",""
"","","","","","html-keyboard-response","79","288857","0.0-79.0","FB25281A27054908B94BF854F13F30CC","019cf7c1-019d-78eb-815c-7aaa2af07eec","019cf7bd-52b9-7f96-9138-a5960b400b31","","null","<div style=""background-color: white; width: 100vw; height: 100vh;""></div>","null","","","","","","","","",""
"","","","","","html-keyboard-response","80","293859","0.0-80.0","FB25281A27054908B94BF854F13F30CC","019cf7c1-019d-78eb-815c-7aaa2af07eec","019cf7bd-52b9-7f96-9138-a5960b400b31","","null","
                <div class=""stimulus-container"">
                    <img src=""images/schematic_sequence/restaurant_scheme/restaurant_scheme_1.png"" class=""exp-image"">
                    <div class=""question-area""></div> 
                </div>","null","","","","","","","","",""
"","","","","","html-button-response","81","295977","0.0-81.0","FB25281A27054908B94BF854F13F30CC","019cf7c1-019d-78eb-815c-7aaa2af07eec","019cf7bd-52b9-7f96-9138-a5960b400b31","","2116","
                <div class=""stimulus-container"">
                    <img src=""images/schematic_sequence/restaurant_scheme/restaurant_scheme_1.png"" class=""exp-image"">
                    <div class=""question-area"">
                        <p style=""font-size: 20px; font-weight: bold; margin: 0;"">Is there a person in this image?</p>
                    </div>
                </div>","0","main_experiment_trial","1","restaurant_scheme","schematic_sequence","","","","",""
"","","","","","html-keyboard-response","82","300979","0.0-82.0","FB25281A27054908B94BF854F13F30CC","019cf7c1-019d-78eb-815c-7aaa2af07eec","019cf7bd-52b9-7f96-9138-a5960b400b31","","null","
                <div class=""stimulus-container"">
                    <img src=""images/schematic_sequence/restaurant_scheme/restaurant_scheme_2.png"" class=""exp-image"">
                    <div class=""question-area""></div> 
                </div>","null","","","","","","","","",""
"","","","","","html-button-response","83","303980","0.0-83.0","FB25281A27054908B94BF854F13F30CC","019cf7c1-019d-78eb-815c-7aaa2af07eec","019cf7bd-52b9-7f96-9138-a5960b400b31","","null","
                <div class=""stimulus-container"">
                    <img src=""images/schematic_sequence/restaurant_scheme/restaurant_scheme_2.png"" class=""exp-image"">
                    <div class=""question-area"">
                        <p style=""font-size: 20px; font-weight: bold; margin: 0;"">Is there a person in this image?</p>
                    </div>
                </div>","null","main_experiment_trial","2","restaurant_scheme","schematic_sequence","","","","",""
"","","","","","html-keyboard-response","84","308982","0.0-84.0","FB25281A27054908B94BF854F13F30CC","019cf7c1-019d-78eb-815c-7aaa2af07eec","019cf7bd-52b9-7f96-9138-a5960b400b31","","null","
                <div class=""stimulus-container"">
                    <img src=""images/schematic_sequence/restaurant_scheme/restaurant_scheme_3.png"" class=""exp-image"">
                    <div class=""question-area""></div> 
                </div>","null","","","","","","","","",""
"","","","","","html-button-response","85","310553","0.0-85.0","FB25281A27054908B94BF854F13F30CC","019cf7c1-019d-78eb-815c-7aaa2af07eec","019cf7bd-52b9-7f96-9138-a5960b400b31","","1568","
                <div class=""stimulus-container"">
                    <img src=""images/schematic_sequence/restaurant_scheme/restaurant_scheme_3.png"" class=""exp-image"">
                    <div class=""question-area"">
                        <p style=""font-size: 20px; font-weight: bold; margin: 0;"">Is there a person in this image?</p>
                    </div>
                </div>","1","main_experiment_trial","3","restaurant_scheme","schematic_sequence","","","","",""
"","","","","","html-keyboard-response","86","315554","0.0-86.0","FB25281A27054908B94BF854F13F30CC","019cf7c1-019d-78eb-815c-7aaa2af07eec","019cf7bd-52b9-7f96-9138-a5960b400b31","","null","
                <div class=""stimulus-container"">
                    <img src=""images/schematic_sequence/restaurant_scheme/restaurant_scheme_4.png"" class=""exp-image"">
                    <div class=""question-area""></div> 
                </div>","null","","","","","","","","",""
"","","","","","html-button-response","87","317288","0.0-87.0","FB25281A27054908B94BF854F13F30CC","019cf7c1-019d-78eb-815c-7aaa2af07eec","019cf7bd-52b9-7f96-9138-a5960b400b31","","1731","
                <div class=""stimulus-container"">
                    <img src=""images/schematic_sequence/restaurant_scheme/restaurant_scheme_4.png"" class=""exp-image"">
                    <div class=""question-area"">
                        <p style=""font-size: 20px; font-weight: bold; margin: 0;"">Is there a person in this image?</p>
                    </div>
                </div>","0","main_experiment_trial","4","restaurant_scheme","schematic_sequence","","","","",""
"","","","","","html-keyboard-response","88","322289","0.0-88.0","FB25281A27054908B94BF854F13F30CC","019cf7c1-019d-78eb-815c-7aaa2af07eec","019cf7bd-52b9-7f96-9138-a5960b400b31","","null","
                <div class=""stimulus-container"">
                    <img src=""images/schematic_sequence/restaurant_scheme/restaurant_scheme_5.png"" class=""exp-image"">
                    <div class=""question-area""></div> 
                </div>","null","","","","","","","","",""
"","","","","","html-button-response","89","324753","0.0-89.0","FB25281A27054908B94BF854F13F30CC","019cf7c1-019d-78eb-815c-7aaa2af07eec","019cf7bd-52b9-7f96-9138-a5960b400b31","","2462","
                <div class=""stimulus-container"">
                    <img src=""images/schematic_sequence/restaurant_scheme/restaurant_scheme_5.png"" class=""exp-image"">
                    <div class=""question-area"">
                        <p style=""font-size: 20px; font-weight: bold; margin: 0;"">Is there a person in this image?</p>
                    </div>
                </div>","0","main_experiment_trial","5","restaurant_scheme","schematic_sequence","","","","",""
"","","","","","html-keyboard-response","90","329754","0.0-90.0","FB25281A27054908B94BF854F13F30CC","019cf7c1-019d-78eb-815c-7aaa2af07eec","019cf7bd-52b9-7f96-9138-a5960b400b31","","null","
                <div class=""stimulus-container"">
                    <img src=""images/schematic_sequence/restaurant_scheme/restaurant_scheme_6.png"" class=""exp-image"">
                    <div class=""question-area""></div> 
                </div>","null","","","","","","","","",""
"","","","","","html-button-response","91","331749","0.0-91.0","FB25281A27054908B94BF854F13F30CC","019cf7c1-019d-78eb-815c-7aaa2af07eec","019cf7bd-52b9-7f96-9138-a5960b400b31","","1993","
                <div class=""stimulus-container"">
                    <img src=""images/schematic_sequence/restaurant_scheme/restaurant_scheme_6.png"" class=""exp-image"">
                    <div class=""question-area"">
                        <p style=""font-size: 20px; font-weight: bold; margin: 0;"">Is there a person in this image?</p>
                    </div>
                </div>","1","main_experiment_trial","6","restaurant_scheme","schematic_sequence","","","","",""
"","","","","","html-keyboard-response","92","336750","0.0-92.0","FB25281A27054908B94BF854F13F30CC","019cf7c1-019d-78eb-815c-7aaa2af07eec","019cf7bd-52b9-7f96-9138-a5960b400b31","","null","
                <div class=""stimulus-container"">
                    <img src=""images/schematic_sequence/restaurant_scheme/restaurant_scheme_7.png"" class=""exp-image"">
                    <div class=""question-area""></div> 
                </div>","null","","","","","","","","",""
"","","","","","html-button-response","93","338965","0.0-93.0","FB25281A27054908B94BF854F13F30CC","019cf7c1-019d-78eb-815c-7aaa2af07eec","019cf7bd-52b9-7f96-9138-a5960b400b31","","2212","
                <div class=""stimulus-container"">
                    <img src=""images/schematic_sequence/restaurant_scheme/restaurant_scheme_7.png"" class=""exp-image"">
                    <div class=""question-area"">
                        <p style=""font-size: 20px; font-weight: bold; margin: 0;"">Is there a person in this image?</p>
                    </div>
                </div>","1","main_experiment_trial","7","restaurant_scheme","schematic_sequence","","","","",""
"","","","","","html-keyboard-response","94","343966","0.0-94.0","FB25281A27054908B94BF854F13F30CC","019cf7c1-019d-78eb-815c-7aaa2af07eec","019cf7bd-52b9-7f96-9138-a5960b400b31","","null","
                <div class=""stimulus-container"">
                    <img src=""images/schematic_sequence/restaurant_scheme/restaurant_scheme_8.png"" class=""exp-image"">
                    <div class=""question-area""></div> 
                </div>","null","","","","","","","","",""
"","","","","","html-button-response","95","345799","0.0-95.0","FB25281A27054908B94BF854F13F30CC","019cf7c1-019d-78eb-815c-7aaa2af07eec","019cf7bd-52b9-7f96-9138-a5960b400b31","","1831","
                <div class=""stimulus-container"">
                    <img src=""images/schematic_sequence/restaurant_scheme/restaurant_scheme_8.png"" class=""exp-image"">
                    <div class=""question-area"">
                        <p style=""font-size: 20px; font-weight: bold; margin: 0;"">Is there a person in this image?</p>
                    </div>
                </div>","0","main_experiment_trial","8","restaurant_scheme","schematic_sequence","","","","",""
"","","","","","html-keyboard-response","96","350801","0.0-96.0","FB25281A27054908B94BF854F13F30CC","019cf7c1-019d-78eb-815c-7aaa2af07eec","019cf7bd-52b9-7f96-9138-a5960b400b31","","null","
                <div class=""stimulus-container"">
                    <img src=""images/schematic_sequence/restaurant_scheme/restaurant_scheme_9.png"" class=""exp-image"">
                    <div class=""question-area""></div> 
                </div>","null","","","","","","","","",""
"","","","","","html-button-response","97","353082","0.0-97.0","FB25281A27054908B94BF854F13F30CC","019cf7c1-019d-78eb-815c-7aaa2af07eec","019cf7bd-52b9-7f96-9138-a5960b400b31","","2279","
                <div class=""stimulus-container"">
                    <img src=""images/schematic_sequence/restaurant_scheme/restaurant_scheme_9.png"" class=""exp-image"">
                    <div class=""question-area"">
                        <p style=""font-size: 20px; font-weight: bold; margin: 0;"">Is there a person in this image?</p>
                    </div>
                </div>","0","main_experiment_trial","9","restaurant_scheme","schematic_sequence","","","","",""
"","","","","","html-keyboard-response","98","358084","0.0-98.0","FB25281A27054908B94BF854F13F30CC","019cf7c1-019d-78eb-815c-7aaa2af07eec","019cf7bd-52b9-7f96-9138-a5960b400b31","","null","
                <div class=""stimulus-container"">
                    <img src=""images/schematic_sequence/restaurant_scheme/restaurant_scheme_ten.png"" class=""exp-image"">
                    <div class=""question-area""></div> 
                </div>","null","","","","","","","","",""
"","","","","","html-button-response","99","360115","0.0-99.0","FB25281A27054908B94BF854F13F30CC","019cf7c1-019d-78eb-815c-7aaa2af07eec","019cf7bd-52b9-7f96-9138-a5960b400b31","","2030","
                <div class=""stimulus-container"">
                    <img src=""images/schematic_sequence/restaurant_scheme/restaurant_scheme_ten.png"" class=""exp-image"">
                    <div class=""question-area"">
                        <p style=""font-size: 20px; font-weight: bold; margin: 0;"">Is there a person in this image?</p>
                    </div>
                </div>","0","main_experiment_trial","ten","restaurant_scheme","schematic_sequence","","","","",""
"","","","","","html-keyboard-response","100","361117","0.0-100.0","FB25281A27054908B94BF854F13F30CC","019cf7c1-019d-78eb-815c-7aaa2af07eec","019cf7bd-52b9-7f96-9138-a5960b400b31","","null","<div style=""background-color: white; width: 100vw; height: 100vh;""></div>","null","","","","","","","","",""
"","","","","","html-keyboard-response","101","366118","0.0-101.0","FB25281A27054908B94BF854F13F30CC","019cf7c1-019d-78eb-815c-7aaa2af07eec","019cf7bd-52b9-7f96-9138-a5960b400b31","","null","
                <div class=""stimulus-container"">
                    <img src=""images/semantic_sequence/market_semantic/market_semantic_1.png"" class=""exp-image"">
                    <div class=""question-area""></div> 
                </div>","null","","","","","","","","",""
"","","","","","html-button-response","102","368361","0.0-102.0","FB25281A27054908B94BF854F13F30CC","019cf7c1-019d-78eb-815c-7aaa2af07eec","019cf7bd-52b9-7f96-9138-a5960b400b31","","2241","
                <div class=""stimulus-container"">
                    <img src=""images/semantic_sequence/market_semantic/market_semantic_1.png"" class=""exp-image"">
                    <div class=""question-area"">
                        <p style=""font-size: 20px; font-weight: bold; margin: 0;"">Is there a person in this image?</p>
                    </div>
                </div>","1","main_experiment_trial","1","market_semantic","semantic_sequence","","","","",""
"","","","","","html-keyboard-response","103","373363","0.0-103.0","FB25281A27054908B94BF854F13F30CC","019cf7c1-019d-78eb-815c-7aaa2af07eec","019cf7bd-52b9-7f96-9138-a5960b400b31","","null","
                <div class=""stimulus-container"">
                    <img src=""images/semantic_sequence/market_semantic/market_semantic_2.png"" class=""exp-image"">
                    <div class=""question-area""></div> 
                </div>","null","","","","","","","","",""
"","","","","","html-button-response","104","376365","0.0-104.0","FB25281A27054908B94BF854F13F30CC","019cf7c1-019d-78eb-815c-7aaa2af07eec","019cf7bd-52b9-7f96-9138-a5960b400b31","","null","
                <div class=""stimulus-container"">
                    <img src=""images/semantic_sequence/market_semantic/market_semantic_2.png"" class=""exp-image"">
                    <div class=""question-area"">
                        <p style=""font-size: 20px; font-weight: bold; margin: 0;"">Is there a person in this image?</p>
                    </div>
                </div>","null","main_experiment_trial","2","market_semantic","semantic_sequence","","","","",""
"","","","","","html-keyboard-response","105","381367","0.0-105.0","FB25281A27054908B94BF854F13F30CC","019cf7c1-019d-78eb-815c-7aaa2af07eec","019cf7bd-52b9-7f96-9138-a5960b400b31","","null","
                <div class=""stimulus-container"">
                    <img src=""images/semantic_sequence/market_semantic/market_semantic_3.png"" class=""exp-image"">
                    <div class=""question-area""></div> 
                </div>","null","","","","","","","","",""
"","","","","","html-button-response","106","382915","0.0-106.0","FB25281A27054908B94BF854F13F30CC","019cf7c1-019d-78eb-815c-7aaa2af07eec","019cf7bd-52b9-7f96-9138-a5960b400b31","","1547","
                <div class=""stimulus-container"">
                    <img src=""images/semantic_sequence/market_semantic/market_semantic_3.png"" class=""exp-image"">
                    <div class=""question-area"">
                        <p style=""font-size: 20px; font-weight: bold; margin: 0;"">Is there a person in this image?</p>
                    </div>
                </div>","1","main_experiment_trial","3","market_semantic","semantic_sequence","","","","",""
"","","","","","html-keyboard-response","107","387917","0.0-107.0","FB25281A27054908B94BF854F13F30CC","019cf7c1-019d-78eb-815c-7aaa2af07eec","019cf7bd-52b9-7f96-9138-a5960b400b31","","null","
                <div class=""stimulus-container"">
                    <img src=""images/semantic_sequence/market_semantic/market_semantic_4.png"" class=""exp-image"">
                    <div class=""question-area""></div> 
                </div>","null","","","","","","","","",""
"","","","","","html-button-response","108","389425","0.0-108.0","FB25281A27054908B94BF854F13F30CC","019cf7c1-019d-78eb-815c-7aaa2af07eec","019cf7bd-52b9-7f96-9138-a5960b400b31","","1506","
                <div class=""stimulus-container"">
                    <img src=""images/semantic_sequence/market_semantic/market_semantic_4.png"" class=""exp-image"">
                    <div class=""question-area"">
                        <p style=""font-size: 20px; font-weight: bold; margin: 0;"">Is there a person in this image?</p>
                    </div>
                </div>","0","main_experiment_trial","4","market_semantic","semantic_sequence","","","","",""
"","","","","","html-keyboard-response","109","394426","0.0-109.0","FB25281A27054908B94BF854F13F30CC","019cf7c1-019d-78eb-815c-7aaa2af07eec","019cf7bd-52b9-7f96-9138-a5960b400b31","","null","
                <div class=""stimulus-container"">
                    <img src=""images/semantic_sequence/market_semantic/market_semantic_5.png"" class=""exp-image"">
                    <div class=""question-area""></div> 
                </div>","null","","","","","","","","",""
"","","","","","html-button-response","110","396394","0.0-110.0","FB25281A27054908B94BF854F13F30CC","019cf7c1-019d-78eb-815c-7aaa2af07eec","019cf7bd-52b9-7f96-9138-a5960b400b31","","1966","
                <div class=""stimulus-container"">
                    <img src=""images/semantic_sequence/market_semantic/market_semantic_5.png"" class=""exp-image"">
                    <div class=""question-area"">
                        <p style=""font-size: 20px; font-weight: bold; margin: 0;"">Is there a person in this image?</p>
                    </div>
                </div>","1","main_experiment_trial","5","market_semantic","semantic_sequence","","","","",""
"","","","","","html-keyboard-response","111","401395","0.0-111.0","FB25281A27054908B94BF854F13F30CC","019cf7c1-019d-78eb-815c-7aaa2af07eec","019cf7bd-52b9-7f96-9138-a5960b400b31","","null","
                <div class=""stimulus-container"">
                    <img src=""images/semantic_sequence/market_semantic/market_semantic_6.png"" class=""exp-image"">
                    <div class=""question-area""></div> 
                </div>","null","","","","","","","","",""
"","","","","","html-button-response","112","404397","0.0-112.0","FB25281A27054908B94BF854F13F30CC","019cf7c1-019d-78eb-815c-7aaa2af07eec","019cf7bd-52b9-7f96-9138-a5960b400b31","","null","
                <div class=""stimulus-container"">
                    <img src=""images/semantic_sequence/market_semantic/market_semantic_6.png"" class=""exp-image"">
                    <div class=""question-area"">
                        <p style=""font-size: 20px; font-weight: bold; margin: 0;"">Is there a person in this image?</p>
                    </div>
                </div>","null","main_experiment_trial","6","market_semantic","semantic_sequence","","","","",""
"","","","","","html-keyboard-response","113","409398","0.0-113.0","FB25281A27054908B94BF854F13F30CC","019cf7c1-019d-78eb-815c-7aaa2af07eec","019cf7bd-52b9-7f96-9138-a5960b400b31","","null","
                <div class=""stimulus-container"">
                    <img src=""images/semantic_sequence/market_semantic/market_semantic_7.png"" class=""exp-image"">
                    <div class=""question-area""></div> 
                </div>","null","","","","","","","","",""
"","","","","","html-button-response","114","411009","0.0-114.0","FB25281A27054908B94BF854F13F30CC","019cf7c1-019d-78eb-815c-7aaa2af07eec","019cf7bd-52b9-7f96-9138-a5960b400b31","","1609","
                <div class=""stimulus-container"">
                    <img src=""images/semantic_sequence/market_semantic/market_semantic_7.png"" class=""exp-image"">
                    <div class=""question-area"">
                        <p style=""font-size: 20px; font-weight: bold; margin: 0;"">Is there a person in this image?</p>
                    </div>
                </div>","0","main_experiment_trial","7","market_semantic","semantic_sequence","","","","",""
"","","","","","html-keyboard-response","115","416010","0.0-115.0","FB25281A27054908B94BF854F13F30CC","019cf7c1-019d-78eb-815c-7aaa2af07eec","019cf7bd-52b9-7f96-9138-a5960b400b31","","null","
                <div class=""stimulus-container"">
                    <img src=""images/semantic_sequence/market_semantic/market_semantic_8.png"" class=""exp-image"">
                    <div class=""question-area""></div> 
                </div>","null","","","","","","","","",""
"","","","","","html-button-response","116","417869","0.0-116.0","FB25281A27054908B94BF854F13F30CC","019cf7c1-019d-78eb-815c-7aaa2af07eec","019cf7bd-52b9-7f96-9138-a5960b400b31","","1857","
                <div class=""stimulus-container"">
                    <img src=""images/semantic_sequence/market_semantic/market_semantic_8.png"" class=""exp-image"">
                    <div class=""question-area"">
                        <p style=""font-size: 20px; font-weight: bold; margin: 0;"">Is there a person in this image?</p>
                    </div>
                </div>","1","main_experiment_trial","8","market_semantic","semantic_sequence","","","","",""
"","","","","","html-keyboard-response","117","422871","0.0-117.0","FB25281A27054908B94BF854F13F30CC","019cf7c1-019d-78eb-815c-7aaa2af07eec","019cf7bd-52b9-7f96-9138-a5960b400b31","","null","
                <div class=""stimulus-container"">
                    <img src=""images/semantic_sequence/market_semantic/market_semantic_9.png"" class=""exp-image"">
                    <div class=""question-area""></div> 
                </div>","null","","","","","","","","",""
"","","","","","html-button-response","118","425008","0.0-118.0","FB25281A27054908B94BF854F13F30CC","019cf7c1-019d-78eb-815c-7aaa2af07eec","019cf7bd-52b9-7f96-9138-a5960b400b31","","2136","
                <div class=""stimulus-container"">
                    <img src=""images/semantic_sequence/market_semantic/market_semantic_9.png"" class=""exp-image"">
                    <div class=""question-area"">
                        <p style=""font-size: 20px; font-weight: bold; margin: 0;"">Is there a person in this image?</p>
                    </div>
                </div>","0","main_experiment_trial","9","market_semantic","semantic_sequence","","","","",""
"","","","","","html-keyboard-response","119","430010","0.0-119.0","FB25281A27054908B94BF854F13F30CC","019cf7c1-019d-78eb-815c-7aaa2af07eec","019cf7bd-52b9-7f96-9138-a5960b400b31","","null","
                <div class=""stimulus-container"">
                    <img src=""images/semantic_sequence/market_semantic/market_semantic_ten.png"" class=""exp-image"">
                    <div class=""question-area""></div> 
                </div>","null","","","","","","","","",""
"","","","","","html-button-response","120","433011","0.0-120.0","FB25281A27054908B94BF854F13F30CC","019cf7c1-019d-78eb-815c-7aaa2af07eec","019cf7bd-52b9-7f96-9138-a5960b400b31","","null","
                <div class=""stimulus-container"">
                    <img src=""images/semantic_sequence/market_semantic/market_semantic_ten.png"" class=""exp-image"">
                    <div class=""question-area"">
                        <p style=""font-size: 20px; font-weight: bold; margin: 0;"">Is there a person in this image?</p>
                    </div>
                </div>","null","main_experiment_trial","ten","market_semantic","semantic_sequence","","","","",""
"","","","","","html-keyboard-response","121","434012","0.0-121.0","FB25281A27054908B94BF854F13F30CC","019cf7c1-019d-78eb-815c-7aaa2af07eec","019cf7bd-52b9-7f96-9138-a5960b400b31","","null","<div style=""background-color: white; width: 100vw; height: 100vh;""></div>","null","","","","","","","","",""
"","","","","","html-keyboard-response","122","439015","0.0-122.0","FB25281A27054908B94BF854F13F30CC","019cf7c1-019d-78eb-815c-7aaa2af07eec","019cf7bd-52b9-7f96-9138-a5960b400b31","","null","
                <div class=""stimulus-container"">
                    <img src=""images/schematic_sequence/hotel_scheme/hotel_scheme_1.png"" class=""exp-image"">
                    <div class=""question-area""></div> 
                </div>","null","","","","","","","","",""
"","","","","","html-button-response","123","440780","0.0-123.0","FB25281A27054908B94BF854F13F30CC","019cf7c1-019d-78eb-815c-7aaa2af07eec","019cf7bd-52b9-7f96-9138-a5960b400b31","","1764","
                <div class=""stimulus-container"">
                    <img src=""images/schematic_sequence/hotel_scheme/hotel_scheme_1.png"" class=""exp-image"">
                    <div class=""question-area"">
                        <p style=""font-size: 20px; font-weight: bold; margin: 0;"">Is there a person in this image?</p>
                    </div>
                </div>","1","main_experiment_trial","1","hotel_scheme","schematic_sequence","","","","",""
"","","","","","html-keyboard-response","124","445782","0.0-124.0","FB25281A27054908B94BF854F13F30CC","019cf7c1-019d-78eb-815c-7aaa2af07eec","019cf7bd-52b9-7f96-9138-a5960b400b31","","null","
                <div class=""stimulus-container"">
                    <img src=""images/schematic_sequence/hotel_scheme/hotel_scheme_2.png"" class=""exp-image"">
                    <div class=""question-area""></div> 
                </div>","null","","","","","","","","",""
"","","","","","html-button-response","125","447883","0.0-125.0","FB25281A27054908B94BF854F13F30CC","019cf7c1-019d-78eb-815c-7aaa2af07eec","019cf7bd-52b9-7f96-9138-a5960b400b31","","2099","
                <div class=""stimulus-container"">
                    <img src=""images/schematic_sequence/hotel_scheme/hotel_scheme_2.png"" class=""exp-image"">
                    <div class=""question-area"">
                        <p style=""font-size: 20px; font-weight: bold; margin: 0;"">Is there a person in this image?</p>
                    </div>
                </div>","0","main_experiment_trial","2","hotel_scheme","schematic_sequence","","","","",""
"","","","","","html-keyboard-response","126","452885","0.0-126.0","FB25281A27054908B94BF854F13F30CC","019cf7c1-019d-78eb-815c-7aaa2af07eec","019cf7bd-52b9-7f96-9138-a5960b400b31","","null","
                <div class=""stimulus-container"">
                    <img src=""images/schematic_sequence/hotel_scheme/hotel_scheme_3.png"" class=""exp-image"">
                    <div class=""question-area""></div> 
                </div>","null","","","","","","","","",""
"","","","","","html-button-response","127","454367","0.0-127.0","FB25281A27054908B94BF854F13F30CC","019cf7c1-019d-78eb-815c-7aaa2af07eec","019cf7bd-52b9-7f96-9138-a5960b400b31","","1481","
                <div class=""stimulus-container"">
                    <img src=""images/schematic_sequence/hotel_scheme/hotel_scheme_3.png"" class=""exp-image"">
                    <div class=""question-area"">
                        <p style=""font-size: 20px; font-weight: bold; margin: 0;"">Is there a person in this image?</p>
                    </div>
                </div>","0","main_experiment_trial","3","hotel_scheme","schematic_sequence","","","","",""
"","","","","","html-keyboard-response","128","459369","0.0-128.0","FB25281A27054908B94BF854F13F30CC","019cf7c1-019d-78eb-815c-7aaa2af07eec","019cf7bd-52b9-7f96-9138-a5960b400b31","","null","
                <div class=""stimulus-container"">
                    <img src=""images/schematic_sequence/hotel_scheme/hotel_scheme_4.png"" class=""exp-image"">
                    <div class=""question-area""></div> 
                </div>","null","","","","","","","","",""
"","","","","","html-button-response","129","461106","0.0-129.0","FB25281A27054908B94BF854F13F30CC","019cf7c1-019d-78eb-815c-7aaa2af07eec","019cf7bd-52b9-7f96-9138-a5960b400b31","","1735","
                <div class=""stimulus-container"">
                    <img src=""images/schematic_sequence/hotel_scheme/hotel_scheme_4.png"" class=""exp-image"">
                    <div class=""question-area"">
                        <p style=""font-size: 20px; font-weight: bold; margin: 0;"">Is there a person in this image?</p>
                    </div>
                </div>","1","main_experiment_trial","4","hotel_scheme","schematic_sequence","","","","",""
"","","","","","html-keyboard-response","130","466107","0.0-130.0","FB25281A27054908B94BF854F13F30CC","019cf7c1-019d-78eb-815c-7aaa2af07eec","019cf7bd-52b9-7f96-9138-a5960b400b31","","null","
                <div class=""stimulus-container"">
                    <img src=""images/schematic_sequence/hotel_scheme/hotel_scheme_5.png"" class=""exp-image"">
                    <div class=""question-area""></div> 
                </div>","null","","","","","","","","",""
"","","","","","html-button-response","131","468311","0.0-131.0","FB25281A27054908B94BF854F13F30CC","019cf7c1-019d-78eb-815c-7aaa2af07eec","019cf7bd-52b9-7f96-9138-a5960b400b31","","2202","
                <div class=""stimulus-container"">
                    <img src=""images/schematic_sequence/hotel_scheme/hotel_scheme_5.png"" class=""exp-image"">
                    <div class=""question-area"">
                        <p style=""font-size: 20px; font-weight: bold; margin: 0;"">Is there a person in this image?</p>
                    </div>
                </div>","0","main_experiment_trial","5","hotel_scheme","schematic_sequence","","","","",""
"","","","","","html-keyboard-response","132","473313","0.0-132.0","FB25281A27054908B94BF854F13F30CC","019cf7c1-019d-78eb-815c-7aaa2af07eec","019cf7bd-52b9-7f96-9138-a5960b400b31","","null","
                <div class=""stimulus-container"">
                    <img src=""images/schematic_sequence/hotel_scheme/hotel_scheme_6.png"" class=""exp-image"">
                    <div class=""question-area""></div> 
                </div>","null","","","","","","","","",""
"","","","","","html-button-response","133","475291","0.0-133.0","FB25281A27054908B94BF854F13F30CC","019cf7c1-019d-78eb-815c-7aaa2af07eec","019cf7bd-52b9-7f96-9138-a5960b400b31","","1977","
                <div class=""stimulus-container"">
                    <img src=""images/schematic_sequence/hotel_scheme/hotel_scheme_6.png"" class=""exp-image"">
                    <div class=""question-area"">
                        <p style=""font-size: 20px; font-weight: bold; margin: 0;"">Is there a person in this image?</p>
                    </div>
                </div>","0","main_experiment_trial","6","hotel_scheme","schematic_sequence","","","","",""
"","","","","","html-keyboard-response","134","480293","0.0-134.0","FB25281A27054908B94BF854F13F30CC","019cf7c1-019d-78eb-815c-7aaa2af07eec","019cf7bd-52b9-7f96-9138-a5960b400b31","","null","
                <div class=""stimulus-container"">
                    <img src=""images/schematic_sequence/hotel_scheme/hotel_scheme_7.png"" class=""exp-image"">
                    <div class=""question-area""></div> 
                </div>","null","","","","","","","","",""
"","","","","","html-button-response","135","482973","0.0-135.0","FB25281A27054908B94BF854F13F30CC","019cf7c1-019d-78eb-815c-7aaa2af07eec","019cf7bd-52b9-7f96-9138-a5960b400b31","","2678","
                <div class=""stimulus-container"">
                    <img src=""images/schematic_sequence/hotel_scheme/hotel_scheme_7.png"" class=""exp-image"">
                    <div class=""question-area"">
                        <p style=""font-size: 20px; font-weight: bold; margin: 0;"">Is there a person in this image?</p>
                    </div>
                </div>","0","main_experiment_trial","7","hotel_scheme","schematic_sequence","","","","",""
"","","","","","html-keyboard-response","136","487975","0.0-136.0","FB25281A27054908B94BF854F13F30CC","019cf7c1-019d-78eb-815c-7aaa2af07eec","019cf7bd-52b9-7f96-9138-a5960b400b31","","null","
                <div class=""stimulus-container"">
                    <img src=""images/schematic_sequence/hotel_scheme/hotel_scheme_8.png"" class=""exp-image"">
                    <div class=""question-area""></div> 
                </div>","null","","","","","","","","",""
"","","","","","html-button-response","137","490508","0.0-137.0","FB25281A27054908B94BF854F13F30CC","019cf7c1-019d-78eb-815c-7aaa2af07eec","019cf7bd-52b9-7f96-9138-a5960b400b31","","2531","
                <div class=""stimulus-container"">
                    <img src=""images/schematic_sequence/hotel_scheme/hotel_scheme_8.png"" class=""exp-image"">
                    <div class=""question-area"">
                        <p style=""font-size: 20px; font-weight: bold; margin: 0;"">Is there a person in this image?</p>
                    </div>
                </div>","0","main_experiment_trial","8","hotel_scheme","schematic_sequence","","","","",""
"","","","","","html-keyboard-response","138","495509","0.0-138.0","FB25281A27054908B94BF854F13F30CC","019cf7c1-019d-78eb-815c-7aaa2af07eec","019cf7bd-52b9-7f96-9138-a5960b400b31","","null","
                <div class=""stimulus-container"">
                    <img src=""images/schematic_sequence/hotel_scheme/hotel_scheme_9.png"" class=""exp-image"">
                    <div class=""question-area""></div> 
                </div>","null","","","","","","","","",""
"","","","","","html-button-response","139","496912","0.0-139.0","FB25281A27054908B94BF854F13F30CC","019cf7c1-019d-78eb-815c-7aaa2af07eec","019cf7bd-52b9-7f96-9138-a5960b400b31","","1401","
                <div class=""stimulus-container"">
                    <img src=""images/schematic_sequence/hotel_scheme/hotel_scheme_9.png"" class=""exp-image"">
                    <div class=""question-area"">
                        <p style=""font-size: 20px; font-weight: bold; margin: 0;"">Is there a person in this image?</p>
                    </div>
                </div>","0","main_experiment_trial","9","hotel_scheme","schematic_sequence","","","","",""
"","","","","","html-keyboard-response","140","501914","0.0-140.0","FB25281A27054908B94BF854F13F30CC","019cf7c1-019d-78eb-815c-7aaa2af07eec","019cf7bd-52b9-7f96-9138-a5960b400b31","","null","
                <div class=""stimulus-container"">
                    <img src=""images/schematic_sequence/hotel_scheme/hotel_scheme_ten.png"" class=""exp-image"">
                    <div class=""question-area""></div> 
                </div>","null","","","","","","","","",""
"","","","","","html-button-response","141","502956","0.0-141.0","FB25281A27054908B94BF854F13F30CC","019cf7c1-019d-78eb-815c-7aaa2af07eec","019cf7bd-52b9-7f96-9138-a5960b400b31","","1041","
                <div class=""stimulus-container"">
                    <img src=""images/schematic_sequence/hotel_scheme/hotel_scheme_ten.png"" class=""exp-image"">
                    <div class=""question-area"">
                        <p style=""font-size: 20px; font-weight: bold; margin: 0;"">Is there a person in this image?</p>
                    </div>
                </div>","0","main_experiment_trial","ten","hotel_scheme","schematic_sequence","","","","",""
"","","","","","html-keyboard-response","142","503958","0.0-142.0","FB25281A27054908B94BF854F13F30CC","019cf7c1-019d-78eb-815c-7aaa2af07eec","019cf7bd-52b9-7f96-9138-a5960b400b31","","null","<div style=""background-color: white; width: 100vw; height: 100vh;""></div>","null","","","","","","","","",""
"","","","","","html-keyboard-response","143","508959","0.0-143.0","FB25281A27054908B94BF854F13F30CC","019cf7c1-019d-78eb-815c-7aaa2af07eec","019cf7bd-52b9-7f96-9138-a5960b400b31","","null","
                <div class=""stimulus-container"">
                    <img src=""images/semantic_sequence/self_care_activities_semantic/self_care_activities_semantic_1.png"" class=""exp-image"">
                    <div class=""question-area""></div> 
                </div>","null","","","","","","","","",""
"","","","","","html-button-response","144","510204","0.0-144.0","FB25281A27054908B94BF854F13F30CC","019cf7c1-019d-78eb-815c-7aaa2af07eec","019cf7bd-52b9-7f96-9138-a5960b400b31","","1243","
                <div class=""stimulus-container"">
                    <img src=""images/semantic_sequence/self_care_activities_semantic/self_care_activities_semantic_1.png"" class=""exp-image"">
                    <div class=""question-area"">
                        <p style=""font-size: 20px; font-weight: bold; margin: 0;"">Is there a person in this image?</p>
                    </div>
                </div>","0","main_experiment_trial","1","self_care_activities_semantic","semantic_sequence","","","","",""
"","","","","","html-keyboard-response","145","515206","0.0-145.0","FB25281A27054908B94BF854F13F30CC","019cf7c1-019d-78eb-815c-7aaa2af07eec","019cf7bd-52b9-7f96-9138-a5960b400b31","","null","
                <div class=""stimulus-container"">
                    <img src=""images/semantic_sequence/self_care_activities_semantic/self_care_activities_semantic_2.png"" class=""exp-image"">
                    <div class=""question-area""></div> 
                </div>","null","","","","","","","","",""
"","","","","","html-button-response","146","516960","0.0-146.0","FB25281A27054908B94BF854F13F30CC","019cf7c1-019d-78eb-815c-7aaa2af07eec","019cf7bd-52b9-7f96-9138-a5960b400b31","","1752","
                <div class=""stimulus-container"">
                    <img src=""images/semantic_sequence/self_care_activities_semantic/self_care_activities_semantic_2.png"" class=""exp-image"">
                    <div class=""question-area"">
                        <p style=""font-size: 20px; font-weight: bold; margin: 0;"">Is there a person in this image?</p>
                    </div>
                </div>","0","main_experiment_trial","2","self_care_activities_semantic","semantic_sequence","","","","",""
"","","","","","html-keyboard-response","147","521962","0.0-147.0","FB25281A27054908B94BF854F13F30CC","019cf7c1-019d-78eb-815c-7aaa2af07eec","019cf7bd-52b9-7f96-9138-a5960b400b31","","null","
                <div class=""stimulus-container"">
                    <img src=""images/semantic_sequence/self_care_activities_semantic/self_care_activities_semantic_3.png"" class=""exp-image"">
                    <div class=""question-area""></div> 
                </div>","null","","","","","","","","",""
"","","","","","html-button-response","148","522980","0.0-148.0","FB25281A27054908B94BF854F13F30CC","019cf7c1-019d-78eb-815c-7aaa2af07eec","019cf7bd-52b9-7f96-9138-a5960b400b31","","1017","
                <div class=""stimulus-container"">
                    <img src=""images/semantic_sequence/self_care_activities_semantic/self_care_activities_semantic_3.png"" class=""exp-image"">
                    <div class=""question-area"">
                        <p style=""font-size: 20px; font-weight: bold; margin: 0;"">Is there a person in this image?</p>
                    </div>
                </div>","0","main_experiment_trial","3","self_care_activities_semantic","semantic_sequence","","","","",""
"","","","","","html-keyboard-response","149","527982","0.0-149.0","FB25281A27054908B94BF854F13F30CC","019cf7c1-019d-78eb-815c-7aaa2af07eec","019cf7bd-52b9-7f96-9138-a5960b400b31","","null","
                <div class=""stimulus-container"">
                    <img src=""images/semantic_sequence/self_care_activities_semantic/self_care_activities_semantic_4.png"" class=""exp-image"">
                    <div class=""question-area""></div> 
                </div>","null","","","","","","","","",""
"","","","","","html-button-response","150","529046","0.0-150.0","FB25281A27054908B94BF854F13F30CC","019cf7c1-019d-78eb-815c-7aaa2af07eec","019cf7bd-52b9-7f96-9138-a5960b400b31","","1062","
                <div class=""stimulus-container"">
                    <img src=""images/semantic_sequence/self_care_activities_semantic/self_care_activities_semantic_4.png"" class=""exp-image"">
                    <div class=""question-area"">
                        <p style=""font-size: 20px; font-weight: bold; margin: 0;"">Is there a person in this image?</p>
                    </div>
                </div>","0","main_experiment_trial","4","self_care_activities_semantic","semantic_sequence","","","","",""
"","","","","","html-keyboard-response","151","534047","0.0-151.0","FB25281A27054908B94BF854F13F30CC","019cf7c1-019d-78eb-815c-7aaa2af07eec","019cf7bd-52b9-7f96-9138-a5960b400b31","","null","
                <div class=""stimulus-container"">
                    <img src=""images/semantic_sequence/self_care_activities_semantic/self_care_activities_semantic_5.png"" class=""exp-image"">
                    <div class=""question-area""></div> 
                </div>","null","","","","","","","","",""
"","","","","","html-button-response","152","535714","0.0-152.0","FB25281A27054908B94BF854F13F30CC","019cf7c1-019d-78eb-815c-7aaa2af07eec","019cf7bd-52b9-7f96-9138-a5960b400b31","","1665","
                <div class=""stimulus-container"">
                    <img src=""images/semantic_sequence/self_care_activities_semantic/self_care_activities_semantic_5.png"" class=""exp-image"">
                    <div class=""question-area"">
                        <p style=""font-size: 20px; font-weight: bold; margin: 0;"">Is there a person in this image?</p>
                    </div>
                </div>","0","main_experiment_trial","5","self_care_activities_semantic","semantic_sequence","","","","",""
"","","","","","html-keyboard-response","153","540715","0.0-153.0","FB25281A27054908B94BF854F13F30CC","019cf7c1-019d-78eb-815c-7aaa2af07eec","019cf7bd-52b9-7f96-9138-a5960b400b31","","null","
                <div class=""stimulus-container"">
                    <img src=""images/semantic_sequence/self_care_activities_semantic/self_care_activities_semantic_6.png"" class=""exp-image"">
                    <div class=""question-area""></div> 
                </div>","null","","","","","","","","",""
"","","","","","html-button-response","154","542373","0.0-154.0","FB25281A27054908B94BF854F13F30CC","019cf7c1-019d-78eb-815c-7aaa2af07eec","019cf7bd-52b9-7f96-9138-a5960b400b31","","1656","
                <div class=""stimulus-container"">
                    <img src=""images/semantic_sequence/self_care_activities_semantic/self_care_activities_semantic_6.png"" class=""exp-image"">
                    <div class=""question-area"">
                        <p style=""font-size: 20px; font-weight: bold; margin: 0;"">Is there a person in this image?</p>
                    </div>
                </div>","1","main_experiment_trial","6","self_care_activities_semantic","semantic_sequence","","","","",""
"","","","","","html-keyboard-response","155","547375","0.0-155.0","FB25281A27054908B94BF854F13F30CC","019cf7c1-019d-78eb-815c-7aaa2af07eec","019cf7bd-52b9-7f96-9138-a5960b400b31","","null","
                <div class=""stimulus-container"">
                    <img src=""images/semantic_sequence/self_care_activities_semantic/self_care_activities_semantic_7.png"" class=""exp-image"">
                    <div class=""question-area""></div> 
                </div>","null","","","","","","","","",""
"","","","","","html-button-response","156","550311","0.0-156.0","FB25281A27054908B94BF854F13F30CC","019cf7c1-019d-78eb-815c-7aaa2af07eec","019cf7bd-52b9-7f96-9138-a5960b400b31","","2934","
                <div class=""stimulus-container"">
                    <img src=""images/semantic_sequence/self_care_activities_semantic/self_care_activities_semantic_7.png"" class=""exp-image"">
                    <div class=""question-area"">
                        <p style=""font-size: 20px; font-weight: bold; margin: 0;"">Is there a person in this image?</p>
                    </div>
                </div>","0","main_experiment_trial","7","self_care_activities_semantic","semantic_sequence","","","","",""
"","","","","","html-keyboard-response","157","555312","0.0-157.0","FB25281A27054908B94BF854F13F30CC","019cf7c1-019d-78eb-815c-7aaa2af07eec","019cf7bd-52b9-7f96-9138-a5960b400b31","","null","
                <div class=""stimulus-container"">
                    <img src=""images/semantic_sequence/self_care_activities_semantic/self_care_activities_semantic_8.png"" class=""exp-image"">
                    <div class=""question-area""></div> 
                </div>","null","","","","","","","","",""
"","","","","","html-button-response","158","558314","0.0-158.0","FB25281A27054908B94BF854F13F30CC","019cf7c1-019d-78eb-815c-7aaa2af07eec","019cf7bd-52b9-7f96-9138-a5960b400b31","","null","
                <div class=""stimulus-container"">
                    <img src=""images/semantic_sequence/self_care_activities_semantic/self_care_activities_semantic_8.png"" class=""exp-image"">
                    <div class=""question-area"">
                        <p style=""font-size: 20px; font-weight: bold; margin: 0;"">Is there a person in this image?</p>
                    </div>
                </div>","null","main_experiment_trial","8","self_care_activities_semantic","semantic_sequence","","","","",""
"","","","","","html-keyboard-response","159","563316","0.0-159.0","FB25281A27054908B94BF854F13F30CC","019cf7c1-019d-78eb-815c-7aaa2af07eec","019cf7bd-52b9-7f96-9138-a5960b400b31","","null","
                <div class=""stimulus-container"">
                    <img src=""images/semantic_sequence/self_care_activities_semantic/self_care_activities_semantic_9.png"" class=""exp-image"">
                    <div class=""question-area""></div> 
                </div>","null","","","","","","","","",""
"","","","","","html-button-response","160","564642","0.0-160.0","FB25281A27054908B94BF854F13F30CC","019cf7c1-019d-78eb-815c-7aaa2af07eec","019cf7bd-52b9-7f96-9138-a5960b400b31","","1324","
                <div class=""stimulus-container"">
                    <img src=""images/semantic_sequence/self_care_activities_semantic/self_care_activities_semantic_9.png"" class=""exp-image"">
                    <div class=""question-area"">
                        <p style=""font-size: 20px; font-weight: bold; margin: 0;"">Is there a person in this image?</p>
                    </div>
                </div>","0","main_experiment_trial","9","self_care_activities_semantic","semantic_sequence","","","","",""
"","","","","","html-keyboard-response","161","569644","0.0-161.0","FB25281A27054908B94BF854F13F30CC","019cf7c1-019d-78eb-815c-7aaa2af07eec","019cf7bd-52b9-7f96-9138-a5960b400b31","","null","
                <div class=""stimulus-container"">
                    <img src=""images/semantic_sequence/self_care_activities_semantic/self_care_activities_semantic_ten.png"" class=""exp-image"">
                    <div class=""question-area""></div> 
                </div>","null","","","","","","","","",""
"","","","","","html-button-response","162","570443","0.0-162.0","FB25281A27054908B94BF854F13F30CC","019cf7c1-019d-78eb-815c-7aaa2af07eec","019cf7bd-52b9-7f96-9138-a5960b400b31","","797","
                <div class=""stimulus-container"">
                    <img src=""images/semantic_sequence/self_care_activities_semantic/self_care_activities_semantic_ten.png"" class=""exp-image"">
                    <div class=""question-area"">
                        <p style=""font-size: 20px; font-weight: bold; margin: 0;"">Is there a person in this image?</p>
                    </div>
                </div>","0","main_experiment_trial","ten","self_care_activities_semantic","semantic_sequence","","","","",""
"","","","","","html-keyboard-response","163","571444","0.0-163.0","FB25281A27054908B94BF854F13F30CC","019cf7c1-019d-78eb-815c-7aaa2af07eec","019cf7bd-52b9-7f96-9138-a5960b400b31","","null","<div style=""background-color: white; width: 100vw; height: 100vh;""></div>","null","","","","","","","","",""
"","","","","","html-keyboard-response","164","576445","0.0-164.0","FB25281A27054908B94BF854F13F30CC","019cf7c1-019d-78eb-815c-7aaa2af07eec","019cf7bd-52b9-7f96-9138-a5960b400b31","","null","
                <div class=""stimulus-container"">
                    <img src=""images/semantic_sequence/housework_semantic/housework_semantic_1.png"" class=""exp-image"">
                    <div class=""question-area""></div> 
                </div>","null","","","","","","","","",""
"","","","","","html-button-response","165","579447","0.0-165.0","FB25281A27054908B94BF854F13F30CC","019cf7c1-019d-78eb-815c-7aaa2af07eec","019cf7bd-52b9-7f96-9138-a5960b400b31","","null","
                <div class=""stimulus-container"">
                    <img src=""images/semantic_sequence/housework_semantic/housework_semantic_1.png"" class=""exp-image"">
                    <div class=""question-area"">
                        <p style=""font-size: 20px; font-weight: bold; margin: 0;"">Is there a person in this image?</p>
                    </div>
                </div>","null","main_experiment_trial","1","housework_semantic","semantic_sequence","","","","",""
"","","","","","html-keyboard-response","166","584448","0.0-166.0","FB25281A27054908B94BF854F13F30CC","019cf7c1-019d-78eb-815c-7aaa2af07eec","019cf7bd-52b9-7f96-9138-a5960b400b31","","null","
                <div class=""stimulus-container"">
                    <img src=""images/semantic_sequence/housework_semantic/housework_semantic_2.png"" class=""exp-image"">
                    <div class=""question-area""></div> 
                </div>","null","","","","","","","","",""
"","","","","","html-button-response","167","586371","0.0-167.0","FB25281A27054908B94BF854F13F30CC","019cf7c1-019d-78eb-815c-7aaa2af07eec","019cf7bd-52b9-7f96-9138-a5960b400b31","","1921","
                <div class=""stimulus-container"">
                    <img src=""images/semantic_sequence/housework_semantic/housework_semantic_2.png"" class=""exp-image"">
                    <div class=""question-area"">
                        <p style=""font-size: 20px; font-weight: bold; margin: 0;"">Is there a person in this image?</p>
                    </div>
                </div>","0","main_experiment_trial","2","housework_semantic","semantic_sequence","","","","",""
"","","","","","html-keyboard-response","168","591373","0.0-168.0","FB25281A27054908B94BF854F13F30CC","019cf7c1-019d-78eb-815c-7aaa2af07eec","019cf7bd-52b9-7f96-9138-a5960b400b31","","null","
                <div class=""stimulus-container"">
                    <img src=""images/semantic_sequence/housework_semantic/housework_semantic_3.png"" class=""exp-image"">
                    <div class=""question-area""></div> 
                </div>","null","","","","","","","","",""
"","","","","","html-button-response","169","594026","0.0-169.0","FB25281A27054908B94BF854F13F30CC","019cf7c1-019d-78eb-815c-7aaa2af07eec","019cf7bd-52b9-7f96-9138-a5960b400b31","","2652","
                <div class=""stimulus-container"">
                    <img src=""images/semantic_sequence/housework_semantic/housework_semantic_3.png"" class=""exp-image"">
                    <div class=""question-area"">
                        <p style=""font-size: 20px; font-weight: bold; margin: 0;"">Is there a person in this image?</p>
                    </div>
                </div>","0","main_experiment_trial","3","housework_semantic","semantic_sequence","","","","",""
"","","","","","html-keyboard-response","170","599028","0.0-170.0","FB25281A27054908B94BF854F13F30CC","019cf7c1-019d-78eb-815c-7aaa2af07eec","019cf7bd-52b9-7f96-9138-a5960b400b31","","null","
                <div class=""stimulus-container"">
                    <img src=""images/semantic_sequence/housework_semantic/housework_semantic_4.png"" class=""exp-image"">
                    <div class=""question-area""></div> 
                </div>","null","","","","","","","","",""
"","","","","","html-button-response","171","602029","0.0-171.0","FB25281A27054908B94BF854F13F30CC","019cf7c1-019d-78eb-815c-7aaa2af07eec","019cf7bd-52b9-7f96-9138-a5960b400b31","","null","
                <div class=""stimulus-container"">
                    <img src=""images/semantic_sequence/housework_semantic/housework_semantic_4.png"" class=""exp-image"">
                    <div class=""question-area"">
                        <p style=""font-size: 20px; font-weight: bold; margin: 0;"">Is there a person in this image?</p>
                    </div>
                </div>","null","main_experiment_trial","4","housework_semantic","semantic_sequence","","","","",""
"","","","","","html-keyboard-response","172","607031","0.0-172.0","FB25281A27054908B94BF854F13F30CC","019cf7c1-019d-78eb-815c-7aaa2af07eec","019cf7bd-52b9-7f96-9138-a5960b400b31","","null","
                <div class=""stimulus-container"">
                    <img src=""images/semantic_sequence/housework_semantic/housework_semantic_5.png"" class=""exp-image"">
                    <div class=""question-area""></div> 
                </div>","null","","","","","","","","",""
"","","","","","html-button-response","173","608630","0.0-173.0","FB25281A27054908B94BF854F13F30CC","019cf7c1-019d-78eb-815c-7aaa2af07eec","019cf7bd-52b9-7f96-9138-a5960b400b31","","1597","
                <div class=""stimulus-container"">
                    <img src=""images/semantic_sequence/housework_semantic/housework_semantic_5.png"" class=""exp-image"">
                    <div class=""question-area"">
                        <p style=""font-size: 20px; font-weight: bold; margin: 0;"">Is there a person in this image?</p>
                    </div>
                </div>","0","main_experiment_trial","5","housework_semantic","semantic_sequence","","","","",""
"","","","","","html-keyboard-response","174","613632","0.0-174.0","FB25281A27054908B94BF854F13F30CC","019cf7c1-019d-78eb-815c-7aaa2af07eec","019cf7bd-52b9-7f96-9138-a5960b400b31","","null","
                <div class=""stimulus-container"">
                    <img src=""images/semantic_sequence/housework_semantic/housework_semantic_6.png"" class=""exp-image"">
                    <div class=""question-area""></div> 
                </div>","null","","","","","","","","",""
"","","","","","html-button-response","175","616634","0.0-175.0","FB25281A27054908B94BF854F13F30CC","019cf7c1-019d-78eb-815c-7aaa2af07eec","019cf7bd-52b9-7f96-9138-a5960b400b31","","null","
                <div class=""stimulus-container"">
                    <img src=""images/semantic_sequence/housework_semantic/housework_semantic_6.png"" class=""exp-image"">
                    <div class=""question-area"">
                        <p style=""font-size: 20px; font-weight: bold; margin: 0;"">Is there a person in this image?</p>
                    </div>
                </div>","null","main_experiment_trial","6","housework_semantic","semantic_sequence","","","","",""
"","","","","","html-keyboard-response","176","621635","0.0-176.0","FB25281A27054908B94BF854F13F30CC","019cf7c1-019d-78eb-815c-7aaa2af07eec","019cf7bd-52b9-7f96-9138-a5960b400b31","","null","
                <div class=""stimulus-container"">
                    <img src=""images/semantic_sequence/housework_semantic/housework_semantic_7.png"" class=""exp-image"">
                    <div class=""question-area""></div> 
                </div>","null","","","","","","","","",""
"","","","","","html-button-response","177","622916","0.0-177.0","FB25281A27054908B94BF854F13F30CC","019cf7c1-019d-78eb-815c-7aaa2af07eec","019cf7bd-52b9-7f96-9138-a5960b400b31","","1279","
                <div class=""stimulus-container"">
                    <img src=""images/semantic_sequence/housework_semantic/housework_semantic_7.png"" class=""exp-image"">
                    <div class=""question-area"">
                        <p style=""font-size: 20px; font-weight: bold; margin: 0;"">Is there a person in this image?</p>
                    </div>
                </div>","0","main_experiment_trial","7","housework_semantic","semantic_sequence","","","","",""
"","","","","","html-keyboard-response","178","627918","0.0-178.0","FB25281A27054908B94BF854F13F30CC","019cf7c1-019d-78eb-815c-7aaa2af07eec","019cf7bd-52b9-7f96-9138-a5960b400b31","","null","
                <div class=""stimulus-container"">
                    <img src=""images/semantic_sequence/housework_semantic/housework_semantic_8.png"" class=""exp-image"">
                    <div class=""question-area""></div> 
                </div>","null","","","","","","","","",""
"","","","","","html-button-response","179","629242","0.0-179.0","FB25281A27054908B94BF854F13F30CC","019cf7c1-019d-78eb-815c-7aaa2af07eec","019cf7bd-52b9-7f96-9138-a5960b400b31","","1323","
                <div class=""stimulus-container"">
                    <img src=""images/semantic_sequence/housework_semantic/housework_semantic_8.png"" class=""exp-image"">
                    <div class=""question-area"">
                        <p style=""font-size: 20px; font-weight: bold; margin: 0;"">Is there a person in this image?</p>
                    </div>
                </div>","0","main_experiment_trial","8","housework_semantic","semantic_sequence","","","","",""
