"success","timeout","failed_images","failed_audio","failed_video","trial_type","trial_index","time_elapsed","internal_node_id","subject_id","study_id","session_id","view_history","rt","stimulus","response","task","image_index","folder","sequence_type","valuable_image_index","reward_type","correct_choice","chosen_image_index","target_X"
"true","false","[]","[]","[]","preload","0","154794","0.0-0.0","A46DB62D8462400D9D4D566651697C13","019cf0a8-0541-7b73-b68f-08baf0770e75","019cf037-5203-781a-b900-108ccb1cab86","","","","","","","","","","","","",""
"","","","","","instructions","1","175940","0.0-1.0","A46DB62D8462400D9D4D566651697C13","019cf0a8-0541-7b73-b68f-08baf0770e75","019cf037-5203-781a-b900-108ccb1cab86","[{""page_index"":0,""viewing_time"":21144}]","21144","","","","","","","","","","",""
"","","","","","instructions","2","189409","0.0-2.0","A46DB62D8462400D9D4D566651697C13","019cf0a8-0541-7b73-b68f-08baf0770e75","019cf037-5203-781a-b900-108ccb1cab86","[{""page_index"":0,""viewing_time"":13467}]","13468","","","","","","","","","","",""
"true","","","","","fullscreen","3","195848","0.0-3.0","A46DB62D8462400D9D4D566651697C13","019cf0a8-0541-7b73-b68f-08baf0770e75","019cf037-5203-781a-b900-108ccb1cab86","","5415","","","","","","","","","","",""
"","","","","","instructions","4","207176","0.0-4.0","A46DB62D8462400D9D4D566651697C13","019cf0a8-0541-7b73-b68f-08baf0770e75","019cf037-5203-781a-b900-108ccb1cab86","[{""page_index"":0,""viewing_time"":11327}]","11327","","","","","","","","","","",""
"","","","","","instructions","5","250873","0.0-5.0","A46DB62D8462400D9D4D566651697C13","019cf0a8-0541-7b73-b68f-08baf0770e75","019cf037-5203-781a-b900-108ccb1cab86","[{""page_index"":0,""viewing_time"":43696}]","43696","","","","","","","","","","",""
"","","","","","html-keyboard-response","6","254881","0.0-6.0","A46DB62D8462400D9D4D566651697C13","019cf0a8-0541-7b73-b68f-08baf0770e75","019cf037-5203-781a-b900-108ccb1cab86","","null","
                <div class=""stimulus-container"">
                    <img src=""images/instructions/movie_1.png"" class=""exp-image"">
                    <div class=""question-area""></div> 
                </div>","null","","","","","","","","",""
"","","","","","html-button-response","7","257899","0.0-7.0","A46DB62D8462400D9D4D566651697C13","019cf0a8-0541-7b73-b68f-08baf0770e75","019cf037-5203-781a-b900-108ccb1cab86","","null","
                <div class=""stimulus-container"">
                    <img src=""images/instructions/movie_1.png"" class=""exp-image"">
                    <div class=""question-area"">
                        <p style=""font-size: 20px; font-weight: bold; margin: 0;"">Was there a person in this image?</p>
                    </div>
                </div>","null","example_question","1","","","","","","",""
"","","","","","html-keyboard-response","8","261914","0.0-8.0","A46DB62D8462400D9D4D566651697C13","019cf0a8-0541-7b73-b68f-08baf0770e75","019cf037-5203-781a-b900-108ccb1cab86","","null","
                <div class=""stimulus-container"">
                    <img src=""images/instructions/movie_2.png"" class=""exp-image"">
                    <div class=""question-area""></div> 
                </div>","null","","","","","","","","",""
"","","","","","html-button-response","9","263509","0.0-9.0","A46DB62D8462400D9D4D566651697C13","019cf0a8-0541-7b73-b68f-08baf0770e75","019cf037-5203-781a-b900-108ccb1cab86","","1589","
                <div class=""stimulus-container"">
                    <img src=""images/instructions/movie_2.png"" class=""exp-image"">
                    <div class=""question-area"">
                        <p style=""font-size: 20px; font-weight: bold; margin: 0;"">Was there a person in this image?</p>
                    </div>
                </div>","0","example_question","2","","","","","","",""
"","","","","","html-keyboard-response","10","267521","0.0-10.0","A46DB62D8462400D9D4D566651697C13","019cf0a8-0541-7b73-b68f-08baf0770e75","019cf037-5203-781a-b900-108ccb1cab86","","null","
                <div class=""stimulus-container"">
                    <img src=""images/instructions/movie_3.png"" class=""exp-image"">
                    <div class=""question-area""></div> 
                </div>","null","","","","","","","","",""
"","","","","","html-button-response","11","269721","0.0-11.0","A46DB62D8462400D9D4D566651697C13","019cf0a8-0541-7b73-b68f-08baf0770e75","019cf037-5203-781a-b900-108ccb1cab86","","2197","
                <div class=""stimulus-container"">
                    <img src=""images/instructions/movie_3.png"" class=""exp-image"">
                    <div class=""question-area"">
                        <p style=""font-size: 20px; font-weight: bold; margin: 0;"">Was there a person in this image?</p>
                    </div>
                </div>","0","example_question","3","","","","","","",""
"","","","","","html-keyboard-response","12","273725","0.0-12.0","A46DB62D8462400D9D4D566651697C13","019cf0a8-0541-7b73-b68f-08baf0770e75","019cf037-5203-781a-b900-108ccb1cab86","","null","
                <div class=""stimulus-container"">
                    <img src=""images/instructions/movie_4.png"" class=""exp-image"">
                    <div class=""question-area""></div> 
                </div>","null","","","","","","","","",""
"","","","","","html-button-response","13","274841","0.0-13.0","A46DB62D8462400D9D4D566651697C13","019cf0a8-0541-7b73-b68f-08baf0770e75","019cf037-5203-781a-b900-108ccb1cab86","","1112","
                <div class=""stimulus-container"">
                    <img src=""images/instructions/movie_4.png"" class=""exp-image"">
                    <div class=""question-area"">
                        <p style=""font-size: 20px; font-weight: bold; margin: 0;"">Was there a person in this image?</p>
                    </div>
                </div>","0","example_question","4","","","","","","",""
"","","","","","instructions","14","277928","0.0-14.0","A46DB62D8462400D9D4D566651697C13","019cf0a8-0541-7b73-b68f-08baf0770e75","019cf037-5203-781a-b900-108ccb1cab86","[{""page_index"":0,""viewing_time"":3086}]","3087","","","","","","","","","","",""
"","","","","","instructions","15","286744","0.0-15.0","A46DB62D8462400D9D4D566651697C13","019cf0a8-0541-7b73-b68f-08baf0770e75","019cf037-5203-781a-b900-108ccb1cab86","[{""page_index"":0,""viewing_time"":8815}]","8815","","","","","","","","","","",""
"","","","","","html-keyboard-response","16","287758","0.0-16.0","A46DB62D8462400D9D4D566651697C13","019cf0a8-0541-7b73-b68f-08baf0770e75","019cf037-5203-781a-b900-108ccb1cab86","","null","<div style=""background-color: white; width: 100vw; height: 100vh;""></div>","null","","","","","","","","",""
"","","","","","html-keyboard-response","17","292769","0.0-17.0","A46DB62D8462400D9D4D566651697C13","019cf0a8-0541-7b73-b68f-08baf0770e75","019cf037-5203-781a-b900-108ccb1cab86","","null","
                <div class=""stimulus-container"">
                    <img src=""images/schematic_sequence/restaurant_scheme/restaurant_scheme_1.png"" class=""exp-image"">
                    <div class=""question-area""></div> 
                </div>","null","","","","","","","","",""
"","","","","","html-button-response","18","294153","0.0-18.0","A46DB62D8462400D9D4D566651697C13","019cf0a8-0541-7b73-b68f-08baf0770e75","019cf037-5203-781a-b900-108ccb1cab86","","1382","
                <div class=""stimulus-container"">
                    <img src=""images/schematic_sequence/restaurant_scheme/restaurant_scheme_1.png"" class=""exp-image"">
                    <div class=""question-area"">
                        <p style=""font-size: 20px; font-weight: bold; margin: 0;"">Is there a person in this image?</p>
                    </div>
                </div>","0","main_experiment_trial","1","restaurant_scheme","schematic_sequence","","","","",""
"","","","","","html-keyboard-response","19","299166","0.0-19.0","A46DB62D8462400D9D4D566651697C13","019cf0a8-0541-7b73-b68f-08baf0770e75","019cf037-5203-781a-b900-108ccb1cab86","","null","
                <div class=""stimulus-container"">
                    <img src=""images/schematic_sequence/restaurant_scheme/restaurant_scheme_2.png"" class=""exp-image"">
                    <div class=""question-area""></div> 
                </div>","null","","","","","","","","",""
"","","","","","html-button-response","20","301593","0.0-20.0","A46DB62D8462400D9D4D566651697C13","019cf0a8-0541-7b73-b68f-08baf0770e75","019cf037-5203-781a-b900-108ccb1cab86","","2425","
                <div class=""stimulus-container"">
                    <img src=""images/schematic_sequence/restaurant_scheme/restaurant_scheme_2.png"" class=""exp-image"">
                    <div class=""question-area"">
                        <p style=""font-size: 20px; font-weight: bold; margin: 0;"">Is there a person in this image?</p>
                    </div>
                </div>","1","main_experiment_trial","2","restaurant_scheme","schematic_sequence","","","","",""
"","","","","","html-keyboard-response","21","306608","0.0-21.0","A46DB62D8462400D9D4D566651697C13","019cf0a8-0541-7b73-b68f-08baf0770e75","019cf037-5203-781a-b900-108ccb1cab86","","null","
                <div class=""stimulus-container"">
                    <img src=""images/schematic_sequence/restaurant_scheme/restaurant_scheme_3.png"" class=""exp-image"">
                    <div class=""question-area""></div> 
                </div>","null","","","","","","","","",""
"","","","","","html-button-response","22","307785","0.0-22.0","A46DB62D8462400D9D4D566651697C13","019cf0a8-0541-7b73-b68f-08baf0770e75","019cf037-5203-781a-b900-108ccb1cab86","","1175","
                <div class=""stimulus-container"">
                    <img src=""images/schematic_sequence/restaurant_scheme/restaurant_scheme_3.png"" class=""exp-image"">
                    <div class=""question-area"">
                        <p style=""font-size: 20px; font-weight: bold; margin: 0;"">Is there a person in this image?</p>
                    </div>
                </div>","1","main_experiment_trial","3","restaurant_scheme","schematic_sequence","","","","",""
"","","","","","html-keyboard-response","23","312789","0.0-23.0","A46DB62D8462400D9D4D566651697C13","019cf0a8-0541-7b73-b68f-08baf0770e75","019cf037-5203-781a-b900-108ccb1cab86","","null","
                <div class=""stimulus-container"">
                    <img src=""images/schematic_sequence/restaurant_scheme/restaurant_scheme_4.png"" class=""exp-image"">
                    <div class=""question-area""></div> 
                </div>","null","","","","","","","","",""
"","","","","","html-button-response","24","313593","0.0-24.0","A46DB62D8462400D9D4D566651697C13","019cf0a8-0541-7b73-b68f-08baf0770e75","019cf037-5203-781a-b900-108ccb1cab86","","802","
                <div class=""stimulus-container"">
                    <img src=""images/schematic_sequence/restaurant_scheme/restaurant_scheme_4.png"" class=""exp-image"">
                    <div class=""question-area"">
                        <p style=""font-size: 20px; font-weight: bold; margin: 0;"">Is there a person in this image?</p>
                    </div>
                </div>","0","main_experiment_trial","4","restaurant_scheme","schematic_sequence","","","","",""
"","","","","","html-keyboard-response","25","318601","0.0-25.0","A46DB62D8462400D9D4D566651697C13","019cf0a8-0541-7b73-b68f-08baf0770e75","019cf037-5203-781a-b900-108ccb1cab86","","null","
                <div class=""stimulus-container"">
                    <img src=""images/schematic_sequence/restaurant_scheme/restaurant_scheme_5.png"" class=""exp-image"">
                    <div class=""question-area""></div> 
                </div>","null","","","","","","","","",""
"","","","","","html-button-response","26","319921","0.0-26.0","A46DB62D8462400D9D4D566651697C13","019cf0a8-0541-7b73-b68f-08baf0770e75","019cf037-5203-781a-b900-108ccb1cab86","","1317","
                <div class=""stimulus-container"">
                    <img src=""images/schematic_sequence/restaurant_scheme/restaurant_scheme_5.png"" class=""exp-image"">
                    <div class=""question-area"">
                        <p style=""font-size: 20px; font-weight: bold; margin: 0;"">Is there a person in this image?</p>
                    </div>
                </div>","0","main_experiment_trial","5","restaurant_scheme","schematic_sequence","","","","",""
"","","","","","html-keyboard-response","27","324931","0.0-27.0","A46DB62D8462400D9D4D566651697C13","019cf0a8-0541-7b73-b68f-08baf0770e75","019cf037-5203-781a-b900-108ccb1cab86","","null","
                <div class=""stimulus-container"">
                    <img src=""images/schematic_sequence/restaurant_scheme/restaurant_scheme_6.png"" class=""exp-image"">
                    <div class=""question-area""></div> 
                </div>","null","","","","","","","","",""
"","","","","","html-button-response","28","327129","0.0-28.0","A46DB62D8462400D9D4D566651697C13","019cf0a8-0541-7b73-b68f-08baf0770e75","019cf037-5203-781a-b900-108ccb1cab86","","2195","
                <div class=""stimulus-container"">
                    <img src=""images/schematic_sequence/restaurant_scheme/restaurant_scheme_6.png"" class=""exp-image"">
                    <div class=""question-area"">
                        <p style=""font-size: 20px; font-weight: bold; margin: 0;"">Is there a person in this image?</p>
                    </div>
                </div>","1","main_experiment_trial","6","restaurant_scheme","schematic_sequence","","","","",""
"","","","","","html-keyboard-response","29","332137","0.0-29.0","A46DB62D8462400D9D4D566651697C13","019cf0a8-0541-7b73-b68f-08baf0770e75","019cf037-5203-781a-b900-108ccb1cab86","","null","
                <div class=""stimulus-container"">
                    <img src=""images/schematic_sequence/restaurant_scheme/restaurant_scheme_7.png"" class=""exp-image"">
                    <div class=""question-area""></div> 
                </div>","null","","","","","","","","",""
"","","","","","html-button-response","30","333745","0.0-30.0","A46DB62D8462400D9D4D566651697C13","019cf0a8-0541-7b73-b68f-08baf0770e75","019cf037-5203-781a-b900-108ccb1cab86","","1604","
                <div class=""stimulus-container"">
                    <img src=""images/schematic_sequence/restaurant_scheme/restaurant_scheme_7.png"" class=""exp-image"">
                    <div class=""question-area"">
                        <p style=""font-size: 20px; font-weight: bold; margin: 0;"">Is there a person in this image?</p>
                    </div>
                </div>","1","main_experiment_trial","7","restaurant_scheme","schematic_sequence","","","","",""
"","","","","","html-keyboard-response","31","338750","0.0-31.0","A46DB62D8462400D9D4D566651697C13","019cf0a8-0541-7b73-b68f-08baf0770e75","019cf037-5203-781a-b900-108ccb1cab86","","null","
                <div class=""stimulus-container"">
                    <img src=""images/schematic_sequence/restaurant_scheme/restaurant_scheme_8.png"" class=""exp-image"">
                    <div class=""question-area""></div> 
                </div>","null","","","","","","","","",""
"","","","","","html-button-response","32","339873","0.0-32.0","A46DB62D8462400D9D4D566651697C13","019cf0a8-0541-7b73-b68f-08baf0770e75","019cf037-5203-781a-b900-108ccb1cab86","","1120","
                <div class=""stimulus-container"">
                    <img src=""images/schematic_sequence/restaurant_scheme/restaurant_scheme_8.png"" class=""exp-image"">
                    <div class=""question-area"">
                        <p style=""font-size: 20px; font-weight: bold; margin: 0;"">Is there a person in this image?</p>
                    </div>
                </div>","0","main_experiment_trial","8","restaurant_scheme","schematic_sequence","","","","",""
"","","","","","html-keyboard-response","33","344884","0.0-33.0","A46DB62D8462400D9D4D566651697C13","019cf0a8-0541-7b73-b68f-08baf0770e75","019cf037-5203-781a-b900-108ccb1cab86","","null","
                <div class=""stimulus-container"">
                    <img src=""images/schematic_sequence/restaurant_scheme/restaurant_scheme_9.png"" class=""exp-image"">
                    <div class=""question-area""></div> 
                </div>","null","","","","","","","","",""
"","","","","","html-button-response","34","345761","0.0-34.0","A46DB62D8462400D9D4D566651697C13","019cf0a8-0541-7b73-b68f-08baf0770e75","019cf037-5203-781a-b900-108ccb1cab86","","873","
                <div class=""stimulus-container"">
                    <img src=""images/schematic_sequence/restaurant_scheme/restaurant_scheme_9.png"" class=""exp-image"">
                    <div class=""question-area"">
                        <p style=""font-size: 20px; font-weight: bold; margin: 0;"">Is there a person in this image?</p>
                    </div>
                </div>","0","main_experiment_trial","9","restaurant_scheme","schematic_sequence","","","","",""
"","","","","","html-keyboard-response","35","350776","0.0-35.0","A46DB62D8462400D9D4D566651697C13","019cf0a8-0541-7b73-b68f-08baf0770e75","019cf037-5203-781a-b900-108ccb1cab86","","null","
                <div class=""stimulus-container"">
                    <img src=""images/schematic_sequence/restaurant_scheme/restaurant_scheme_ten.png"" class=""exp-image"">
                    <div class=""question-area""></div> 
                </div>","null","","","","","","","","",""
"","","","","","html-button-response","36","351961","0.0-36.0","A46DB62D8462400D9D4D566651697C13","019cf0a8-0541-7b73-b68f-08baf0770e75","019cf037-5203-781a-b900-108ccb1cab86","","1184","
                <div class=""stimulus-container"">
                    <img src=""images/schematic_sequence/restaurant_scheme/restaurant_scheme_ten.png"" class=""exp-image"">
                    <div class=""question-area"">
                        <p style=""font-size: 20px; font-weight: bold; margin: 0;"">Is there a person in this image?</p>
                    </div>
                </div>","0","main_experiment_trial","ten","restaurant_scheme","schematic_sequence","","","","",""
"","","","","","html-keyboard-response","37","352973","0.0-37.0","A46DB62D8462400D9D4D566651697C13","019cf0a8-0541-7b73-b68f-08baf0770e75","019cf037-5203-781a-b900-108ccb1cab86","","null","<div style=""background-color: white; width: 100vw; height: 100vh;""></div>","null","","","","","","","","",""
"","","","","","html-keyboard-response","38","357982","0.0-38.0","A46DB62D8462400D9D4D566651697C13","019cf0a8-0541-7b73-b68f-08baf0770e75","019cf037-5203-781a-b900-108ccb1cab86","","null","
                <div class=""stimulus-container"">
                    <img src=""images/schematic_sequence/supermarket_scheme/supermarket_scheme_1.png"" class=""exp-image"">
                    <div class=""question-area""></div> 
                </div>","null","","","","","","","","",""
"","","","","","html-button-response","39","359145","0.0-39.0","A46DB62D8462400D9D4D566651697C13","019cf0a8-0541-7b73-b68f-08baf0770e75","019cf037-5203-781a-b900-108ccb1cab86","","1162","
                <div class=""stimulus-container"">
                    <img src=""images/schematic_sequence/supermarket_scheme/supermarket_scheme_1.png"" class=""exp-image"">
                    <div class=""question-area"">
                        <p style=""font-size: 20px; font-weight: bold; margin: 0;"">Is there a person in this image?</p>
                    </div>
                </div>","1","main_experiment_trial","1","supermarket_scheme","schematic_sequence","","","","",""
"","","","","","html-keyboard-response","40","364148","0.0-40.0","A46DB62D8462400D9D4D566651697C13","019cf0a8-0541-7b73-b68f-08baf0770e75","019cf037-5203-781a-b900-108ccb1cab86","","null","
                <div class=""stimulus-container"">
                    <img src=""images/schematic_sequence/supermarket_scheme/supermarket_scheme_2.png"" class=""exp-image"">
                    <div class=""question-area""></div> 
                </div>","null","","","","","","","","",""
"","","","","","html-button-response","41","365432","0.0-41.0","A46DB62D8462400D9D4D566651697C13","019cf0a8-0541-7b73-b68f-08baf0770e75","019cf037-5203-781a-b900-108ccb1cab86","","1283","
                <div class=""stimulus-container"">
                    <img src=""images/schematic_sequence/supermarket_scheme/supermarket_scheme_2.png"" class=""exp-image"">
                    <div class=""question-area"">
                        <p style=""font-size: 20px; font-weight: bold; margin: 0;"">Is there a person in this image?</p>
                    </div>
                </div>","1","main_experiment_trial","2","supermarket_scheme","schematic_sequence","","","","",""
"","","","","","html-keyboard-response","42","370441","0.0-42.0","A46DB62D8462400D9D4D566651697C13","019cf0a8-0541-7b73-b68f-08baf0770e75","019cf037-5203-781a-b900-108ccb1cab86","","null","
                <div class=""stimulus-container"">
                    <img src=""images/schematic_sequence/supermarket_scheme/supermarket_scheme_3.png"" class=""exp-image"">
                    <div class=""question-area""></div> 
                </div>","null","","","","","","","","",""
"","","","","","html-button-response","43","373452","0.0-43.0","A46DB62D8462400D9D4D566651697C13","019cf0a8-0541-7b73-b68f-08baf0770e75","019cf037-5203-781a-b900-108ccb1cab86","","null","
                <div class=""stimulus-container"">
                    <img src=""images/schematic_sequence/supermarket_scheme/supermarket_scheme_3.png"" class=""exp-image"">
                    <div class=""question-area"">
                        <p style=""font-size: 20px; font-weight: bold; margin: 0;"">Is there a person in this image?</p>
                    </div>
                </div>","null","main_experiment_trial","3","supermarket_scheme","schematic_sequence","","","","",""
"","","","","","html-keyboard-response","44","378466","0.0-44.0","A46DB62D8462400D9D4D566651697C13","019cf0a8-0541-7b73-b68f-08baf0770e75","019cf037-5203-781a-b900-108ccb1cab86","","null","
                <div class=""stimulus-container"">
                    <img src=""images/schematic_sequence/supermarket_scheme/supermarket_scheme_4.png"" class=""exp-image"">
                    <div class=""question-area""></div> 
                </div>","null","","","","","","","","",""
"","","","","","html-button-response","45","379497","0.0-45.0","A46DB62D8462400D9D4D566651697C13","019cf0a8-0541-7b73-b68f-08baf0770e75","019cf037-5203-781a-b900-108ccb1cab86","","1028","
                <div class=""stimulus-container"">
                    <img src=""images/schematic_sequence/supermarket_scheme/supermarket_scheme_4.png"" class=""exp-image"">
                    <div class=""question-area"">
                        <p style=""font-size: 20px; font-weight: bold; margin: 0;"">Is there a person in this image?</p>
                    </div>
                </div>","0","main_experiment_trial","4","supermarket_scheme","schematic_sequence","","","","",""
"","","","","","html-keyboard-response","46","384515","0.0-46.0","A46DB62D8462400D9D4D566651697C13","019cf0a8-0541-7b73-b68f-08baf0770e75","019cf037-5203-781a-b900-108ccb1cab86","","null","
                <div class=""stimulus-container"">
                    <img src=""images/schematic_sequence/supermarket_scheme/supermarket_scheme_5.png"" class=""exp-image"">
                    <div class=""question-area""></div> 
                </div>","null","","","","","","","","",""
"","","","","","html-button-response","47","385361","0.0-47.0","A46DB62D8462400D9D4D566651697C13","019cf0a8-0541-7b73-b68f-08baf0770e75","019cf037-5203-781a-b900-108ccb1cab86","","844","
                <div class=""stimulus-container"">
                    <img src=""images/schematic_sequence/supermarket_scheme/supermarket_scheme_5.png"" class=""exp-image"">
                    <div class=""question-area"">
                        <p style=""font-size: 20px; font-weight: bold; margin: 0;"">Is there a person in this image?</p>
                    </div>
                </div>","1","main_experiment_trial","5","supermarket_scheme","schematic_sequence","","","","",""
"","","","","","html-keyboard-response","48","390376","0.0-48.0","A46DB62D8462400D9D4D566651697C13","019cf0a8-0541-7b73-b68f-08baf0770e75","019cf037-5203-781a-b900-108ccb1cab86","","null","
                <div class=""stimulus-container"">
                    <img src=""images/schematic_sequence/supermarket_scheme/supermarket_scheme_6.png"" class=""exp-image"">
                    <div class=""question-area""></div> 
                </div>","null","","","","","","","","",""
"","","","","","html-button-response","49","391193","0.0-49.0","A46DB62D8462400D9D4D566651697C13","019cf0a8-0541-7b73-b68f-08baf0770e75","019cf037-5203-781a-b900-108ccb1cab86","","814","
                <div class=""stimulus-container"">
                    <img src=""images/schematic_sequence/supermarket_scheme/supermarket_scheme_6.png"" class=""exp-image"">
                    <div class=""question-area"">
                        <p style=""font-size: 20px; font-weight: bold; margin: 0;"">Is there a person in this image?</p>
                    </div>
                </div>","0","main_experiment_trial","6","supermarket_scheme","schematic_sequence","","","","",""
"","","","","","html-keyboard-response","50","396194","0.0-50.0","A46DB62D8462400D9D4D566651697C13","019cf0a8-0541-7b73-b68f-08baf0770e75","019cf037-5203-781a-b900-108ccb1cab86","","null","
                <div class=""stimulus-container"">
                    <img src=""images/schematic_sequence/supermarket_scheme/supermarket_scheme_7.png"" class=""exp-image"">
                    <div class=""question-area""></div> 
                </div>","null","","","","","","","","",""
"","","","","","html-button-response","51","396898","0.0-51.0","A46DB62D8462400D9D4D566651697C13","019cf0a8-0541-7b73-b68f-08baf0770e75","019cf037-5203-781a-b900-108ccb1cab86","","702","
                <div class=""stimulus-container"">
                    <img src=""images/schematic_sequence/supermarket_scheme/supermarket_scheme_7.png"" class=""exp-image"">
                    <div class=""question-area"">
                        <p style=""font-size: 20px; font-weight: bold; margin: 0;"">Is there a person in this image?</p>
                    </div>
                </div>","0","main_experiment_trial","7","supermarket_scheme","schematic_sequence","","","","",""
"","","","","","html-keyboard-response","52","401913","0.0-52.0","A46DB62D8462400D9D4D566651697C13","019cf0a8-0541-7b73-b68f-08baf0770e75","019cf037-5203-781a-b900-108ccb1cab86","","null","
                <div class=""stimulus-container"">
                    <img src=""images/schematic_sequence/supermarket_scheme/supermarket_scheme_8.png"" class=""exp-image"">
                    <div class=""question-area""></div> 
                </div>","null","","","","","","","","",""
"","","","","","html-button-response","53","402608","0.0-53.0","A46DB62D8462400D9D4D566651697C13","019cf0a8-0541-7b73-b68f-08baf0770e75","019cf037-5203-781a-b900-108ccb1cab86","","694","
                <div class=""stimulus-container"">
                    <img src=""images/schematic_sequence/supermarket_scheme/supermarket_scheme_8.png"" class=""exp-image"">
                    <div class=""question-area"">
                        <p style=""font-size: 20px; font-weight: bold; margin: 0;"">Is there a person in this image?</p>
                    </div>
                </div>","0","main_experiment_trial","8","supermarket_scheme","schematic_sequence","","","","",""
"","","","","","html-keyboard-response","54","407613","0.0-54.0","A46DB62D8462400D9D4D566651697C13","019cf0a8-0541-7b73-b68f-08baf0770e75","019cf037-5203-781a-b900-108ccb1cab86","","null","
                <div class=""stimulus-container"">
                    <img src=""images/schematic_sequence/supermarket_scheme/supermarket_scheme_9.png"" class=""exp-image"">
                    <div class=""question-area""></div> 
                </div>","null","","","","","","","","",""
"","","","","","html-button-response","55","408801","0.0-55.0","A46DB62D8462400D9D4D566651697C13","019cf0a8-0541-7b73-b68f-08baf0770e75","019cf037-5203-781a-b900-108ccb1cab86","","1183","
                <div class=""stimulus-container"">
                    <img src=""images/schematic_sequence/supermarket_scheme/supermarket_scheme_9.png"" class=""exp-image"">
                    <div class=""question-area"">
                        <p style=""font-size: 20px; font-weight: bold; margin: 0;"">Is there a person in this image?</p>
                    </div>
                </div>","0","main_experiment_trial","9","supermarket_scheme","schematic_sequence","","","","",""
"","","","","","html-keyboard-response","56","413817","0.0-56.0","A46DB62D8462400D9D4D566651697C13","019cf0a8-0541-7b73-b68f-08baf0770e75","019cf037-5203-781a-b900-108ccb1cab86","","null","
                <div class=""stimulus-container"">
                    <img src=""images/schematic_sequence/supermarket_scheme/supermarket_scheme_ten.png"" class=""exp-image"">
                    <div class=""question-area""></div> 
                </div>","null","","","","","","","","",""
"","","","","","html-button-response","57","414817","0.0-57.0","A46DB62D8462400D9D4D566651697C13","019cf0a8-0541-7b73-b68f-08baf0770e75","019cf037-5203-781a-b900-108ccb1cab86","","998","
                <div class=""stimulus-container"">
                    <img src=""images/schematic_sequence/supermarket_scheme/supermarket_scheme_ten.png"" class=""exp-image"">
                    <div class=""question-area"">
                        <p style=""font-size: 20px; font-weight: bold; margin: 0;"">Is there a person in this image?</p>
                    </div>
                </div>","1","main_experiment_trial","ten","supermarket_scheme","schematic_sequence","","","","",""
"","","","","","html-keyboard-response","58","415819","0.0-58.0","A46DB62D8462400D9D4D566651697C13","019cf0a8-0541-7b73-b68f-08baf0770e75","019cf037-5203-781a-b900-108ccb1cab86","","null","<div style=""background-color: white; width: 100vw; height: 100vh;""></div>","null","","","","","","","","",""
"","","","","","html-keyboard-response","59","420830","0.0-59.0","A46DB62D8462400D9D4D566651697C13","019cf0a8-0541-7b73-b68f-08baf0770e75","019cf037-5203-781a-b900-108ccb1cab86","","null","
                <div class=""stimulus-container"">
                    <img src=""images/causal_sequence/dog_causal/dog_causal_1.png"" class=""exp-image"">
                    <div class=""question-area""></div> 
                </div>","null","","","","","","","","",""
"","","","","","html-button-response","60","421440","0.0-60.0","A46DB62D8462400D9D4D566651697C13","019cf0a8-0541-7b73-b68f-08baf0770e75","019cf037-5203-781a-b900-108ccb1cab86","","605","
                <div class=""stimulus-container"">
                    <img src=""images/causal_sequence/dog_causal/dog_causal_1.png"" class=""exp-image"">
                    <div class=""question-area"">
                        <p style=""font-size: 20px; font-weight: bold; margin: 0;"">Is there a person in this image?</p>
                    </div>
                </div>","0","main_experiment_trial","1","dog_causal","causal_sequence","","","","",""
"","","","","","html-keyboard-response","61","426444","0.0-61.0","A46DB62D8462400D9D4D566651697C13","019cf0a8-0541-7b73-b68f-08baf0770e75","019cf037-5203-781a-b900-108ccb1cab86","","null","
                <div class=""stimulus-container"">
                    <img src=""images/causal_sequence/dog_causal/dog_causal_2.png"" class=""exp-image"">
                    <div class=""question-area""></div> 
                </div>","null","","","","","","","","",""
"","","","","","html-button-response","62","426905","0.0-62.0","A46DB62D8462400D9D4D566651697C13","019cf0a8-0541-7b73-b68f-08baf0770e75","019cf037-5203-781a-b900-108ccb1cab86","","460","
                <div class=""stimulus-container"">
                    <img src=""images/causal_sequence/dog_causal/dog_causal_2.png"" class=""exp-image"">
                    <div class=""question-area"">
                        <p style=""font-size: 20px; font-weight: bold; margin: 0;"">Is there a person in this image?</p>
                    </div>
                </div>","0","main_experiment_trial","2","dog_causal","causal_sequence","","","","",""
"","","","","","html-keyboard-response","63","431910","0.0-63.0","A46DB62D8462400D9D4D566651697C13","019cf0a8-0541-7b73-b68f-08baf0770e75","019cf037-5203-781a-b900-108ccb1cab86","","null","
                <div class=""stimulus-container"">
                    <img src=""images/causal_sequence/dog_causal/dog_causal_3.png"" class=""exp-image"">
                    <div class=""question-area""></div> 
                </div>","null","","","","","","","","",""
"","","","","","html-button-response","64","432593","0.0-64.0","A46DB62D8462400D9D4D566651697C13","019cf0a8-0541-7b73-b68f-08baf0770e75","019cf037-5203-781a-b900-108ccb1cab86","","680","
                <div class=""stimulus-container"">
                    <img src=""images/causal_sequence/dog_causal/dog_causal_3.png"" class=""exp-image"">
                    <div class=""question-area"">
                        <p style=""font-size: 20px; font-weight: bold; margin: 0;"">Is there a person in this image?</p>
                    </div>
                </div>","0","main_experiment_trial","3","dog_causal","causal_sequence","","","","",""
"","","","","","html-keyboard-response","65","437610","0.0-65.0","A46DB62D8462400D9D4D566651697C13","019cf0a8-0541-7b73-b68f-08baf0770e75","019cf037-5203-781a-b900-108ccb1cab86","","null","
                <div class=""stimulus-container"">
                    <img src=""images/causal_sequence/dog_causal/dog_causal_4.png"" class=""exp-image"">
                    <div class=""question-area""></div> 
                </div>","null","","","","","","","","",""
"","","","","","html-button-response","66","438681","0.0-66.0","A46DB62D8462400D9D4D566651697C13","019cf0a8-0541-7b73-b68f-08baf0770e75","019cf037-5203-781a-b900-108ccb1cab86","","1068","
                <div class=""stimulus-container"">
                    <img src=""images/causal_sequence/dog_causal/dog_causal_4.png"" class=""exp-image"">
                    <div class=""question-area"">
                        <p style=""font-size: 20px; font-weight: bold; margin: 0;"">Is there a person in this image?</p>
                    </div>
                </div>","0","main_experiment_trial","4","dog_causal","causal_sequence","","","","",""
"","","","","","html-keyboard-response","67","443688","0.0-67.0","A46DB62D8462400D9D4D566651697C13","019cf0a8-0541-7b73-b68f-08baf0770e75","019cf037-5203-781a-b900-108ccb1cab86","","null","
                <div class=""stimulus-container"">
                    <img src=""images/causal_sequence/dog_causal/dog_causal_5.png"" class=""exp-image"">
                    <div class=""question-area""></div> 
                </div>","null","","","","","","","","",""
"","","","","","html-button-response","68","444416","0.0-68.0","A46DB62D8462400D9D4D566651697C13","019cf0a8-0541-7b73-b68f-08baf0770e75","019cf037-5203-781a-b900-108ccb1cab86","","726","
                <div class=""stimulus-container"">
                    <img src=""images/causal_sequence/dog_causal/dog_causal_5.png"" class=""exp-image"">
                    <div class=""question-area"">
                        <p style=""font-size: 20px; font-weight: bold; margin: 0;"">Is there a person in this image?</p>
                    </div>
                </div>","0","main_experiment_trial","5","dog_causal","causal_sequence","","","","",""
"","","","","","html-keyboard-response","69","449420","0.0-69.0","A46DB62D8462400D9D4D566651697C13","019cf0a8-0541-7b73-b68f-08baf0770e75","019cf037-5203-781a-b900-108ccb1cab86","","null","
                <div class=""stimulus-container"">
                    <img src=""images/causal_sequence/dog_causal/dog_causal_6.png"" class=""exp-image"">
                    <div class=""question-area""></div> 
                </div>","null","","","","","","","","",""
"","","","","","html-button-response","70","450425","0.0-70.0","A46DB62D8462400D9D4D566651697C13","019cf0a8-0541-7b73-b68f-08baf0770e75","019cf037-5203-781a-b900-108ccb1cab86","","1002","
                <div class=""stimulus-container"">
                    <img src=""images/causal_sequence/dog_causal/dog_causal_6.png"" class=""exp-image"">
                    <div class=""question-area"">
                        <p style=""font-size: 20px; font-weight: bold; margin: 0;"">Is there a person in this image?</p>
                    </div>
                </div>","0","main_experiment_trial","6","dog_causal","causal_sequence","","","","",""
"","","","","","html-keyboard-response","71","455441","0.0-71.0","A46DB62D8462400D9D4D566651697C13","019cf0a8-0541-7b73-b68f-08baf0770e75","019cf037-5203-781a-b900-108ccb1cab86","","null","
                <div class=""stimulus-container"">
                    <img src=""images/causal_sequence/dog_causal/dog_causal_7.png"" class=""exp-image"">
                    <div class=""question-area""></div> 
                </div>","null","","","","","","","","",""
"","","","","","html-button-response","72","456161","0.0-72.0","A46DB62D8462400D9D4D566651697C13","019cf0a8-0541-7b73-b68f-08baf0770e75","019cf037-5203-781a-b900-108ccb1cab86","","718","
                <div class=""stimulus-container"">
                    <img src=""images/causal_sequence/dog_causal/dog_causal_7.png"" class=""exp-image"">
                    <div class=""question-area"">
                        <p style=""font-size: 20px; font-weight: bold; margin: 0;"">Is there a person in this image?</p>
                    </div>
                </div>","0","main_experiment_trial","7","dog_causal","causal_sequence","","","","",""
"","","","","","html-keyboard-response","73","461165","0.0-73.0","A46DB62D8462400D9D4D566651697C13","019cf0a8-0541-7b73-b68f-08baf0770e75","019cf037-5203-781a-b900-108ccb1cab86","","null","
                <div class=""stimulus-container"">
                    <img src=""images/causal_sequence/dog_causal/dog_causal_8.png"" class=""exp-image"">
                    <div class=""question-area""></div> 
                </div>","null","","","","","","","","",""
"","","","","","html-button-response","74","462208","0.0-74.0","A46DB62D8462400D9D4D566651697C13","019cf0a8-0541-7b73-b68f-08baf0770e75","019cf037-5203-781a-b900-108ccb1cab86","","1040","
                <div class=""stimulus-container"">
                    <img src=""images/causal_sequence/dog_causal/dog_causal_8.png"" class=""exp-image"">
                    <div class=""question-area"">
                        <p style=""font-size: 20px; font-weight: bold; margin: 0;"">Is there a person in this image?</p>
                    </div>
                </div>","0","main_experiment_trial","8","dog_causal","causal_sequence","","","","",""
"","","","","","html-keyboard-response","75","467220","0.0-75.0","A46DB62D8462400D9D4D566651697C13","019cf0a8-0541-7b73-b68f-08baf0770e75","019cf037-5203-781a-b900-108ccb1cab86","","null","
                <div class=""stimulus-container"">
                    <img src=""images/causal_sequence/dog_causal/dog_causal_9.png"" class=""exp-image"">
                    <div class=""question-area""></div> 
                </div>","null","","","","","","","","",""
"","","","","","html-button-response","76","468281","0.0-76.0","A46DB62D8462400D9D4D566651697C13","019cf0a8-0541-7b73-b68f-08baf0770e75","019cf037-5203-781a-b900-108ccb1cab86","","1057","
                <div class=""stimulus-container"">
                    <img src=""images/causal_sequence/dog_causal/dog_causal_9.png"" class=""exp-image"">
                    <div class=""question-area"">
                        <p style=""font-size: 20px; font-weight: bold; margin: 0;"">Is there a person in this image?</p>
                    </div>
                </div>","0","main_experiment_trial","9","dog_causal","causal_sequence","","","","",""
"","","","","","html-keyboard-response","77","473289","0.0-77.0","A46DB62D8462400D9D4D566651697C13","019cf0a8-0541-7b73-b68f-08baf0770e75","019cf037-5203-781a-b900-108ccb1cab86","","null","
                <div class=""stimulus-container"">
                    <img src=""images/causal_sequence/dog_causal/dog_causal_ten.png"" class=""exp-image"">
                    <div class=""question-area""></div> 
                </div>","null","","","","","","","","",""
"","","","","","html-button-response","78","473817","0.0-78.0","A46DB62D8462400D9D4D566651697C13","019cf0a8-0541-7b73-b68f-08baf0770e75","019cf037-5203-781a-b900-108ccb1cab86","","527","
                <div class=""stimulus-container"">
                    <img src=""images/causal_sequence/dog_causal/dog_causal_ten.png"" class=""exp-image"">
                    <div class=""question-area"">
                        <p style=""font-size: 20px; font-weight: bold; margin: 0;"">Is there a person in this image?</p>
                    </div>
                </div>","0","main_experiment_trial","ten","dog_causal","causal_sequence","","","","",""
"","","","","","html-keyboard-response","79","474833","0.0-79.0","A46DB62D8462400D9D4D566651697C13","019cf0a8-0541-7b73-b68f-08baf0770e75","019cf037-5203-781a-b900-108ccb1cab86","","null","<div style=""background-color: white; width: 100vw; height: 100vh;""></div>","null","","","","","","","","",""
"","","","","","html-keyboard-response","80","479839","0.0-80.0","A46DB62D8462400D9D4D566651697C13","019cf0a8-0541-7b73-b68f-08baf0770e75","019cf037-5203-781a-b900-108ccb1cab86","","null","
                <div class=""stimulus-container"">
                    <img src=""images/causal_sequence/saving_a_cat_causal/saving_a_cat_causal_1.png"" class=""exp-image"">
                    <div class=""question-area""></div> 
                </div>","null","","","","","","","","",""
"","","","","","html-button-response","81","480624","0.0-81.0","A46DB62D8462400D9D4D566651697C13","019cf0a8-0541-7b73-b68f-08baf0770e75","019cf037-5203-781a-b900-108ccb1cab86","","783","
                <div class=""stimulus-container"">
                    <img src=""images/causal_sequence/saving_a_cat_causal/saving_a_cat_causal_1.png"" class=""exp-image"">
                    <div class=""question-area"">
                        <p style=""font-size: 20px; font-weight: bold; margin: 0;"">Is there a person in this image?</p>
                    </div>
                </div>","0","main_experiment_trial","1","saving_a_cat_causal","causal_sequence","","","","",""
"","","","","","html-keyboard-response","82","485630","0.0-82.0","A46DB62D8462400D9D4D566651697C13","019cf0a8-0541-7b73-b68f-08baf0770e75","019cf037-5203-781a-b900-108ccb1cab86","","null","
                <div class=""stimulus-container"">
                    <img src=""images/causal_sequence/saving_a_cat_causal/saving_a_cat_causal_2.png"" class=""exp-image"">
                    <div class=""question-area""></div> 
                </div>","null","","","","","","","","",""
"","","","","","html-button-response","83","486817","0.0-83.0","A46DB62D8462400D9D4D566651697C13","019cf0a8-0541-7b73-b68f-08baf0770e75","019cf037-5203-781a-b900-108ccb1cab86","","1186","
                <div class=""stimulus-container"">
                    <img src=""images/causal_sequence/saving_a_cat_causal/saving_a_cat_causal_2.png"" class=""exp-image"">
                    <div class=""question-area"">
                        <p style=""font-size: 20px; font-weight: bold; margin: 0;"">Is there a person in this image?</p>
                    </div>
                </div>","1","main_experiment_trial","2","saving_a_cat_causal","causal_sequence","","","","",""
"","","","","","html-keyboard-response","84","491829","0.0-84.0","A46DB62D8462400D9D4D566651697C13","019cf0a8-0541-7b73-b68f-08baf0770e75","019cf037-5203-781a-b900-108ccb1cab86","","null","
                <div class=""stimulus-container"">
                    <img src=""images/causal_sequence/saving_a_cat_causal/saving_a_cat_causal_3.png"" class=""exp-image"">
                    <div class=""question-area""></div> 
                </div>","null","","","","","","","","",""
"","","","","","html-button-response","85","493033","0.0-85.0","A46DB62D8462400D9D4D566651697C13","019cf0a8-0541-7b73-b68f-08baf0770e75","019cf037-5203-781a-b900-108ccb1cab86","","1201","
                <div class=""stimulus-container"">
                    <img src=""images/causal_sequence/saving_a_cat_causal/saving_a_cat_causal_3.png"" class=""exp-image"">
                    <div class=""question-area"">
                        <p style=""font-size: 20px; font-weight: bold; margin: 0;"">Is there a person in this image?</p>
                    </div>
                </div>","1","main_experiment_trial","3","saving_a_cat_causal","causal_sequence","","","","",""
"","","","","","html-keyboard-response","86","498043","0.0-86.0","A46DB62D8462400D9D4D566651697C13","019cf0a8-0541-7b73-b68f-08baf0770e75","019cf037-5203-781a-b900-108ccb1cab86","","null","
                <div class=""stimulus-container"">
                    <img src=""images/causal_sequence/saving_a_cat_causal/saving_a_cat_causal_4.png"" class=""exp-image"">
                    <div class=""question-area""></div> 
                </div>","null","","","","","","","","",""
"","","","","","html-button-response","87","499288","0.0-87.0","A46DB62D8462400D9D4D566651697C13","019cf0a8-0541-7b73-b68f-08baf0770e75","019cf037-5203-781a-b900-108ccb1cab86","","1243","
                <div class=""stimulus-container"">
                    <img src=""images/causal_sequence/saving_a_cat_causal/saving_a_cat_causal_4.png"" class=""exp-image"">
                    <div class=""question-area"">
                        <p style=""font-size: 20px; font-weight: bold; margin: 0;"">Is there a person in this image?</p>
                    </div>
                </div>","0","main_experiment_trial","4","saving_a_cat_causal","causal_sequence","","","","",""
"","","","","","html-keyboard-response","88","504296","0.0-88.0","A46DB62D8462400D9D4D566651697C13","019cf0a8-0541-7b73-b68f-08baf0770e75","019cf037-5203-781a-b900-108ccb1cab86","","null","
                <div class=""stimulus-container"">
                    <img src=""images/causal_sequence/saving_a_cat_causal/saving_a_cat_causal_5.png"" class=""exp-image"">
                    <div class=""question-area""></div> 
                </div>","null","","","","","","","","",""
"","","","","","html-button-response","89","505440","0.0-89.0","A46DB62D8462400D9D4D566651697C13","019cf0a8-0541-7b73-b68f-08baf0770e75","019cf037-5203-781a-b900-108ccb1cab86","","1142","
                <div class=""stimulus-container"">
                    <img src=""images/causal_sequence/saving_a_cat_causal/saving_a_cat_causal_5.png"" class=""exp-image"">
                    <div class=""question-area"">
                        <p style=""font-size: 20px; font-weight: bold; margin: 0;"">Is there a person in this image?</p>
                    </div>
                </div>","0","main_experiment_trial","5","saving_a_cat_causal","causal_sequence","","","","",""
"","","","","","html-keyboard-response","90","510452","0.0-90.0","A46DB62D8462400D9D4D566651697C13","019cf0a8-0541-7b73-b68f-08baf0770e75","019cf037-5203-781a-b900-108ccb1cab86","","null","
                <div class=""stimulus-container"">
                    <img src=""images/causal_sequence/saving_a_cat_causal/saving_a_cat_causal_6.png"" class=""exp-image"">
                    <div class=""question-area""></div> 
                </div>","null","","","","","","","","",""
"","","","","","html-button-response","91","511977","0.0-91.0","A46DB62D8462400D9D4D566651697C13","019cf0a8-0541-7b73-b68f-08baf0770e75","019cf037-5203-781a-b900-108ccb1cab86","","1521","
                <div class=""stimulus-container"">
                    <img src=""images/causal_sequence/saving_a_cat_causal/saving_a_cat_causal_6.png"" class=""exp-image"">
                    <div class=""question-area"">
                        <p style=""font-size: 20px; font-weight: bold; margin: 0;"">Is there a person in this image?</p>
                    </div>
                </div>","0","main_experiment_trial","6","saving_a_cat_causal","causal_sequence","","","","",""
"","","","","","html-keyboard-response","92","516994","0.0-92.0","A46DB62D8462400D9D4D566651697C13","019cf0a8-0541-7b73-b68f-08baf0770e75","019cf037-5203-781a-b900-108ccb1cab86","","null","
                <div class=""stimulus-container"">
                    <img src=""images/causal_sequence/saving_a_cat_causal/saving_a_cat_causal_7.png"" class=""exp-image"">
                    <div class=""question-area""></div> 
                </div>","null","","","","","","","","",""
"","","","","","html-button-response","93","517657","0.0-93.0","A46DB62D8462400D9D4D566651697C13","019cf0a8-0541-7b73-b68f-08baf0770e75","019cf037-5203-781a-b900-108ccb1cab86","","661","
                <div class=""stimulus-container"">
                    <img src=""images/causal_sequence/saving_a_cat_causal/saving_a_cat_causal_7.png"" class=""exp-image"">
                    <div class=""question-area"">
                        <p style=""font-size: 20px; font-weight: bold; margin: 0;"">Is there a person in this image?</p>
                    </div>
                </div>","0","main_experiment_trial","7","saving_a_cat_causal","causal_sequence","","","","",""
"","","","","","html-keyboard-response","94","522674","0.0-94.0","A46DB62D8462400D9D4D566651697C13","019cf0a8-0541-7b73-b68f-08baf0770e75","019cf037-5203-781a-b900-108ccb1cab86","","null","
                <div class=""stimulus-container"">
                    <img src=""images/causal_sequence/saving_a_cat_causal/saving_a_cat_causal_8.png"" class=""exp-image"">
                    <div class=""question-area""></div> 
                </div>","null","","","","","","","","",""
"","","","","","html-button-response","95","523697","0.0-95.0","A46DB62D8462400D9D4D566651697C13","019cf0a8-0541-7b73-b68f-08baf0770e75","019cf037-5203-781a-b900-108ccb1cab86","","1019","
                <div class=""stimulus-container"">
                    <img src=""images/causal_sequence/saving_a_cat_causal/saving_a_cat_causal_8.png"" class=""exp-image"">
                    <div class=""question-area"">
                        <p style=""font-size: 20px; font-weight: bold; margin: 0;"">Is there a person in this image?</p>
                    </div>
                </div>","0","main_experiment_trial","8","saving_a_cat_causal","causal_sequence","","","","",""
"","","","","","html-keyboard-response","96","528712","0.0-96.0","A46DB62D8462400D9D4D566651697C13","019cf0a8-0541-7b73-b68f-08baf0770e75","019cf037-5203-781a-b900-108ccb1cab86","","null","
                <div class=""stimulus-container"">
                    <img src=""images/causal_sequence/saving_a_cat_causal/saving_a_cat_causal_9.png"" class=""exp-image"">
                    <div class=""question-area""></div> 
                </div>","null","","","","","","","","",""
"","","","","","html-button-response","97","529561","0.0-97.0","A46DB62D8462400D9D4D566651697C13","019cf0a8-0541-7b73-b68f-08baf0770e75","019cf037-5203-781a-b900-108ccb1cab86","","847","
                <div class=""stimulus-container"">
                    <img src=""images/causal_sequence/saving_a_cat_causal/saving_a_cat_causal_9.png"" class=""exp-image"">
                    <div class=""question-area"">
                        <p style=""font-size: 20px; font-weight: bold; margin: 0;"">Is there a person in this image?</p>
                    </div>
                </div>","0","main_experiment_trial","9","saving_a_cat_causal","causal_sequence","","","","",""
"","","","","","html-keyboard-response","98","534567","0.0-98.0","A46DB62D8462400D9D4D566651697C13","019cf0a8-0541-7b73-b68f-08baf0770e75","019cf037-5203-781a-b900-108ccb1cab86","","null","
                <div class=""stimulus-container"">
                    <img src=""images/causal_sequence/saving_a_cat_causal/saving_a_cat_causal_ten.png"" class=""exp-image"">
                    <div class=""question-area""></div> 
                </div>","null","","","","","","","","",""
"","","","","","html-button-response","99","535321","0.0-99.0","A46DB62D8462400D9D4D566651697C13","019cf0a8-0541-7b73-b68f-08baf0770e75","019cf037-5203-781a-b900-108ccb1cab86","","750","
                <div class=""stimulus-container"">
                    <img src=""images/causal_sequence/saving_a_cat_causal/saving_a_cat_causal_ten.png"" class=""exp-image"">
                    <div class=""question-area"">
                        <p style=""font-size: 20px; font-weight: bold; margin: 0;"">Is there a person in this image?</p>
                    </div>
                </div>","0","main_experiment_trial","ten","saving_a_cat_causal","causal_sequence","","","","",""
"","","","","","html-keyboard-response","100","536326","0.0-100.0","A46DB62D8462400D9D4D566651697C13","019cf0a8-0541-7b73-b68f-08baf0770e75","019cf037-5203-781a-b900-108ccb1cab86","","null","<div style=""background-color: white; width: 100vw; height: 100vh;""></div>","null","","","","","","","","",""
"","","","","","html-keyboard-response","101","541347","0.0-101.0","A46DB62D8462400D9D4D566651697C13","019cf0a8-0541-7b73-b68f-08baf0770e75","019cf037-5203-781a-b900-108ccb1cab86","","null","
                <div class=""stimulus-container"">
                    <img src=""images/schematic_sequence/interview_scheme/interview_scheme_1.png"" class=""exp-image"">
                    <div class=""question-area""></div> 
                </div>","null","","","","","","","","",""
"","","","","","html-button-response","102","542017","0.0-102.0","A46DB62D8462400D9D4D566651697C13","019cf0a8-0541-7b73-b68f-08baf0770e75","019cf037-5203-781a-b900-108ccb1cab86","","666","
                <div class=""stimulus-container"">
                    <img src=""images/schematic_sequence/interview_scheme/interview_scheme_1.png"" class=""exp-image"">
                    <div class=""question-area"">
                        <p style=""font-size: 20px; font-weight: bold; margin: 0;"">Is there a person in this image?</p>
                    </div>
                </div>","1","main_experiment_trial","1","interview_scheme","schematic_sequence","","","","",""
"","","","","","html-keyboard-response","103","547030","0.0-103.0","A46DB62D8462400D9D4D566651697C13","019cf0a8-0541-7b73-b68f-08baf0770e75","019cf037-5203-781a-b900-108ccb1cab86","","null","
                <div class=""stimulus-container"">
                    <img src=""images/schematic_sequence/interview_scheme/interview_scheme_2.png"" class=""exp-image"">
                    <div class=""question-area""></div> 
                </div>","null","","","","","","","","",""
"","","","","","html-button-response","104","547688","0.0-104.0","A46DB62D8462400D9D4D566651697C13","019cf0a8-0541-7b73-b68f-08baf0770e75","019cf037-5203-781a-b900-108ccb1cab86","","656","
                <div class=""stimulus-container"">
                    <img src=""images/schematic_sequence/interview_scheme/interview_scheme_2.png"" class=""exp-image"">
                    <div class=""question-area"">
                        <p style=""font-size: 20px; font-weight: bold; margin: 0;"">Is there a person in this image?</p>
                    </div>
                </div>","1","main_experiment_trial","2","interview_scheme","schematic_sequence","","","","",""
"","","","","","html-keyboard-response","105","552691","0.0-105.0","A46DB62D8462400D9D4D566651697C13","019cf0a8-0541-7b73-b68f-08baf0770e75","019cf037-5203-781a-b900-108ccb1cab86","","null","
                <div class=""stimulus-container"">
                    <img src=""images/schematic_sequence/interview_scheme/interview_scheme_3.png"" class=""exp-image"">
                    <div class=""question-area""></div> 
                </div>","null","","","","","","","","",""
"","","","","","html-button-response","106","553992","0.0-106.0","A46DB62D8462400D9D4D566651697C13","019cf0a8-0541-7b73-b68f-08baf0770e75","019cf037-5203-781a-b900-108ccb1cab86","","1298","
                <div class=""stimulus-container"">
                    <img src=""images/schematic_sequence/interview_scheme/interview_scheme_3.png"" class=""exp-image"">
                    <div class=""question-area"">
                        <p style=""font-size: 20px; font-weight: bold; margin: 0;"">Is there a person in this image?</p>
                    </div>
                </div>","1","main_experiment_trial","3","interview_scheme","schematic_sequence","","","","",""
"","","","","","html-keyboard-response","107","559010","0.0-107.0","A46DB62D8462400D9D4D566651697C13","019cf0a8-0541-7b73-b68f-08baf0770e75","019cf037-5203-781a-b900-108ccb1cab86","","null","
                <div class=""stimulus-container"">
                    <img src=""images/schematic_sequence/interview_scheme/interview_scheme_4.png"" class=""exp-image"">
                    <div class=""question-area""></div> 
                </div>","null","","","","","","","","",""
"","","","","","html-button-response","108","559665","0.0-108.0","A46DB62D8462400D9D4D566651697C13","019cf0a8-0541-7b73-b68f-08baf0770e75","019cf037-5203-781a-b900-108ccb1cab86","","652","
                <div class=""stimulus-container"">
                    <img src=""images/schematic_sequence/interview_scheme/interview_scheme_4.png"" class=""exp-image"">
                    <div class=""question-area"">
                        <p style=""font-size: 20px; font-weight: bold; margin: 0;"">Is there a person in this image?</p>
                    </div>
                </div>","1","main_experiment_trial","4","interview_scheme","schematic_sequence","","","","",""
"","","","","","html-keyboard-response","109","564670","0.0-109.0","A46DB62D8462400D9D4D566651697C13","019cf0a8-0541-7b73-b68f-08baf0770e75","019cf037-5203-781a-b900-108ccb1cab86","","null","
                <div class=""stimulus-container"">
                    <img src=""images/schematic_sequence/interview_scheme/interview_scheme_5.png"" class=""exp-image"">
                    <div class=""question-area""></div> 
                </div>","null","","","","","","","","",""
"","","","","","html-button-response","110","565737","0.0-110.0","A46DB62D8462400D9D4D566651697C13","019cf0a8-0541-7b73-b68f-08baf0770e75","019cf037-5203-781a-b900-108ccb1cab86","","1063","
                <div class=""stimulus-container"">
                    <img src=""images/schematic_sequence/interview_scheme/interview_scheme_5.png"" class=""exp-image"">
                    <div class=""question-area"">
                        <p style=""font-size: 20px; font-weight: bold; margin: 0;"">Is there a person in this image?</p>
                    </div>
                </div>","0","main_experiment_trial","5","interview_scheme","schematic_sequence","","","","",""
"","","","","","html-keyboard-response","111","570744","0.0-111.0","A46DB62D8462400D9D4D566651697C13","019cf0a8-0541-7b73-b68f-08baf0770e75","019cf037-5203-781a-b900-108ccb1cab86","","null","
                <div class=""stimulus-container"">
                    <img src=""images/schematic_sequence/interview_scheme/interview_scheme_6.png"" class=""exp-image"">
                    <div class=""question-area""></div> 
                </div>","null","","","","","","","","",""
"","","","","","html-button-response","112","572073","0.0-112.0","A46DB62D8462400D9D4D566651697C13","019cf0a8-0541-7b73-b68f-08baf0770e75","019cf037-5203-781a-b900-108ccb1cab86","","1325","
                <div class=""stimulus-container"">
                    <img src=""images/schematic_sequence/interview_scheme/interview_scheme_6.png"" class=""exp-image"">
                    <div class=""question-area"">
                        <p style=""font-size: 20px; font-weight: bold; margin: 0;"">Is there a person in this image?</p>
                    </div>
                </div>","0","main_experiment_trial","6","interview_scheme","schematic_sequence","","","","",""
"","","","","","html-keyboard-response","113","577082","0.0-113.0","A46DB62D8462400D9D4D566651697C13","019cf0a8-0541-7b73-b68f-08baf0770e75","019cf037-5203-781a-b900-108ccb1cab86","","null","
                <div class=""stimulus-container"">
                    <img src=""images/schematic_sequence/interview_scheme/interview_scheme_7.png"" class=""exp-image"">
                    <div class=""question-area""></div> 
                </div>","null","","","","","","","","",""
"","","","","","html-button-response","114","577760","0.0-114.0","A46DB62D8462400D9D4D566651697C13","019cf0a8-0541-7b73-b68f-08baf0770e75","019cf037-5203-781a-b900-108ccb1cab86","","676","
                <div class=""stimulus-container"">
                    <img src=""images/schematic_sequence/interview_scheme/interview_scheme_7.png"" class=""exp-image"">
                    <div class=""question-area"">
                        <p style=""font-size: 20px; font-weight: bold; margin: 0;"">Is there a person in this image?</p>
                    </div>
                </div>","0","main_experiment_trial","7","interview_scheme","schematic_sequence","","","","",""
"","","","","","html-keyboard-response","115","582772","0.0-115.0","A46DB62D8462400D9D4D566651697C13","019cf0a8-0541-7b73-b68f-08baf0770e75","019cf037-5203-781a-b900-108ccb1cab86","","null","
                <div class=""stimulus-container"">
                    <img src=""images/schematic_sequence/interview_scheme/interview_scheme_8.png"" class=""exp-image"">
                    <div class=""question-area""></div> 
                </div>","null","","","","","","","","",""
"","","","","","html-button-response","116","583361","0.0-116.0","A46DB62D8462400D9D4D566651697C13","019cf0a8-0541-7b73-b68f-08baf0770e75","019cf037-5203-781a-b900-108ccb1cab86","","586","
                <div class=""stimulus-container"">
                    <img src=""images/schematic_sequence/interview_scheme/interview_scheme_8.png"" class=""exp-image"">
                    <div class=""question-area"">
                        <p style=""font-size: 20px; font-weight: bold; margin: 0;"">Is there a person in this image?</p>
                    </div>
                </div>","0","main_experiment_trial","8","interview_scheme","schematic_sequence","","","","",""
"","","","","","html-keyboard-response","117","588375","0.0-117.0","A46DB62D8462400D9D4D566651697C13","019cf0a8-0541-7b73-b68f-08baf0770e75","019cf037-5203-781a-b900-108ccb1cab86","","null","
                <div class=""stimulus-container"">
                    <img src=""images/schematic_sequence/interview_scheme/interview_scheme_9.png"" class=""exp-image"">
                    <div class=""question-area""></div> 
                </div>","null","","","","","","","","",""
"","","","","","html-button-response","118","588928","0.0-118.0","A46DB62D8462400D9D4D566651697C13","019cf0a8-0541-7b73-b68f-08baf0770e75","019cf037-5203-781a-b900-108ccb1cab86","","550","
                <div class=""stimulus-container"">
                    <img src=""images/schematic_sequence/interview_scheme/interview_scheme_9.png"" class=""exp-image"">
                    <div class=""question-area"">
                        <p style=""font-size: 20px; font-weight: bold; margin: 0;"">Is there a person in this image?</p>
                    </div>
                </div>","0","main_experiment_trial","9","interview_scheme","schematic_sequence","","","","",""
"","","","","","html-keyboard-response","119","593939","0.0-119.0","A46DB62D8462400D9D4D566651697C13","019cf0a8-0541-7b73-b68f-08baf0770e75","019cf037-5203-781a-b900-108ccb1cab86","","null","
                <div class=""stimulus-container"">
                    <img src=""images/schematic_sequence/interview_scheme/interview_scheme_ten.png"" class=""exp-image"">
                    <div class=""question-area""></div> 
                </div>","null","","","","","","","","",""
"","","","","","html-button-response","120","595129","0.0-120.0","A46DB62D8462400D9D4D566651697C13","019cf0a8-0541-7b73-b68f-08baf0770e75","019cf037-5203-781a-b900-108ccb1cab86","","1187","
                <div class=""stimulus-container"">
                    <img src=""images/schematic_sequence/interview_scheme/interview_scheme_ten.png"" class=""exp-image"">
                    <div class=""question-area"">
                        <p style=""font-size: 20px; font-weight: bold; margin: 0;"">Is there a person in this image?</p>
                    </div>
                </div>","0","main_experiment_trial","ten","interview_scheme","schematic_sequence","","","","",""
"","","","","","html-keyboard-response","121","596133","0.0-121.0","A46DB62D8462400D9D4D566651697C13","019cf0a8-0541-7b73-b68f-08baf0770e75","019cf037-5203-781a-b900-108ccb1cab86","","null","<div style=""background-color: white; width: 100vw; height: 100vh;""></div>","null","","","","","","","","",""
"","","","","","html-keyboard-response","122","601148","0.0-122.0","A46DB62D8462400D9D4D566651697C13","019cf0a8-0541-7b73-b68f-08baf0770e75","019cf037-5203-781a-b900-108ccb1cab86","","null","
                <div class=""stimulus-container"">
                    <img src=""images/causal_sequence/coin_causal/coin_causal_1.png"" class=""exp-image"">
                    <div class=""question-area""></div> 
                </div>","null","","","","","","","","",""
"","","","","","html-button-response","123","601971","0.0-123.0","A46DB62D8462400D9D4D566651697C13","019cf0a8-0541-7b73-b68f-08baf0770e75","019cf037-5203-781a-b900-108ccb1cab86","","820","
                <div class=""stimulus-container"">
                    <img src=""images/causal_sequence/coin_causal/coin_causal_1.png"" class=""exp-image"">
                    <div class=""question-area"">
                        <p style=""font-size: 20px; font-weight: bold; margin: 0;"">Is there a person in this image?</p>
                    </div>
                </div>","0","main_experiment_trial","1","coin_causal","causal_sequence","","","","",""
"","","","","","html-keyboard-response","124","606975","0.0-124.0","A46DB62D8462400D9D4D566651697C13","019cf0a8-0541-7b73-b68f-08baf0770e75","019cf037-5203-781a-b900-108ccb1cab86","","null","
                <div class=""stimulus-container"">
                    <img src=""images/causal_sequence/coin_causal/coin_causal_2.png"" class=""exp-image"">
                    <div class=""question-area""></div> 
                </div>","null","","","","","","","","",""
"","","","","","html-button-response","125","607457","0.0-125.0","A46DB62D8462400D9D4D566651697C13","019cf0a8-0541-7b73-b68f-08baf0770e75","019cf037-5203-781a-b900-108ccb1cab86","","479","
                <div class=""stimulus-container"">
                    <img src=""images/causal_sequence/coin_causal/coin_causal_2.png"" class=""exp-image"">
                    <div class=""question-area"">
                        <p style=""font-size: 20px; font-weight: bold; margin: 0;"">Is there a person in this image?</p>
                    </div>
                </div>","0","main_experiment_trial","2","coin_causal","causal_sequence","","","","",""
"","","","","","html-keyboard-response","126","612471","0.0-126.0","A46DB62D8462400D9D4D566651697C13","019cf0a8-0541-7b73-b68f-08baf0770e75","019cf037-5203-781a-b900-108ccb1cab86","","null","
                <div class=""stimulus-container"">
                    <img src=""images/causal_sequence/coin_causal/coin_causal_3.png"" class=""exp-image"">
                    <div class=""question-area""></div> 
                </div>","null","","","","","","","","",""
"","","","","","html-button-response","127","613584","0.0-127.0","A46DB62D8462400D9D4D566651697C13","019cf0a8-0541-7b73-b68f-08baf0770e75","019cf037-5203-781a-b900-108ccb1cab86","","1110","
                <div class=""stimulus-container"">
                    <img src=""images/causal_sequence/coin_causal/coin_causal_3.png"" class=""exp-image"">
                    <div class=""question-area"">
                        <p style=""font-size: 20px; font-weight: bold; margin: 0;"">Is there a person in this image?</p>
                    </div>
                </div>","0","main_experiment_trial","3","coin_causal","causal_sequence","","","","",""
"","","","","","html-keyboard-response","128","618593","0.0-128.0","A46DB62D8462400D9D4D566651697C13","019cf0a8-0541-7b73-b68f-08baf0770e75","019cf037-5203-781a-b900-108ccb1cab86","","null","
                <div class=""stimulus-container"">
                    <img src=""images/causal_sequence/coin_causal/coin_causal_4.png"" class=""exp-image"">
                    <div class=""question-area""></div> 
                </div>","null","","","","","","","","",""
"","","","","","html-button-response","129","619160","0.0-129.0","A46DB62D8462400D9D4D566651697C13","019cf0a8-0541-7b73-b68f-08baf0770e75","019cf037-5203-781a-b900-108ccb1cab86","","565","
                <div class=""stimulus-container"">
                    <img src=""images/causal_sequence/coin_causal/coin_causal_4.png"" class=""exp-image"">
                    <div class=""question-area"">
                        <p style=""font-size: 20px; font-weight: bold; margin: 0;"">Is there a person in this image?</p>
                    </div>
                </div>","0","main_experiment_trial","4","coin_causal","causal_sequence","","","","",""
"","","","","","html-keyboard-response","130","624173","0.0-130.0","A46DB62D8462400D9D4D566651697C13","019cf0a8-0541-7b73-b68f-08baf0770e75","019cf037-5203-781a-b900-108ccb1cab86","","null","
                <div class=""stimulus-container"">
                    <img src=""images/causal_sequence/coin_causal/coin_causal_5.png"" class=""exp-image"">
                    <div class=""question-area""></div> 
                </div>","null","","","","","","","","",""
"","","","","","html-button-response","131","624672","0.0-131.0","A46DB62D8462400D9D4D566651697C13","019cf0a8-0541-7b73-b68f-08baf0770e75","019cf037-5203-781a-b900-108ccb1cab86","","495","
                <div class=""stimulus-container"">
                    <img src=""images/causal_sequence/coin_causal/coin_causal_5.png"" class=""exp-image"">
                    <div class=""question-area"">
                        <p style=""font-size: 20px; font-weight: bold; margin: 0;"">Is there a person in this image?</p>
                    </div>
                </div>","0","main_experiment_trial","5","coin_causal","causal_sequence","","","","",""
"","","","","","html-keyboard-response","132","629675","0.0-132.0","A46DB62D8462400D9D4D566651697C13","019cf0a8-0541-7b73-b68f-08baf0770e75","019cf037-5203-781a-b900-108ccb1cab86","","null","
                <div class=""stimulus-container"">
                    <img src=""images/causal_sequence/coin_causal/coin_causal_6.png"" class=""exp-image"">
                    <div class=""question-area""></div> 
                </div>","null","","","","","","","","",""
"","","","","","html-button-response","133","630081","0.0-133.0","A46DB62D8462400D9D4D566651697C13","019cf0a8-0541-7b73-b68f-08baf0770e75","019cf037-5203-781a-b900-108ccb1cab86","","402","
                <div class=""stimulus-container"">
                    <img src=""images/causal_sequence/coin_causal/coin_causal_6.png"" class=""exp-image"">
                    <div class=""question-area"">
                        <p style=""font-size: 20px; font-weight: bold; margin: 0;"">Is there a person in this image?</p>
                    </div>
                </div>","0","main_experiment_trial","6","coin_causal","causal_sequence","","","","",""
"","","","","","html-keyboard-response","134","635083","0.0-134.0","A46DB62D8462400D9D4D566651697C13","019cf0a8-0541-7b73-b68f-08baf0770e75","019cf037-5203-781a-b900-108ccb1cab86","","null","
                <div class=""stimulus-container"">
                    <img src=""images/causal_sequence/coin_causal/coin_causal_7.png"" class=""exp-image"">
                    <div class=""question-area""></div> 
                </div>","null","","","","","","","","",""
"","","","","","html-button-response","135","635777","0.0-135.0","A46DB62D8462400D9D4D566651697C13","019cf0a8-0541-7b73-b68f-08baf0770e75","019cf037-5203-781a-b900-108ccb1cab86","","692","
                <div class=""stimulus-container"">
                    <img src=""images/causal_sequence/coin_causal/coin_causal_7.png"" class=""exp-image"">
                    <div class=""question-area"">
                        <p style=""font-size: 20px; font-weight: bold; margin: 0;"">Is there a person in this image?</p>
                    </div>
                </div>","1","main_experiment_trial","7","coin_causal","causal_sequence","","","","",""
"","","","","","html-keyboard-response","136","640787","0.0-136.0","A46DB62D8462400D9D4D566651697C13","019cf0a8-0541-7b73-b68f-08baf0770e75","019cf037-5203-781a-b900-108ccb1cab86","","null","
                <div class=""stimulus-container"">
                    <img src=""images/causal_sequence/coin_causal/coin_causal_8.png"" class=""exp-image"">
                    <div class=""question-area""></div> 
                </div>","null","","","","","","","","",""
"","","","","","html-button-response","137","642281","0.0-137.0","A46DB62D8462400D9D4D566651697C13","019cf0a8-0541-7b73-b68f-08baf0770e75","019cf037-5203-781a-b900-108ccb1cab86","","1491","
                <div class=""stimulus-container"">
                    <img src=""images/causal_sequence/coin_causal/coin_causal_8.png"" class=""exp-image"">
                    <div class=""question-area"">
                        <p style=""font-size: 20px; font-weight: bold; margin: 0;"">Is there a person in this image?</p>
                    </div>
                </div>","0","main_experiment_trial","8","coin_causal","causal_sequence","","","","",""
"","","","","","html-keyboard-response","138","647290","0.0-138.0","A46DB62D8462400D9D4D566651697C13","019cf0a8-0541-7b73-b68f-08baf0770e75","019cf037-5203-781a-b900-108ccb1cab86","","null","
                <div class=""stimulus-container"">
                    <img src=""images/causal_sequence/coin_causal/coin_causal_9.png"" class=""exp-image"">
                    <div class=""question-area""></div> 
                </div>","null","","","","","","","","",""
"","","","","","html-button-response","139","647761","0.0-139.0","A46DB62D8462400D9D4D566651697C13","019cf0a8-0541-7b73-b68f-08baf0770e75","019cf037-5203-781a-b900-108ccb1cab86","","468","
                <div class=""stimulus-container"">
                    <img src=""images/causal_sequence/coin_causal/coin_causal_9.png"" class=""exp-image"">
                    <div class=""question-area"">
                        <p style=""font-size: 20px; font-weight: bold; margin: 0;"">Is there a person in this image?</p>
                    </div>
                </div>","0","main_experiment_trial","9","coin_causal","causal_sequence","","","","",""
"","","","","","html-keyboard-response","140","652772","0.0-140.0","A46DB62D8462400D9D4D566651697C13","019cf0a8-0541-7b73-b68f-08baf0770e75","019cf037-5203-781a-b900-108ccb1cab86","","null","
                <div class=""stimulus-container"">
                    <img src=""images/causal_sequence/coin_causal/coin_causal_ten.png"" class=""exp-image"">
                    <div class=""question-area""></div> 
                </div>","null","","","","","","","","",""
"","","","","","html-button-response","141","653304","0.0-141.0","A46DB62D8462400D9D4D566651697C13","019cf0a8-0541-7b73-b68f-08baf0770e75","019cf037-5203-781a-b900-108ccb1cab86","","530","
                <div class=""stimulus-container"">
                    <img src=""images/causal_sequence/coin_causal/coin_causal_ten.png"" class=""exp-image"">
                    <div class=""question-area"">
                        <p style=""font-size: 20px; font-weight: bold; margin: 0;"">Is there a person in this image?</p>
                    </div>
                </div>","0","main_experiment_trial","ten","coin_causal","causal_sequence","","","","",""
"","","","","","html-keyboard-response","142","654311","0.0-142.0","A46DB62D8462400D9D4D566651697C13","019cf0a8-0541-7b73-b68f-08baf0770e75","019cf037-5203-781a-b900-108ccb1cab86","","null","<div style=""background-color: white; width: 100vw; height: 100vh;""></div>","null","","","","","","","","",""
"","","","","","html-keyboard-response","143","659321","0.0-143.0","A46DB62D8462400D9D4D566651697C13","019cf0a8-0541-7b73-b68f-08baf0770e75","019cf037-5203-781a-b900-108ccb1cab86","","null","
                <div class=""stimulus-container"">
                    <img src=""images/causal_sequence/the_performance_causal/the_performance_causal_1.png"" class=""exp-image"">
                    <div class=""question-area""></div> 
                </div>","null","","","","","","","","",""
"","","","","","html-button-response","144","659976","0.0-144.0","A46DB62D8462400D9D4D566651697C13","019cf0a8-0541-7b73-b68f-08baf0770e75","019cf037-5203-781a-b900-108ccb1cab86","","653","
                <div class=""stimulus-container"">
                    <img src=""images/causal_sequence/the_performance_causal/the_performance_causal_1.png"" class=""exp-image"">
                    <div class=""question-area"">
                        <p style=""font-size: 20px; font-weight: bold; margin: 0;"">Is there a person in this image?</p>
                    </div>
                </div>","0","main_experiment_trial","1","the_performance_causal","causal_sequence","","","","",""
"","","","","","html-keyboard-response","145","664988","0.0-145.0","A46DB62D8462400D9D4D566651697C13","019cf0a8-0541-7b73-b68f-08baf0770e75","019cf037-5203-781a-b900-108ccb1cab86","","null","
                <div class=""stimulus-container"">
                    <img src=""images/causal_sequence/the_performance_causal/the_performance_causal_2.png"" class=""exp-image"">
                    <div class=""question-area""></div> 
                </div>","null","","","","","","","","",""
"","","","","","html-button-response","146","665488","0.0-146.0","A46DB62D8462400D9D4D566651697C13","019cf0a8-0541-7b73-b68f-08baf0770e75","019cf037-5203-781a-b900-108ccb1cab86","","498","
                <div class=""stimulus-container"">
                    <img src=""images/causal_sequence/the_performance_causal/the_performance_causal_2.png"" class=""exp-image"">
                    <div class=""question-area"">
                        <p style=""font-size: 20px; font-weight: bold; margin: 0;"">Is there a person in this image?</p>
                    </div>
                </div>","0","main_experiment_trial","2","the_performance_causal","causal_sequence","","","","",""
"","","","","","html-keyboard-response","147","670495","0.0-147.0","A46DB62D8462400D9D4D566651697C13","019cf0a8-0541-7b73-b68f-08baf0770e75","019cf037-5203-781a-b900-108ccb1cab86","","null","
                <div class=""stimulus-container"">
                    <img src=""images/causal_sequence/the_performance_causal/the_performance_causal_3.png"" class=""exp-image"">
                    <div class=""question-area""></div> 
                </div>","null","","","","","","","","",""
"","","","","","html-button-response","148","671051","0.0-148.0","A46DB62D8462400D9D4D566651697C13","019cf0a8-0541-7b73-b68f-08baf0770e75","019cf037-5203-781a-b900-108ccb1cab86","","553","
                <div class=""stimulus-container"">
                    <img src=""images/causal_sequence/the_performance_causal/the_performance_causal_3.png"" class=""exp-image"">
                    <div class=""question-area"">
                        <p style=""font-size: 20px; font-weight: bold; margin: 0;"">Is there a person in this image?</p>
                    </div>
                </div>","0","main_experiment_trial","3","the_performance_causal","causal_sequence","","","","",""
"","","","","","html-keyboard-response","149","676057","0.0-149.0","A46DB62D8462400D9D4D566651697C13","019cf0a8-0541-7b73-b68f-08baf0770e75","019cf037-5203-781a-b900-108ccb1cab86","","null","
                <div class=""stimulus-container"">
                    <img src=""images/causal_sequence/the_performance_causal/the_performance_causal_4.png"" class=""exp-image"">
                    <div class=""question-area""></div> 
                </div>","null","","","","","","","","",""
"","","","","","html-button-response","150","676520","0.0-150.0","A46DB62D8462400D9D4D566651697C13","019cf0a8-0541-7b73-b68f-08baf0770e75","019cf037-5203-781a-b900-108ccb1cab86","","461","
                <div class=""stimulus-container"">
                    <img src=""images/causal_sequence/the_performance_causal/the_performance_causal_4.png"" class=""exp-image"">
                    <div class=""question-area"">
                        <p style=""font-size: 20px; font-weight: bold; margin: 0;"">Is there a person in this image?</p>
                    </div>
                </div>","0","main_experiment_trial","4","the_performance_causal","causal_sequence","","","","",""
"","","","","","html-keyboard-response","151","681535","0.0-151.0","A46DB62D8462400D9D4D566651697C13","019cf0a8-0541-7b73-b68f-08baf0770e75","019cf037-5203-781a-b900-108ccb1cab86","","null","
                <div class=""stimulus-container"">
                    <img src=""images/causal_sequence/the_performance_causal/the_performance_causal_5.png"" class=""exp-image"">
                    <div class=""question-area""></div> 
                </div>","null","","","","","","","","",""
"","","","","","html-button-response","152","682088","0.0-152.0","A46DB62D8462400D9D4D566651697C13","019cf0a8-0541-7b73-b68f-08baf0770e75","019cf037-5203-781a-b900-108ccb1cab86","","552","
                <div class=""stimulus-container"">
                    <img src=""images/causal_sequence/the_performance_causal/the_performance_causal_5.png"" class=""exp-image"">
                    <div class=""question-area"">
                        <p style=""font-size: 20px; font-weight: bold; margin: 0;"">Is there a person in this image?</p>
                    </div>
                </div>","0","main_experiment_trial","5","the_performance_causal","causal_sequence","","","","",""
"","","","","","html-keyboard-response","153","687100","0.0-153.0","A46DB62D8462400D9D4D566651697C13","019cf0a8-0541-7b73-b68f-08baf0770e75","019cf037-5203-781a-b900-108ccb1cab86","","null","
                <div class=""stimulus-container"">
                    <img src=""images/causal_sequence/the_performance_causal/the_performance_causal_6.png"" class=""exp-image"">
                    <div class=""question-area""></div> 
                </div>","null","","","","","","","","",""
"","","","","","html-button-response","154","687520","0.0-154.0","A46DB62D8462400D9D4D566651697C13","019cf0a8-0541-7b73-b68f-08baf0770e75","019cf037-5203-781a-b900-108ccb1cab86","","418","
                <div class=""stimulus-container"">
                    <img src=""images/causal_sequence/the_performance_causal/the_performance_causal_6.png"" class=""exp-image"">
                    <div class=""question-area"">
                        <p style=""font-size: 20px; font-weight: bold; margin: 0;"">Is there a person in this image?</p>
                    </div>
                </div>","0","main_experiment_trial","6","the_performance_causal","causal_sequence","","","","",""
"","","","","","html-keyboard-response","155","692523","0.0-155.0","A46DB62D8462400D9D4D566651697C13","019cf0a8-0541-7b73-b68f-08baf0770e75","019cf037-5203-781a-b900-108ccb1cab86","","null","
                <div class=""stimulus-container"">
                    <img src=""images/causal_sequence/the_performance_causal/the_performance_causal_7.png"" class=""exp-image"">
                    <div class=""question-area""></div> 
                </div>","null","","","","","","","","",""
"","","","","","html-button-response","156","693016","0.0-156.0","A46DB62D8462400D9D4D566651697C13","019cf0a8-0541-7b73-b68f-08baf0770e75","019cf037-5203-781a-b900-108ccb1cab86","","490","
                <div class=""stimulus-container"">
                    <img src=""images/causal_sequence/the_performance_causal/the_performance_causal_7.png"" class=""exp-image"">
                    <div class=""question-area"">
                        <p style=""font-size: 20px; font-weight: bold; margin: 0;"">Is there a person in this image?</p>
                    </div>
                </div>","0","main_experiment_trial","7","the_performance_causal","causal_sequence","","","","",""
"","","","","","html-keyboard-response","157","698032","0.0-157.0","A46DB62D8462400D9D4D566651697C13","019cf0a8-0541-7b73-b68f-08baf0770e75","019cf037-5203-781a-b900-108ccb1cab86","","null","
                <div class=""stimulus-container"">
                    <img src=""images/causal_sequence/the_performance_causal/the_performance_causal_8.png"" class=""exp-image"">
                    <div class=""question-area""></div> 
                </div>","null","","","","","","","","",""
"","","","","","html-button-response","158","698552","0.0-158.0","A46DB62D8462400D9D4D566651697C13","019cf0a8-0541-7b73-b68f-08baf0770e75","019cf037-5203-781a-b900-108ccb1cab86","","518","
                <div class=""stimulus-container"">
                    <img src=""images/causal_sequence/the_performance_causal/the_performance_causal_8.png"" class=""exp-image"">
                    <div class=""question-area"">
                        <p style=""font-size: 20px; font-weight: bold; margin: 0;"">Is there a person in this image?</p>
                    </div>
                </div>","0","main_experiment_trial","8","the_performance_causal","causal_sequence","","","","",""
"","","","","","html-keyboard-response","159","703560","0.0-159.0","A46DB62D8462400D9D4D566651697C13","019cf0a8-0541-7b73-b68f-08baf0770e75","019cf037-5203-781a-b900-108ccb1cab86","","null","
                <div class=""stimulus-container"">
                    <img src=""images/causal_sequence/the_performance_causal/the_performance_causal_9.png"" class=""exp-image"">
                    <div class=""question-area""></div> 
                </div>","null","","","","","","","","",""
"","","","","","html-button-response","160","704057","0.0-160.0","A46DB62D8462400D9D4D566651697C13","019cf0a8-0541-7b73-b68f-08baf0770e75","019cf037-5203-781a-b900-108ccb1cab86","","495","
                <div class=""stimulus-container"">
                    <img src=""images/causal_sequence/the_performance_causal/the_performance_causal_9.png"" class=""exp-image"">
                    <div class=""question-area"">
                        <p style=""font-size: 20px; font-weight: bold; margin: 0;"">Is there a person in this image?</p>
                    </div>
                </div>","0","main_experiment_trial","9","the_performance_causal","causal_sequence","","","","",""
"","","","","","html-keyboard-response","161","709065","0.0-161.0","A46DB62D8462400D9D4D566651697C13","019cf0a8-0541-7b73-b68f-08baf0770e75","019cf037-5203-781a-b900-108ccb1cab86","","null","
                <div class=""stimulus-container"">
                    <img src=""images/causal_sequence/the_performance_causal/the_performance_causal_ten.png"" class=""exp-image"">
                    <div class=""question-area""></div> 
                </div>","null","","","","","","","","",""
"","","","","","html-button-response","162","709553","0.0-162.0","A46DB62D8462400D9D4D566651697C13","019cf0a8-0541-7b73-b68f-08baf0770e75","019cf037-5203-781a-b900-108ccb1cab86","","484","
                <div class=""stimulus-container"">
                    <img src=""images/causal_sequence/the_performance_causal/the_performance_causal_ten.png"" class=""exp-image"">
                    <div class=""question-area"">
                        <p style=""font-size: 20px; font-weight: bold; margin: 0;"">Is there a person in this image?</p>
                    </div>
                </div>","0","main_experiment_trial","ten","the_performance_causal","causal_sequence","","","","",""
"","","","","","html-keyboard-response","163","710554","0.0-163.0","A46DB62D8462400D9D4D566651697C13","019cf0a8-0541-7b73-b68f-08baf0770e75","019cf037-5203-781a-b900-108ccb1cab86","","null","<div style=""background-color: white; width: 100vw; height: 100vh;""></div>","null","","","","","","","","",""
"","","","","","html-keyboard-response","164","715565","0.0-164.0","A46DB62D8462400D9D4D566651697C13","019cf0a8-0541-7b73-b68f-08baf0770e75","019cf037-5203-781a-b900-108ccb1cab86","","null","
                <div class=""stimulus-container"">
                    <img src=""images/causal_sequence/package_causal/package_causal_1.png"" class=""exp-image"">
                    <div class=""question-area""></div> 
                </div>","null","","","","","","","","",""
"","","","","","html-button-response","165","716520","0.0-165.0","A46DB62D8462400D9D4D566651697C13","019cf0a8-0541-7b73-b68f-08baf0770e75","019cf037-5203-781a-b900-108ccb1cab86","","951","
                <div class=""stimulus-container"">
                    <img src=""images/causal_sequence/package_causal/package_causal_1.png"" class=""exp-image"">
                    <div class=""question-area"">
                        <p style=""font-size: 20px; font-weight: bold; margin: 0;"">Is there a person in this image?</p>
                    </div>
                </div>","0","main_experiment_trial","1","package_causal","causal_sequence","","","","",""
"","","","","","html-keyboard-response","166","721524","0.0-166.0","A46DB62D8462400D9D4D566651697C13","019cf0a8-0541-7b73-b68f-08baf0770e75","019cf037-5203-781a-b900-108ccb1cab86","","null","
                <div class=""stimulus-container"">
                    <img src=""images/causal_sequence/package_causal/package_causal_2.png"" class=""exp-image"">
                    <div class=""question-area""></div> 
                </div>","null","","","","","","","","",""
"","","","","","html-button-response","167","722945","0.0-167.0","A46DB62D8462400D9D4D566651697C13","019cf0a8-0541-7b73-b68f-08baf0770e75","019cf037-5203-781a-b900-108ccb1cab86","","1419","
                <div class=""stimulus-container"">
                    <img src=""images/causal_sequence/package_causal/package_causal_2.png"" class=""exp-image"">
                    <div class=""question-area"">
                        <p style=""font-size: 20px; font-weight: bold; margin: 0;"">Is there a person in this image?</p>
                    </div>
                </div>","0","main_experiment_trial","2","package_causal","causal_sequence","","","","",""
"","","","","","html-keyboard-response","168","727961","0.0-168.0","A46DB62D8462400D9D4D566651697C13","019cf0a8-0541-7b73-b68f-08baf0770e75","019cf037-5203-781a-b900-108ccb1cab86","","null","
                <div class=""stimulus-container"">
                    <img src=""images/causal_sequence/package_causal/package_causal_3.png"" class=""exp-image"">
                    <div class=""question-area""></div> 
                </div>","null","","","","","","","","",""
"","","","","","html-button-response","169","728633","0.0-169.0","A46DB62D8462400D9D4D566651697C13","019cf0a8-0541-7b73-b68f-08baf0770e75","019cf037-5203-781a-b900-108ccb1cab86","","669","
                <div class=""stimulus-container"">
                    <img src=""images/causal_sequence/package_causal/package_causal_3.png"" class=""exp-image"">
                    <div class=""question-area"">
                        <p style=""font-size: 20px; font-weight: bold; margin: 0;"">Is there a person in this image?</p>
                    </div>
                </div>","0","main_experiment_trial","3","package_causal","causal_sequence","","","","",""
"","","","","","html-keyboard-response","170","733640","0.0-170.0","A46DB62D8462400D9D4D566651697C13","019cf0a8-0541-7b73-b68f-08baf0770e75","019cf037-5203-781a-b900-108ccb1cab86","","null","
                <div class=""stimulus-container"">
                    <img src=""images/causal_sequence/package_causal/package_causal_4.png"" class=""exp-image"">
                    <div class=""question-area""></div> 
                </div>","null","","","","","","","","",""
"","","","","","html-button-response","171","734264","0.0-171.0","A46DB62D8462400D9D4D566651697C13","019cf0a8-0541-7b73-b68f-08baf0770e75","019cf037-5203-781a-b900-108ccb1cab86","","623","
                <div class=""stimulus-container"">
                    <img src=""images/causal_sequence/package_causal/package_causal_4.png"" class=""exp-image"">
                    <div class=""question-area"">
                        <p style=""font-size: 20px; font-weight: bold; margin: 0;"">Is there a person in this image?</p>
                    </div>
                </div>","1","main_experiment_trial","4","package_causal","causal_sequence","","","","",""
"","","","","","html-keyboard-response","172","739272","0.0-172.0","A46DB62D8462400D9D4D566651697C13","019cf0a8-0541-7b73-b68f-08baf0770e75","019cf037-5203-781a-b900-108ccb1cab86","","null","
                <div class=""stimulus-container"">
                    <img src=""images/causal_sequence/package_causal/package_causal_5.png"" class=""exp-image"">
                    <div class=""question-area""></div> 
                </div>","null","","","","","","","","",""
"","","","","","html-button-response","173","739713","0.0-173.0","A46DB62D8462400D9D4D566651697C13","019cf0a8-0541-7b73-b68f-08baf0770e75","019cf037-5203-781a-b900-108ccb1cab86","","437","
                <div class=""stimulus-container"">
                    <img src=""images/causal_sequence/package_causal/package_causal_5.png"" class=""exp-image"">
                    <div class=""question-area"">
                        <p style=""font-size: 20px; font-weight: bold; margin: 0;"">Is there a person in this image?</p>
                    </div>
                </div>","0","main_experiment_trial","5","package_causal","causal_sequence","","","","",""
"","","","","","html-keyboard-response","174","744729","0.0-174.0","A46DB62D8462400D9D4D566651697C13","019cf0a8-0541-7b73-b68f-08baf0770e75","019cf037-5203-781a-b900-108ccb1cab86","","null","
                <div class=""stimulus-container"">
                    <img src=""images/causal_sequence/package_causal/package_causal_6.png"" class=""exp-image"">
                    <div class=""question-area""></div> 
                </div>","null","","","","","","","","",""
"","","","","","html-button-response","175","745336","0.0-175.0","A46DB62D8462400D9D4D566651697C13","019cf0a8-0541-7b73-b68f-08baf0770e75","019cf037-5203-781a-b900-108ccb1cab86","","604","
                <div class=""stimulus-container"">
                    <img src=""images/causal_sequence/package_causal/package_causal_6.png"" class=""exp-image"">
                    <div class=""question-area"">
                        <p style=""font-size: 20px; font-weight: bold; margin: 0;"">Is there a person in this image?</p>
                    </div>
                </div>","0","main_experiment_trial","6","package_causal","causal_sequence","","","","",""
"","","","","","html-keyboard-response","176","750339","0.0-176.0","A46DB62D8462400D9D4D566651697C13","019cf0a8-0541-7b73-b68f-08baf0770e75","019cf037-5203-781a-b900-108ccb1cab86","","null","
                <div class=""stimulus-container"">
                    <img src=""images/causal_sequence/package_causal/package_causal_7.png"" class=""exp-image"">
                    <div class=""question-area""></div> 
                </div>","null","","","","","","","","",""
"","","","","","html-button-response","177","751312","0.0-177.0","A46DB62D8462400D9D4D566651697C13","019cf0a8-0541-7b73-b68f-08baf0770e75","019cf037-5203-781a-b900-108ccb1cab86","","970","
                <div class=""stimulus-container"">
                    <img src=""images/causal_sequence/package_causal/package_causal_7.png"" class=""exp-image"">
                    <div class=""question-area"">
                        <p style=""font-size: 20px; font-weight: bold; margin: 0;"">Is there a person in this image?</p>
                    </div>
                </div>","0","main_experiment_trial","7","package_causal","causal_sequence","","","","",""
"","","","","","html-keyboard-response","178","756322","0.0-178.0","A46DB62D8462400D9D4D566651697C13","019cf0a8-0541-7b73-b68f-08baf0770e75","019cf037-5203-781a-b900-108ccb1cab86","","null","
                <div class=""stimulus-container"">
                    <img src=""images/causal_sequence/package_causal/package_causal_8.png"" class=""exp-image"">
                    <div class=""question-area""></div> 
                </div>","null","","","","","","","","",""
"","","","","","html-button-response","179","756953","0.0-179.0","A46DB62D8462400D9D4D566651697C13","019cf0a8-0541-7b73-b68f-08baf0770e75","019cf037-5203-781a-b900-108ccb1cab86","","627","
                <div class=""stimulus-container"">
                    <img src=""images/causal_sequence/package_causal/package_causal_8.png"" class=""exp-image"">
                    <div class=""question-area"">
                        <p style=""font-size: 20px; font-weight: bold; margin: 0;"">Is there a person in this image?</p>
                    </div>
                </div>","0","main_experiment_trial","8","package_causal","causal_sequence","","","","",""
"","","","","","html-keyboard-response","180","761969","0.0-180.0","A46DB62D8462400D9D4D566651697C13","019cf0a8-0541-7b73-b68f-08baf0770e75","019cf037-5203-781a-b900-108ccb1cab86","","null","
                <div class=""stimulus-container"">
                    <img src=""images/causal_sequence/package_causal/package_causal_9.png"" class=""exp-image"">
                    <div class=""question-area""></div> 
                </div>","null","","","","","","","","",""
"","","","","","html-button-response","181","763017","0.0-181.0","A46DB62D8462400D9D4D566651697C13","019cf0a8-0541-7b73-b68f-08baf0770e75","019cf037-5203-781a-b900-108ccb1cab86","","1044","
                <div class=""stimulus-container"">
                    <img src=""images/causal_sequence/package_causal/package_causal_9.png"" class=""exp-image"">
                    <div class=""question-area"">
                        <p style=""font-size: 20px; font-weight: bold; margin: 0;"">Is there a person in this image?</p>
                    </div>
                </div>","0","main_experiment_trial","9","package_causal","causal_sequence","","","","",""
"","","","","","html-keyboard-response","182","768025","0.0-182.0","A46DB62D8462400D9D4D566651697C13","019cf0a8-0541-7b73-b68f-08baf0770e75","019cf037-5203-781a-b900-108ccb1cab86","","null","
                <div class=""stimulus-container"">
                    <img src=""images/causal_sequence/package_causal/package_causal_ten.png"" class=""exp-image"">
                    <div class=""question-area""></div> 
                </div>","null","","","","","","","","",""
"","","","","","html-button-response","183","769457","0.0-183.0","A46DB62D8462400D9D4D566651697C13","019cf0a8-0541-7b73-b68f-08baf0770e75","019cf037-5203-781a-b900-108ccb1cab86","","1430","
                <div class=""stimulus-container"">
                    <img src=""images/causal_sequence/package_causal/package_causal_ten.png"" class=""exp-image"">
                    <div class=""question-area"">
