"success","timeout","failed_images","failed_audio","failed_video","trial_type","trial_index","time_elapsed","internal_node_id","subject_id","study_id","session_id","view_history","rt","stimulus","response","task","image_index","folder","sequence_type","presentation_order","valuable_image_index","reward_type","chosen_image_index","target_X","correct_choice"
"true","false","[]","[]","[]","preload","0","7167","0.0-0.0","10DCCBD8FE8348138308ADFEF74EB272","019cf9bf-23f4-7a50-b4f2-1fda58550044","019cf99d-e445-78ae-88d0-91fe39b758eb","","","","","","","","","","","","","",""
"","","","","","instructions","1","9337","0.0-1.0","10DCCBD8FE8348138308ADFEF74EB272","019cf9bf-23f4-7a50-b4f2-1fda58550044","019cf99d-e445-78ae-88d0-91fe39b758eb","[{""page_index"":0,""viewing_time"":2163}]","2163","","","","","","","","","","","",""
"","","","","","instructions","2","12406","0.0-2.0","10DCCBD8FE8348138308ADFEF74EB272","019cf9bf-23f4-7a50-b4f2-1fda58550044","019cf99d-e445-78ae-88d0-91fe39b758eb","[{""page_index"":0,""viewing_time"":3067}]","3067","","","","","","","","","","","",""
"true","","","","","fullscreen","3","15681","0.0-3.0","10DCCBD8FE8348138308ADFEF74EB272","019cf9bf-23f4-7a50-b4f2-1fda58550044","019cf99d-e445-78ae-88d0-91fe39b758eb","","2273","","","","","","","","","","","",""
"","","","","","instructions","4","29581","0.0-4.0","10DCCBD8FE8348138308ADFEF74EB272","019cf9bf-23f4-7a50-b4f2-1fda58550044","019cf99d-e445-78ae-88d0-91fe39b758eb","[{""page_index"":0,""viewing_time"":13899}]","13899","","","","","","","","","","","",""
"","","","","","instructions","5","41998","0.0-5.0","10DCCBD8FE8348138308ADFEF74EB272","019cf9bf-23f4-7a50-b4f2-1fda58550044","019cf99d-e445-78ae-88d0-91fe39b758eb","[{""page_index"":0,""viewing_time"":12415}]","12416","","","","","","","","","","","",""
"","","","","","html-keyboard-response","6","46000","0.0-6.0","10DCCBD8FE8348138308ADFEF74EB272","019cf9bf-23f4-7a50-b4f2-1fda58550044","019cf99d-e445-78ae-88d0-91fe39b758eb","","null","
                <div class=""stimulus-container"">
                    <img src=""images/instructions/movie_1.png"" class=""exp-image"">
                    <div class=""question-area""></div> 
                </div>","null","","","","","","","","","",""
"","","","","","html-button-response","7","47989","0.0-7.0","10DCCBD8FE8348138308ADFEF74EB272","019cf9bf-23f4-7a50-b4f2-1fda58550044","019cf99d-e445-78ae-88d0-91fe39b758eb","","1984","
                <div class=""stimulus-container"">
                    <img src=""images/instructions/movie_1.png"" class=""exp-image"">
                    <div class=""question-area"">
                        <p style=""font-size: 20px; font-weight: bold; margin: 0;"">Was there a person in this image?</p>
                    </div>
                </div>","0","example_question","1","","","","","","","",""
"","","","","","html-keyboard-response","8","51991","0.0-8.0","10DCCBD8FE8348138308ADFEF74EB272","019cf9bf-23f4-7a50-b4f2-1fda58550044","019cf99d-e445-78ae-88d0-91fe39b758eb","","null","
                <div class=""stimulus-container"">
                    <img src=""images/instructions/movie_2.png"" class=""exp-image"">
                    <div class=""question-area""></div> 
                </div>","null","","","","","","","","","",""
"","","","","","html-button-response","9","53868","0.0-9.0","10DCCBD8FE8348138308ADFEF74EB272","019cf9bf-23f4-7a50-b4f2-1fda58550044","019cf99d-e445-78ae-88d0-91fe39b758eb","","1876","
                <div class=""stimulus-container"">
                    <img src=""images/instructions/movie_2.png"" class=""exp-image"">
                    <div class=""question-area"">
                        <p style=""font-size: 20px; font-weight: bold; margin: 0;"">Was there a person in this image?</p>
                    </div>
                </div>","0","example_question","2","","","","","","","",""
"","","","","","html-keyboard-response","10","57870","0.0-10.0","10DCCBD8FE8348138308ADFEF74EB272","019cf9bf-23f4-7a50-b4f2-1fda58550044","019cf99d-e445-78ae-88d0-91fe39b758eb","","null","
                <div class=""stimulus-container"">
                    <img src=""images/instructions/movie_3.png"" class=""exp-image"">
                    <div class=""question-area""></div> 
                </div>","null","","","","","","","","","",""
"","","","","","html-button-response","11","58685","0.0-11.0","10DCCBD8FE8348138308ADFEF74EB272","019cf9bf-23f4-7a50-b4f2-1fda58550044","019cf99d-e445-78ae-88d0-91fe39b758eb","","814","
                <div class=""stimulus-container"">
                    <img src=""images/instructions/movie_3.png"" class=""exp-image"">
                    <div class=""question-area"">
                        <p style=""font-size: 20px; font-weight: bold; margin: 0;"">Was there a person in this image?</p>
                    </div>
                </div>","0","example_question","3","","","","","","","",""
"","","","","","html-keyboard-response","12","62686","0.0-12.0","10DCCBD8FE8348138308ADFEF74EB272","019cf9bf-23f4-7a50-b4f2-1fda58550044","019cf99d-e445-78ae-88d0-91fe39b758eb","","null","
                <div class=""stimulus-container"">
                    <img src=""images/instructions/movie_4.png"" class=""exp-image"">
                    <div class=""question-area""></div> 
                </div>","null","","","","","","","","","",""
"","","","","","html-button-response","13","63523","0.0-13.0","10DCCBD8FE8348138308ADFEF74EB272","019cf9bf-23f4-7a50-b4f2-1fda58550044","019cf99d-e445-78ae-88d0-91fe39b758eb","","835","
                <div class=""stimulus-container"">
                    <img src=""images/instructions/movie_4.png"" class=""exp-image"">
                    <div class=""question-area"">
                        <p style=""font-size: 20px; font-weight: bold; margin: 0;"">Was there a person in this image?</p>
                    </div>
                </div>","0","example_question","4","","","","","","","",""
"","","","","","instructions","14","65827","0.0-14.0","10DCCBD8FE8348138308ADFEF74EB272","019cf9bf-23f4-7a50-b4f2-1fda58550044","019cf99d-e445-78ae-88d0-91fe39b758eb","[{""page_index"":0,""viewing_time"":2303}]","2303","","","","","","","","","","","",""
"","","","","","instructions","15","76784","0.0-15.0","10DCCBD8FE8348138308ADFEF74EB272","019cf9bf-23f4-7a50-b4f2-1fda58550044","019cf99d-e445-78ae-88d0-91fe39b758eb","[{""page_index"":0,""viewing_time"":10957}]","10957","","","","","","","","","","","",""
"","","","","","html-keyboard-response","16","81785","0.0-16.0","10DCCBD8FE8348138308ADFEF74EB272","019cf9bf-23f4-7a50-b4f2-1fda58550044","019cf99d-e445-78ae-88d0-91fe39b758eb","","null","<div style=""background-color: white; width: 100vw; height: 100vh;""></div>","null","","","","","","","","","",""
"","","","","","html-keyboard-response","17","82787","0.0-17.0","10DCCBD8FE8348138308ADFEF74EB272","019cf9bf-23f4-7a50-b4f2-1fda58550044","019cf99d-e445-78ae-88d0-91fe39b758eb","","null","
                <div class=""stimulus-container"">
                    <img src=""images/semantic_sequence/physical_activity_semantic/physical_activity_semantic_7.png"" class=""exp-image"">
                    <div class=""question-area""></div> 
                </div>","null","","","","","","","","","",""
"","","","","","html-button-response","18","84113","0.0-18.0","10DCCBD8FE8348138308ADFEF74EB272","019cf9bf-23f4-7a50-b4f2-1fda58550044","019cf99d-e445-78ae-88d0-91fe39b758eb","","1325","
                <div class=""stimulus-container"">
                    <img src=""images/semantic_sequence/physical_activity_semantic/physical_activity_semantic_7.png"" class=""exp-image"">
                    <div class=""question-area"">
                        <p style=""font-size: 20px; font-weight: bold; margin: 0;"">Is there a person in this image?</p>
                    </div>
                </div>","0","main_experiment_trial","7","physical_activity_semantic","semantic_sequence","randomized","","","","",""
"","","","","","html-keyboard-response","19","85115","0.0-19.0","10DCCBD8FE8348138308ADFEF74EB272","019cf9bf-23f4-7a50-b4f2-1fda58550044","019cf99d-e445-78ae-88d0-91fe39b758eb","","null","
                <div class=""stimulus-container"">
                    <img src=""images/semantic_sequence/physical_activity_semantic/physical_activity_semantic_ten.png"" class=""exp-image"">
                    <div class=""question-area""></div> 
                </div>","null","","","","","","","","","",""
"","","","","","html-button-response","20","86181","0.0-20.0","10DCCBD8FE8348138308ADFEF74EB272","019cf9bf-23f4-7a50-b4f2-1fda58550044","019cf99d-e445-78ae-88d0-91fe39b758eb","","1065","
                <div class=""stimulus-container"">
                    <img src=""images/semantic_sequence/physical_activity_semantic/physical_activity_semantic_ten.png"" class=""exp-image"">
                    <div class=""question-area"">
                        <p style=""font-size: 20px; font-weight: bold; margin: 0;"">Is there a person in this image?</p>
                    </div>
                </div>","0","main_experiment_trial","ten","physical_activity_semantic","semantic_sequence","randomized","","","","",""
"","","","","","html-keyboard-response","21","87182","0.0-21.0","10DCCBD8FE8348138308ADFEF74EB272","019cf9bf-23f4-7a50-b4f2-1fda58550044","019cf99d-e445-78ae-88d0-91fe39b758eb","","null","
                <div class=""stimulus-container"">
                    <img src=""images/semantic_sequence/physical_activity_semantic/physical_activity_semantic_6.png"" class=""exp-image"">
                    <div class=""question-area""></div> 
                </div>","null","","","","","","","","","",""
"","","","","","html-button-response","22","88713","0.0-22.0","10DCCBD8FE8348138308ADFEF74EB272","019cf9bf-23f4-7a50-b4f2-1fda58550044","019cf99d-e445-78ae-88d0-91fe39b758eb","","1530","
                <div class=""stimulus-container"">
                    <img src=""images/semantic_sequence/physical_activity_semantic/physical_activity_semantic_6.png"" class=""exp-image"">
                    <div class=""question-area"">
                        <p style=""font-size: 20px; font-weight: bold; margin: 0;"">Is there a person in this image?</p>
                    </div>
                </div>","0","main_experiment_trial","6","physical_activity_semantic","semantic_sequence","randomized","","","","",""
"","","","","","html-keyboard-response","23","89715","0.0-23.0","10DCCBD8FE8348138308ADFEF74EB272","019cf9bf-23f4-7a50-b4f2-1fda58550044","019cf99d-e445-78ae-88d0-91fe39b758eb","","null","
                <div class=""stimulus-container"">
                    <img src=""images/semantic_sequence/physical_activity_semantic/physical_activity_semantic_3.png"" class=""exp-image"">
                    <div class=""question-area""></div> 
                </div>","null","","","","","","","","","",""
"","","","","","html-button-response","24","90750","0.0-24.0","10DCCBD8FE8348138308ADFEF74EB272","019cf9bf-23f4-7a50-b4f2-1fda58550044","019cf99d-e445-78ae-88d0-91fe39b758eb","","1035","
                <div class=""stimulus-container"">
                    <img src=""images/semantic_sequence/physical_activity_semantic/physical_activity_semantic_3.png"" class=""exp-image"">
                    <div class=""question-area"">
                        <p style=""font-size: 20px; font-weight: bold; margin: 0;"">Is there a person in this image?</p>
                    </div>
                </div>","0","main_experiment_trial","3","physical_activity_semantic","semantic_sequence","randomized","","","","",""
"","","","","","html-keyboard-response","25","91751","0.0-25.0","10DCCBD8FE8348138308ADFEF74EB272","019cf9bf-23f4-7a50-b4f2-1fda58550044","019cf99d-e445-78ae-88d0-91fe39b758eb","","null","
                <div class=""stimulus-container"">
                    <img src=""images/semantic_sequence/physical_activity_semantic/physical_activity_semantic_5.png"" class=""exp-image"">
                    <div class=""question-area""></div> 
                </div>","null","","","","","","","","","",""
"","","","","","html-button-response","26","93044","0.0-26.0","10DCCBD8FE8348138308ADFEF74EB272","019cf9bf-23f4-7a50-b4f2-1fda58550044","019cf99d-e445-78ae-88d0-91fe39b758eb","","1291","
                <div class=""stimulus-container"">
                    <img src=""images/semantic_sequence/physical_activity_semantic/physical_activity_semantic_5.png"" class=""exp-image"">
                    <div class=""question-area"">
                        <p style=""font-size: 20px; font-weight: bold; margin: 0;"">Is there a person in this image?</p>
                    </div>
                </div>","0","main_experiment_trial","5","physical_activity_semantic","semantic_sequence","randomized","","","","",""
"","","","","","html-keyboard-response","27","94045","0.0-27.0","10DCCBD8FE8348138308ADFEF74EB272","019cf9bf-23f4-7a50-b4f2-1fda58550044","019cf99d-e445-78ae-88d0-91fe39b758eb","","null","
                <div class=""stimulus-container"">
                    <img src=""images/semantic_sequence/physical_activity_semantic/physical_activity_semantic_8.png"" class=""exp-image"">
                    <div class=""question-area""></div> 
                </div>","null","","","","","","","","","",""
"","","","","","html-button-response","28","94823","0.0-28.0","10DCCBD8FE8348138308ADFEF74EB272","019cf9bf-23f4-7a50-b4f2-1fda58550044","019cf99d-e445-78ae-88d0-91fe39b758eb","","777","
                <div class=""stimulus-container"">
                    <img src=""images/semantic_sequence/physical_activity_semantic/physical_activity_semantic_8.png"" class=""exp-image"">
                    <div class=""question-area"">
                        <p style=""font-size: 20px; font-weight: bold; margin: 0;"">Is there a person in this image?</p>
                    </div>
                </div>","0","main_experiment_trial","8","physical_activity_semantic","semantic_sequence","randomized","","","","",""
"","","","","","html-keyboard-response","29","95824","0.0-29.0","10DCCBD8FE8348138308ADFEF74EB272","019cf9bf-23f4-7a50-b4f2-1fda58550044","019cf99d-e445-78ae-88d0-91fe39b758eb","","null","
                <div class=""stimulus-container"">
                    <img src=""images/semantic_sequence/physical_activity_semantic/physical_activity_semantic_9.png"" class=""exp-image"">
                    <div class=""question-area""></div> 
                </div>","null","","","","","","","","","",""
"","","","","","html-button-response","30","96661","0.0-30.0","10DCCBD8FE8348138308ADFEF74EB272","019cf9bf-23f4-7a50-b4f2-1fda58550044","019cf99d-e445-78ae-88d0-91fe39b758eb","","835","
                <div class=""stimulus-container"">
                    <img src=""images/semantic_sequence/physical_activity_semantic/physical_activity_semantic_9.png"" class=""exp-image"">
                    <div class=""question-area"">
                        <p style=""font-size: 20px; font-weight: bold; margin: 0;"">Is there a person in this image?</p>
                    </div>
                </div>","0","main_experiment_trial","9","physical_activity_semantic","semantic_sequence","randomized","","","","",""
"","","","","","html-keyboard-response","31","97662","0.0-31.0","10DCCBD8FE8348138308ADFEF74EB272","019cf9bf-23f4-7a50-b4f2-1fda58550044","019cf99d-e445-78ae-88d0-91fe39b758eb","","null","
                <div class=""stimulus-container"">
                    <img src=""images/semantic_sequence/physical_activity_semantic/physical_activity_semantic_2.png"" class=""exp-image"">
                    <div class=""question-area""></div> 
                </div>","null","","","","","","","","","",""
"","","","","","html-button-response","32","98568","0.0-32.0","10DCCBD8FE8348138308ADFEF74EB272","019cf9bf-23f4-7a50-b4f2-1fda58550044","019cf99d-e445-78ae-88d0-91fe39b758eb","","904","
                <div class=""stimulus-container"">
                    <img src=""images/semantic_sequence/physical_activity_semantic/physical_activity_semantic_2.png"" class=""exp-image"">
                    <div class=""question-area"">
                        <p style=""font-size: 20px; font-weight: bold; margin: 0;"">Is there a person in this image?</p>
                    </div>
                </div>","0","main_experiment_trial","2","physical_activity_semantic","semantic_sequence","randomized","","","","",""
"","","","","","html-keyboard-response","33","99569","0.0-33.0","10DCCBD8FE8348138308ADFEF74EB272","019cf9bf-23f4-7a50-b4f2-1fda58550044","019cf99d-e445-78ae-88d0-91fe39b758eb","","null","
                <div class=""stimulus-container"">
                    <img src=""images/semantic_sequence/physical_activity_semantic/physical_activity_semantic_1.png"" class=""exp-image"">
                    <div class=""question-area""></div> 
                </div>","null","","","","","","","","","",""
"","","","","","html-button-response","34","100217","0.0-34.0","10DCCBD8FE8348138308ADFEF74EB272","019cf9bf-23f4-7a50-b4f2-1fda58550044","019cf99d-e445-78ae-88d0-91fe39b758eb","","647","
                <div class=""stimulus-container"">
                    <img src=""images/semantic_sequence/physical_activity_semantic/physical_activity_semantic_1.png"" class=""exp-image"">
                    <div class=""question-area"">
                        <p style=""font-size: 20px; font-weight: bold; margin: 0;"">Is there a person in this image?</p>
                    </div>
                </div>","0","main_experiment_trial","1","physical_activity_semantic","semantic_sequence","randomized","","","","",""
"","","","","","html-keyboard-response","35","101218","0.0-35.0","10DCCBD8FE8348138308ADFEF74EB272","019cf9bf-23f4-7a50-b4f2-1fda58550044","019cf99d-e445-78ae-88d0-91fe39b758eb","","null","
                <div class=""stimulus-container"">
                    <img src=""images/semantic_sequence/physical_activity_semantic/physical_activity_semantic_4.png"" class=""exp-image"">
                    <div class=""question-area""></div> 
                </div>","null","","","","","","","","","",""
"","","","","","html-button-response","36","102014","0.0-36.0","10DCCBD8FE8348138308ADFEF74EB272","019cf9bf-23f4-7a50-b4f2-1fda58550044","019cf99d-e445-78ae-88d0-91fe39b758eb","","794","
                <div class=""stimulus-container"">
                    <img src=""images/semantic_sequence/physical_activity_semantic/physical_activity_semantic_4.png"" class=""exp-image"">
                    <div class=""question-area"">
                        <p style=""font-size: 20px; font-weight: bold; margin: 0;"">Is there a person in this image?</p>
                    </div>
                </div>","0","main_experiment_trial","4","physical_activity_semantic","semantic_sequence","randomized","","","","",""
"","","","","","html-keyboard-response","37","107015","0.0-37.0","10DCCBD8FE8348138308ADFEF74EB272","019cf9bf-23f4-7a50-b4f2-1fda58550044","019cf99d-e445-78ae-88d0-91fe39b758eb","","null","<div style=""background-color: white; width: 100vw; height: 100vh;""></div>","null","","","","","","","","","",""
"","","","","","html-keyboard-response","38","108016","0.0-38.0","10DCCBD8FE8348138308ADFEF74EB272","019cf9bf-23f4-7a50-b4f2-1fda58550044","019cf99d-e445-78ae-88d0-91fe39b758eb","","null","
                <div class=""stimulus-container"">
                    <img src=""images/causal_sequence/saving_a_cat_causal/saving_a_cat_causal_5.png"" class=""exp-image"">
                    <div class=""question-area""></div> 
                </div>","null","","","","","","","","","",""
"","","","","","html-button-response","39","109235","0.0-39.0","10DCCBD8FE8348138308ADFEF74EB272","019cf9bf-23f4-7a50-b4f2-1fda58550044","019cf99d-e445-78ae-88d0-91fe39b758eb","","1218","
                <div class=""stimulus-container"">
                    <img src=""images/causal_sequence/saving_a_cat_causal/saving_a_cat_causal_5.png"" class=""exp-image"">
                    <div class=""question-area"">
                        <p style=""font-size: 20px; font-weight: bold; margin: 0;"">Is there a person in this image?</p>
                    </div>
                </div>","0","main_experiment_trial","5","saving_a_cat_causal","causal_sequence","randomized","","","","",""
"","","","","","html-keyboard-response","40","110237","0.0-40.0","10DCCBD8FE8348138308ADFEF74EB272","019cf9bf-23f4-7a50-b4f2-1fda58550044","019cf99d-e445-78ae-88d0-91fe39b758eb","","null","
                <div class=""stimulus-container"">
                    <img src=""images/causal_sequence/saving_a_cat_causal/saving_a_cat_causal_4.png"" class=""exp-image"">
                    <div class=""question-area""></div> 
                </div>","null","","","","","","","","","",""
"","","","","","html-button-response","41","111063","0.0-41.0","10DCCBD8FE8348138308ADFEF74EB272","019cf9bf-23f4-7a50-b4f2-1fda58550044","019cf99d-e445-78ae-88d0-91fe39b758eb","","826","
                <div class=""stimulus-container"">
                    <img src=""images/causal_sequence/saving_a_cat_causal/saving_a_cat_causal_4.png"" class=""exp-image"">
                    <div class=""question-area"">
                        <p style=""font-size: 20px; font-weight: bold; margin: 0;"">Is there a person in this image?</p>
                    </div>
                </div>","0","main_experiment_trial","4","saving_a_cat_causal","causal_sequence","randomized","","","","",""
"","","","","","html-keyboard-response","42","112064","0.0-42.0","10DCCBD8FE8348138308ADFEF74EB272","019cf9bf-23f4-7a50-b4f2-1fda58550044","019cf99d-e445-78ae-88d0-91fe39b758eb","","null","
                <div class=""stimulus-container"">
                    <img src=""images/causal_sequence/saving_a_cat_causal/saving_a_cat_causal_ten.png"" class=""exp-image"">
                    <div class=""question-area""></div> 
                </div>","null","","","","","","","","","",""
"","","","","","html-button-response","43","112951","0.0-43.0","10DCCBD8FE8348138308ADFEF74EB272","019cf9bf-23f4-7a50-b4f2-1fda58550044","019cf99d-e445-78ae-88d0-91fe39b758eb","","886","
                <div class=""stimulus-container"">
                    <img src=""images/causal_sequence/saving_a_cat_causal/saving_a_cat_causal_ten.png"" class=""exp-image"">
                    <div class=""question-area"">
                        <p style=""font-size: 20px; font-weight: bold; margin: 0;"">Is there a person in this image?</p>
                    </div>
                </div>","0","main_experiment_trial","ten","saving_a_cat_causal","causal_sequence","randomized","","","","",""
"","","","","","html-keyboard-response","44","113953","0.0-44.0","10DCCBD8FE8348138308ADFEF74EB272","019cf9bf-23f4-7a50-b4f2-1fda58550044","019cf99d-e445-78ae-88d0-91fe39b758eb","","null","
                <div class=""stimulus-container"">
                    <img src=""images/causal_sequence/saving_a_cat_causal/saving_a_cat_causal_7.png"" class=""exp-image"">
                    <div class=""question-area""></div> 
                </div>","null","","","","","","","","","",""
"","","","","","html-button-response","45","114968","0.0-45.0","10DCCBD8FE8348138308ADFEF74EB272","019cf9bf-23f4-7a50-b4f2-1fda58550044","019cf99d-e445-78ae-88d0-91fe39b758eb","","1014","
                <div class=""stimulus-container"">
                    <img src=""images/causal_sequence/saving_a_cat_causal/saving_a_cat_causal_7.png"" class=""exp-image"">
                    <div class=""question-area"">
                        <p style=""font-size: 20px; font-weight: bold; margin: 0;"">Is there a person in this image?</p>
                    </div>
                </div>","0","main_experiment_trial","7","saving_a_cat_causal","causal_sequence","randomized","","","","",""
"","","","","","html-keyboard-response","46","115969","0.0-46.0","10DCCBD8FE8348138308ADFEF74EB272","019cf9bf-23f4-7a50-b4f2-1fda58550044","019cf99d-e445-78ae-88d0-91fe39b758eb","","null","
                <div class=""stimulus-container"">
                    <img src=""images/causal_sequence/saving_a_cat_causal/saving_a_cat_causal_8.png"" class=""exp-image"">
                    <div class=""question-area""></div> 
                </div>","null","","","","","","","","","",""
"","","","","","html-button-response","47","116607","0.0-47.0","10DCCBD8FE8348138308ADFEF74EB272","019cf9bf-23f4-7a50-b4f2-1fda58550044","019cf99d-e445-78ae-88d0-91fe39b758eb","","636","
                <div class=""stimulus-container"">
                    <img src=""images/causal_sequence/saving_a_cat_causal/saving_a_cat_causal_8.png"" class=""exp-image"">
                    <div class=""question-area"">
                        <p style=""font-size: 20px; font-weight: bold; margin: 0;"">Is there a person in this image?</p>
                    </div>
                </div>","0","main_experiment_trial","8","saving_a_cat_causal","causal_sequence","randomized","","","","",""
"","","","","","html-keyboard-response","48","117608","0.0-48.0","10DCCBD8FE8348138308ADFEF74EB272","019cf9bf-23f4-7a50-b4f2-1fda58550044","019cf99d-e445-78ae-88d0-91fe39b758eb","","null","
                <div class=""stimulus-container"">
                    <img src=""images/causal_sequence/saving_a_cat_causal/saving_a_cat_causal_2.png"" class=""exp-image"">
                    <div class=""question-area""></div> 
                </div>","null","","","","","","","","","",""
"","","","","","html-button-response","49","120143","0.0-49.0","10DCCBD8FE8348138308ADFEF74EB272","019cf9bf-23f4-7a50-b4f2-1fda58550044","019cf99d-e445-78ae-88d0-91fe39b758eb","","2533","
                <div class=""stimulus-container"">
                    <img src=""images/causal_sequence/saving_a_cat_causal/saving_a_cat_causal_2.png"" class=""exp-image"">
                    <div class=""question-area"">
                        <p style=""font-size: 20px; font-weight: bold; margin: 0;"">Is there a person in this image?</p>
                    </div>
                </div>","1","main_experiment_trial","2","saving_a_cat_causal","causal_sequence","randomized","","","","",""
"","","","","","html-keyboard-response","50","121144","0.0-50.0","10DCCBD8FE8348138308ADFEF74EB272","019cf9bf-23f4-7a50-b4f2-1fda58550044","019cf99d-e445-78ae-88d0-91fe39b758eb","","null","
                <div class=""stimulus-container"">
                    <img src=""images/causal_sequence/saving_a_cat_causal/saving_a_cat_causal_9.png"" class=""exp-image"">
                    <div class=""question-area""></div> 
                </div>","null","","","","","","","","","",""
"","","","","","html-button-response","51","122119","0.0-51.0","10DCCBD8FE8348138308ADFEF74EB272","019cf9bf-23f4-7a50-b4f2-1fda58550044","019cf99d-e445-78ae-88d0-91fe39b758eb","","974","
                <div class=""stimulus-container"">
                    <img src=""images/causal_sequence/saving_a_cat_causal/saving_a_cat_causal_9.png"" class=""exp-image"">
                    <div class=""question-area"">
                        <p style=""font-size: 20px; font-weight: bold; margin: 0;"">Is there a person in this image?</p>
                    </div>
                </div>","0","main_experiment_trial","9","saving_a_cat_causal","causal_sequence","randomized","","","","",""
"","","","","","html-keyboard-response","52","123121","0.0-52.0","10DCCBD8FE8348138308ADFEF74EB272","019cf9bf-23f4-7a50-b4f2-1fda58550044","019cf99d-e445-78ae-88d0-91fe39b758eb","","null","
                <div class=""stimulus-container"">
                    <img src=""images/causal_sequence/saving_a_cat_causal/saving_a_cat_causal_3.png"" class=""exp-image"">
                    <div class=""question-area""></div> 
                </div>","null","","","","","","","","","",""
"","","","","","html-button-response","53","123917","0.0-53.0","10DCCBD8FE8348138308ADFEF74EB272","019cf9bf-23f4-7a50-b4f2-1fda58550044","019cf99d-e445-78ae-88d0-91fe39b758eb","","795","
                <div class=""stimulus-container"">
                    <img src=""images/causal_sequence/saving_a_cat_causal/saving_a_cat_causal_3.png"" class=""exp-image"">
                    <div class=""question-area"">
                        <p style=""font-size: 20px; font-weight: bold; margin: 0;"">Is there a person in this image?</p>
                    </div>
                </div>","1","main_experiment_trial","3","saving_a_cat_causal","causal_sequence","randomized","","","","",""
"","","","","","html-keyboard-response","54","124918","0.0-54.0","10DCCBD8FE8348138308ADFEF74EB272","019cf9bf-23f4-7a50-b4f2-1fda58550044","019cf99d-e445-78ae-88d0-91fe39b758eb","","null","
                <div class=""stimulus-container"">
                    <img src=""images/causal_sequence/saving_a_cat_causal/saving_a_cat_causal_6.png"" class=""exp-image"">
                    <div class=""question-area""></div> 
                </div>","null","","","","","","","","","",""
"","","","","","html-button-response","55","125747","0.0-55.0","10DCCBD8FE8348138308ADFEF74EB272","019cf9bf-23f4-7a50-b4f2-1fda58550044","019cf99d-e445-78ae-88d0-91fe39b758eb","","828","
                <div class=""stimulus-container"">
                    <img src=""images/causal_sequence/saving_a_cat_causal/saving_a_cat_causal_6.png"" class=""exp-image"">
                    <div class=""question-area"">
                        <p style=""font-size: 20px; font-weight: bold; margin: 0;"">Is there a person in this image?</p>
                    </div>
                </div>","0","main_experiment_trial","6","saving_a_cat_causal","causal_sequence","randomized","","","","",""
"","","","","","html-keyboard-response","56","126748","0.0-56.0","10DCCBD8FE8348138308ADFEF74EB272","019cf9bf-23f4-7a50-b4f2-1fda58550044","019cf99d-e445-78ae-88d0-91fe39b758eb","","null","
                <div class=""stimulus-container"">
                    <img src=""images/causal_sequence/saving_a_cat_causal/saving_a_cat_causal_1.png"" class=""exp-image"">
                    <div class=""question-area""></div> 
                </div>","null","","","","","","","","","",""
"","","","","","html-button-response","57","127155","0.0-57.0","10DCCBD8FE8348138308ADFEF74EB272","019cf9bf-23f4-7a50-b4f2-1fda58550044","019cf99d-e445-78ae-88d0-91fe39b758eb","","406","
                <div class=""stimulus-container"">
                    <img src=""images/causal_sequence/saving_a_cat_causal/saving_a_cat_causal_1.png"" class=""exp-image"">
                    <div class=""question-area"">
                        <p style=""font-size: 20px; font-weight: bold; margin: 0;"">Is there a person in this image?</p>
                    </div>
                </div>","0","main_experiment_trial","1","saving_a_cat_causal","causal_sequence","randomized","","","","",""
"","","","","","html-keyboard-response","58","132156","0.0-58.0","10DCCBD8FE8348138308ADFEF74EB272","019cf9bf-23f4-7a50-b4f2-1fda58550044","019cf99d-e445-78ae-88d0-91fe39b758eb","","null","<div style=""background-color: white; width: 100vw; height: 100vh;""></div>","null","","","","","","","","","",""
"","","","","","html-keyboard-response","59","133158","0.0-59.0","10DCCBD8FE8348138308ADFEF74EB272","019cf9bf-23f4-7a50-b4f2-1fda58550044","019cf99d-e445-78ae-88d0-91fe39b758eb","","null","
                <div class=""stimulus-container"">
                    <img src=""images/semantic_sequence/visiting_cities_semantic/visiting_cities_semantic_3.png"" class=""exp-image"">
                    <div class=""question-area""></div> 
                </div>","null","","","","","","","","","",""
"","","","","","html-button-response","60","134724","0.0-60.0","10DCCBD8FE8348138308ADFEF74EB272","019cf9bf-23f4-7a50-b4f2-1fda58550044","019cf99d-e445-78ae-88d0-91fe39b758eb","","1565","
                <div class=""stimulus-container"">
                    <img src=""images/semantic_sequence/visiting_cities_semantic/visiting_cities_semantic_3.png"" class=""exp-image"">
                    <div class=""question-area"">
                        <p style=""font-size: 20px; font-weight: bold; margin: 0;"">Is there a person in this image?</p>
                    </div>
                </div>","1","main_experiment_trial","3","visiting_cities_semantic","semantic_sequence","randomized","","","","",""
"","","","","","html-keyboard-response","61","135725","0.0-61.0","10DCCBD8FE8348138308ADFEF74EB272","019cf9bf-23f4-7a50-b4f2-1fda58550044","019cf99d-e445-78ae-88d0-91fe39b758eb","","null","
                <div class=""stimulus-container"">
                    <img src=""images/semantic_sequence/visiting_cities_semantic/visiting_cities_semantic_2.png"" class=""exp-image"">
                    <div class=""question-area""></div> 
                </div>","null","","","","","","","","","",""
"","","","","","html-button-response","62","136124","0.0-62.0","10DCCBD8FE8348138308ADFEF74EB272","019cf9bf-23f4-7a50-b4f2-1fda58550044","019cf99d-e445-78ae-88d0-91fe39b758eb","","398","
                <div class=""stimulus-container"">
                    <img src=""images/semantic_sequence/visiting_cities_semantic/visiting_cities_semantic_2.png"" class=""exp-image"">
                    <div class=""question-area"">
                        <p style=""font-size: 20px; font-weight: bold; margin: 0;"">Is there a person in this image?</p>
                    </div>
                </div>","1","main_experiment_trial","2","visiting_cities_semantic","semantic_sequence","randomized","","","","",""
"","","","","","html-keyboard-response","63","137125","0.0-63.0","10DCCBD8FE8348138308ADFEF74EB272","019cf9bf-23f4-7a50-b4f2-1fda58550044","019cf99d-e445-78ae-88d0-91fe39b758eb","","null","
                <div class=""stimulus-container"">
                    <img src=""images/semantic_sequence/visiting_cities_semantic/visiting_cities_semantic_9.png"" class=""exp-image"">
                    <div class=""question-area""></div> 
                </div>","null","","","","","","","","","",""
"","","","","","html-button-response","64","137535","0.0-64.0","10DCCBD8FE8348138308ADFEF74EB272","019cf9bf-23f4-7a50-b4f2-1fda58550044","019cf99d-e445-78ae-88d0-91fe39b758eb","","409","
                <div class=""stimulus-container"">
                    <img src=""images/semantic_sequence/visiting_cities_semantic/visiting_cities_semantic_9.png"" class=""exp-image"">
                    <div class=""question-area"">
                        <p style=""font-size: 20px; font-weight: bold; margin: 0;"">Is there a person in this image?</p>
                    </div>
                </div>","1","main_experiment_trial","9","visiting_cities_semantic","semantic_sequence","randomized","","","","",""
"","","","","","html-keyboard-response","65","138537","0.0-65.0","10DCCBD8FE8348138308ADFEF74EB272","019cf9bf-23f4-7a50-b4f2-1fda58550044","019cf99d-e445-78ae-88d0-91fe39b758eb","","null","
                <div class=""stimulus-container"">
                    <img src=""images/semantic_sequence/visiting_cities_semantic/visiting_cities_semantic_8.png"" class=""exp-image"">
                    <div class=""question-area""></div> 
                </div>","null","","","","","","","","","",""
"","","","","","html-button-response","66","138955","0.0-66.0","10DCCBD8FE8348138308ADFEF74EB272","019cf9bf-23f4-7a50-b4f2-1fda58550044","019cf99d-e445-78ae-88d0-91fe39b758eb","","417","
                <div class=""stimulus-container"">
                    <img src=""images/semantic_sequence/visiting_cities_semantic/visiting_cities_semantic_8.png"" class=""exp-image"">
                    <div class=""question-area"">
                        <p style=""font-size: 20px; font-weight: bold; margin: 0;"">Is there a person in this image?</p>
                    </div>
                </div>","1","main_experiment_trial","8","visiting_cities_semantic","semantic_sequence","randomized","","","","",""
"","","","","","html-keyboard-response","67","139957","0.0-67.0","10DCCBD8FE8348138308ADFEF74EB272","019cf9bf-23f4-7a50-b4f2-1fda58550044","019cf99d-e445-78ae-88d0-91fe39b758eb","","null","
                <div class=""stimulus-container"">
                    <img src=""images/semantic_sequence/visiting_cities_semantic/visiting_cities_semantic_ten.png"" class=""exp-image"">
                    <div class=""question-area""></div> 
                </div>","null","","","","","","","","","",""
"","","","","","html-button-response","68","141895","0.0-68.0","10DCCBD8FE8348138308ADFEF74EB272","019cf9bf-23f4-7a50-b4f2-1fda58550044","019cf99d-e445-78ae-88d0-91fe39b758eb","","1937","
                <div class=""stimulus-container"">
                    <img src=""images/semantic_sequence/visiting_cities_semantic/visiting_cities_semantic_ten.png"" class=""exp-image"">
                    <div class=""question-area"">
                        <p style=""font-size: 20px; font-weight: bold; margin: 0;"">Is there a person in this image?</p>
                    </div>
                </div>","1","main_experiment_trial","ten","visiting_cities_semantic","semantic_sequence","randomized","","","","",""
"","","","","","html-keyboard-response","69","142897","0.0-69.0","10DCCBD8FE8348138308ADFEF74EB272","019cf9bf-23f4-7a50-b4f2-1fda58550044","019cf99d-e445-78ae-88d0-91fe39b758eb","","null","
                <div class=""stimulus-container"">
                    <img src=""images/semantic_sequence/visiting_cities_semantic/visiting_cities_semantic_6.png"" class=""exp-image"">
                    <div class=""question-area""></div> 
                </div>","null","","","","","","","","","",""
"","","","","","html-button-response","70","143306","0.0-70.0","10DCCBD8FE8348138308ADFEF74EB272","019cf9bf-23f4-7a50-b4f2-1fda58550044","019cf99d-e445-78ae-88d0-91fe39b758eb","","408","
                <div class=""stimulus-container"">
                    <img src=""images/semantic_sequence/visiting_cities_semantic/visiting_cities_semantic_6.png"" class=""exp-image"">
                    <div class=""question-area"">
                        <p style=""font-size: 20px; font-weight: bold; margin: 0;"">Is there a person in this image?</p>
                    </div>
                </div>","1","main_experiment_trial","6","visiting_cities_semantic","semantic_sequence","randomized","","","","",""
"","","","","","html-keyboard-response","71","144307","0.0-71.0","10DCCBD8FE8348138308ADFEF74EB272","019cf9bf-23f4-7a50-b4f2-1fda58550044","019cf99d-e445-78ae-88d0-91fe39b758eb","","null","
                <div class=""stimulus-container"">
                    <img src=""images/semantic_sequence/visiting_cities_semantic/visiting_cities_semantic_7.png"" class=""exp-image"">
                    <div class=""question-area""></div> 
                </div>","null","","","","","","","","","",""
"","","","","","html-button-response","72","145609","0.0-72.0","10DCCBD8FE8348138308ADFEF74EB272","019cf9bf-23f4-7a50-b4f2-1fda58550044","019cf99d-e445-78ae-88d0-91fe39b758eb","","1301","
                <div class=""stimulus-container"">
                    <img src=""images/semantic_sequence/visiting_cities_semantic/visiting_cities_semantic_7.png"" class=""exp-image"">
                    <div class=""question-area"">
                        <p style=""font-size: 20px; font-weight: bold; margin: 0;"">Is there a person in this image?</p>
                    </div>
                </div>","0","main_experiment_trial","7","visiting_cities_semantic","semantic_sequence","randomized","","","","",""
"","","","","","html-keyboard-response","73","146610","0.0-73.0","10DCCBD8FE8348138308ADFEF74EB272","019cf9bf-23f4-7a50-b4f2-1fda58550044","019cf99d-e445-78ae-88d0-91fe39b758eb","","null","
                <div class=""stimulus-container"">
                    <img src=""images/semantic_sequence/visiting_cities_semantic/visiting_cities_semantic_4.png"" class=""exp-image"">
                    <div class=""question-area""></div> 
                </div>","null","","","","","","","","","",""
"","","","","","html-button-response","74","147259","0.0-74.0","10DCCBD8FE8348138308ADFEF74EB272","019cf9bf-23f4-7a50-b4f2-1fda58550044","019cf99d-e445-78ae-88d0-91fe39b758eb","","646","
                <div class=""stimulus-container"">
                    <img src=""images/semantic_sequence/visiting_cities_semantic/visiting_cities_semantic_4.png"" class=""exp-image"">
                    <div class=""question-area"">
                        <p style=""font-size: 20px; font-weight: bold; margin: 0;"">Is there a person in this image?</p>
                    </div>
                </div>","1","main_experiment_trial","4","visiting_cities_semantic","semantic_sequence","randomized","","","","",""
"","","","","","html-keyboard-response","75","148260","0.0-75.0","10DCCBD8FE8348138308ADFEF74EB272","019cf9bf-23f4-7a50-b4f2-1fda58550044","019cf99d-e445-78ae-88d0-91fe39b758eb","","null","
                <div class=""stimulus-container"">
                    <img src=""images/semantic_sequence/visiting_cities_semantic/visiting_cities_semantic_5.png"" class=""exp-image"">
                    <div class=""question-area""></div> 
                </div>","null","","","","","","","","","",""
"","","","","","html-button-response","76","148699","0.0-76.0","10DCCBD8FE8348138308ADFEF74EB272","019cf9bf-23f4-7a50-b4f2-1fda58550044","019cf99d-e445-78ae-88d0-91fe39b758eb","","437","
                <div class=""stimulus-container"">
                    <img src=""images/semantic_sequence/visiting_cities_semantic/visiting_cities_semantic_5.png"" class=""exp-image"">
                    <div class=""question-area"">
                        <p style=""font-size: 20px; font-weight: bold; margin: 0;"">Is there a person in this image?</p>
                    </div>
                </div>","1","main_experiment_trial","5","visiting_cities_semantic","semantic_sequence","randomized","","","","",""
"","","","","","html-keyboard-response","77","149700","0.0-77.0","10DCCBD8FE8348138308ADFEF74EB272","019cf9bf-23f4-7a50-b4f2-1fda58550044","019cf99d-e445-78ae-88d0-91fe39b758eb","","null","
                <div class=""stimulus-container"">
                    <img src=""images/semantic_sequence/visiting_cities_semantic/visiting_cities_semantic_1.png"" class=""exp-image"">
                    <div class=""question-area""></div> 
                </div>","null","","","","","","","","","",""
"","","","","","html-button-response","78","150397","0.0-78.0","10DCCBD8FE8348138308ADFEF74EB272","019cf9bf-23f4-7a50-b4f2-1fda58550044","019cf99d-e445-78ae-88d0-91fe39b758eb","","697","
                <div class=""stimulus-container"">
                    <img src=""images/semantic_sequence/visiting_cities_semantic/visiting_cities_semantic_1.png"" class=""exp-image"">
                    <div class=""question-area"">
                        <p style=""font-size: 20px; font-weight: bold; margin: 0;"">Is there a person in this image?</p>
                    </div>
                </div>","0","main_experiment_trial","1","visiting_cities_semantic","semantic_sequence","randomized","","","","",""
"","","","","","html-keyboard-response","79","155398","0.0-79.0","10DCCBD8FE8348138308ADFEF74EB272","019cf9bf-23f4-7a50-b4f2-1fda58550044","019cf99d-e445-78ae-88d0-91fe39b758eb","","null","<div style=""background-color: white; width: 100vw; height: 100vh;""></div>","null","","","","","","","","","",""
"","","","","","html-keyboard-response","80","156400","0.0-80.0","10DCCBD8FE8348138308ADFEF74EB272","019cf9bf-23f4-7a50-b4f2-1fda58550044","019cf99d-e445-78ae-88d0-91fe39b758eb","","null","
                <div class=""stimulus-container"">
                    <img src=""images/semantic_sequence/redecorating_a_house_semantic/redecorating_a_house_semantic_ten.png"" class=""exp-image"">
                    <div class=""question-area""></div> 
                </div>","null","","","","","","","","","",""
"","","","","","html-button-response","81","156845","0.0-81.0","10DCCBD8FE8348138308ADFEF74EB272","019cf9bf-23f4-7a50-b4f2-1fda58550044","019cf99d-e445-78ae-88d0-91fe39b758eb","","444","
                <div class=""stimulus-container"">
                    <img src=""images/semantic_sequence/redecorating_a_house_semantic/redecorating_a_house_semantic_ten.png"" class=""exp-image"">
                    <div class=""question-area"">
                        <p style=""font-size: 20px; font-weight: bold; margin: 0;"">Is there a person in this image?</p>
                    </div>
                </div>","0","main_experiment_trial","ten","redecorating_a_house_semantic","semantic_sequence","randomized","","","","",""
"","","","","","html-keyboard-response","82","157846","0.0-82.0","10DCCBD8FE8348138308ADFEF74EB272","019cf9bf-23f4-7a50-b4f2-1fda58550044","019cf99d-e445-78ae-88d0-91fe39b758eb","","null","
                <div class=""stimulus-container"">
                    <img src=""images/semantic_sequence/redecorating_a_house_semantic/redecorating_a_house_semantic_9.png"" class=""exp-image"">
                    <div class=""question-area""></div> 
                </div>","null","","","","","","","","","",""
"","","","","","html-button-response","83","158255","0.0-83.0","10DCCBD8FE8348138308ADFEF74EB272","019cf9bf-23f4-7a50-b4f2-1fda58550044","019cf99d-e445-78ae-88d0-91fe39b758eb","","407","
                <div class=""stimulus-container"">
                    <img src=""images/semantic_sequence/redecorating_a_house_semantic/redecorating_a_house_semantic_9.png"" class=""exp-image"">
                    <div class=""question-area"">
                        <p style=""font-size: 20px; font-weight: bold; margin: 0;"">Is there a person in this image?</p>
                    </div>
                </div>","0","main_experiment_trial","9","redecorating_a_house_semantic","semantic_sequence","randomized","","","","",""
"","","","","","html-keyboard-response","84","159256","0.0-84.0","10DCCBD8FE8348138308ADFEF74EB272","019cf9bf-23f4-7a50-b4f2-1fda58550044","019cf99d-e445-78ae-88d0-91fe39b758eb","","null","
                <div class=""stimulus-container"">
                    <img src=""images/semantic_sequence/redecorating_a_house_semantic/redecorating_a_house_semantic_8.png"" class=""exp-image"">
                    <div class=""question-area""></div> 
                </div>","null","","","","","","","","","",""
"","","","","","html-button-response","85","159685","0.0-85.0","10DCCBD8FE8348138308ADFEF74EB272","019cf9bf-23f4-7a50-b4f2-1fda58550044","019cf99d-e445-78ae-88d0-91fe39b758eb","","428","
                <div class=""stimulus-container"">
                    <img src=""images/semantic_sequence/redecorating_a_house_semantic/redecorating_a_house_semantic_8.png"" class=""exp-image"">
                    <div class=""question-area"">
                        <p style=""font-size: 20px; font-weight: bold; margin: 0;"">Is there a person in this image?</p>
                    </div>
                </div>","0","main_experiment_trial","8","redecorating_a_house_semantic","semantic_sequence","randomized","","","","",""
"","","","","","html-keyboard-response","86","160687","0.0-86.0","10DCCBD8FE8348138308ADFEF74EB272","019cf9bf-23f4-7a50-b4f2-1fda58550044","019cf99d-e445-78ae-88d0-91fe39b758eb","","null","
                <div class=""stimulus-container"">
                    <img src=""images/semantic_sequence/redecorating_a_house_semantic/redecorating_a_house_semantic_6.png"" class=""exp-image"">
                    <div class=""question-area""></div> 
                </div>","null","","","","","","","","","",""
"","","","","","html-button-response","87","161037","0.0-87.0","10DCCBD8FE8348138308ADFEF74EB272","019cf9bf-23f4-7a50-b4f2-1fda58550044","019cf99d-e445-78ae-88d0-91fe39b758eb","","349","
                <div class=""stimulus-container"">
                    <img src=""images/semantic_sequence/redecorating_a_house_semantic/redecorating_a_house_semantic_6.png"" class=""exp-image"">
                    <div class=""question-area"">
                        <p style=""font-size: 20px; font-weight: bold; margin: 0;"">Is there a person in this image?</p>
                    </div>
                </div>","0","main_experiment_trial","6","redecorating_a_house_semantic","semantic_sequence","randomized","","","","",""
"","","","","","html-keyboard-response","88","162038","0.0-88.0","10DCCBD8FE8348138308ADFEF74EB272","019cf9bf-23f4-7a50-b4f2-1fda58550044","019cf99d-e445-78ae-88d0-91fe39b758eb","","null","
                <div class=""stimulus-container"">
                    <img src=""images/semantic_sequence/redecorating_a_house_semantic/redecorating_a_house_semantic_1.png"" class=""exp-image"">
                    <div class=""question-area""></div> 
                </div>","null","","","","","","","","","",""
"","","","","","html-button-response","89","162407","0.0-89.0","10DCCBD8FE8348138308ADFEF74EB272","019cf9bf-23f4-7a50-b4f2-1fda58550044","019cf99d-e445-78ae-88d0-91fe39b758eb","","368","
                <div class=""stimulus-container"">
                    <img src=""images/semantic_sequence/redecorating_a_house_semantic/redecorating_a_house_semantic_1.png"" class=""exp-image"">
                    <div class=""question-area"">
                        <p style=""font-size: 20px; font-weight: bold; margin: 0;"">Is there a person in this image?</p>
                    </div>
                </div>","0","main_experiment_trial","1","redecorating_a_house_semantic","semantic_sequence","randomized","","","","",""
"","","","","","html-keyboard-response","90","163409","0.0-90.0","10DCCBD8FE8348138308ADFEF74EB272","019cf9bf-23f4-7a50-b4f2-1fda58550044","019cf99d-e445-78ae-88d0-91fe39b758eb","","null","
                <div class=""stimulus-container"">
                    <img src=""images/semantic_sequence/redecorating_a_house_semantic/redecorating_a_house_semantic_2.png"" class=""exp-image"">
                    <div class=""question-area""></div> 
                </div>","null","","","","","","","","","",""
"","","","","","html-button-response","91","163788","0.0-91.0","10DCCBD8FE8348138308ADFEF74EB272","019cf9bf-23f4-7a50-b4f2-1fda58550044","019cf99d-e445-78ae-88d0-91fe39b758eb","","378","
                <div class=""stimulus-container"">
                    <img src=""images/semantic_sequence/redecorating_a_house_semantic/redecorating_a_house_semantic_2.png"" class=""exp-image"">
                    <div class=""question-area"">
                        <p style=""font-size: 20px; font-weight: bold; margin: 0;"">Is there a person in this image?</p>
                    </div>
                </div>","0","main_experiment_trial","2","redecorating_a_house_semantic","semantic_sequence","randomized","","","","",""
"","","","","","html-keyboard-response","92","164789","0.0-92.0","10DCCBD8FE8348138308ADFEF74EB272","019cf9bf-23f4-7a50-b4f2-1fda58550044","019cf99d-e445-78ae-88d0-91fe39b758eb","","null","
                <div class=""stimulus-container"">
                    <img src=""images/semantic_sequence/redecorating_a_house_semantic/redecorating_a_house_semantic_4.png"" class=""exp-image"">
                    <div class=""question-area""></div> 
                </div>","null","","","","","","","","","",""
"","","","","","html-button-response","93","165270","0.0-93.0","10DCCBD8FE8348138308ADFEF74EB272","019cf9bf-23f4-7a50-b4f2-1fda58550044","019cf99d-e445-78ae-88d0-91fe39b758eb","","479","
                <div class=""stimulus-container"">
                    <img src=""images/semantic_sequence/redecorating_a_house_semantic/redecorating_a_house_semantic_4.png"" class=""exp-image"">
                    <div class=""question-area"">
                        <p style=""font-size: 20px; font-weight: bold; margin: 0;"">Is there a person in this image?</p>
                    </div>
                </div>","0","main_experiment_trial","4","redecorating_a_house_semantic","semantic_sequence","randomized","","","","",""
"","","","","","html-keyboard-response","94","166271","0.0-94.0","10DCCBD8FE8348138308ADFEF74EB272","019cf9bf-23f4-7a50-b4f2-1fda58550044","019cf99d-e445-78ae-88d0-91fe39b758eb","","null","
                <div class=""stimulus-container"">
                    <img src=""images/semantic_sequence/redecorating_a_house_semantic/redecorating_a_house_semantic_5.png"" class=""exp-image"">
                    <div class=""question-area""></div> 
                </div>","null","","","","","","","","","",""
"","","","","","html-button-response","95","166659","0.0-95.0","10DCCBD8FE8348138308ADFEF74EB272","019cf9bf-23f4-7a50-b4f2-1fda58550044","019cf99d-e445-78ae-88d0-91fe39b758eb","","388","
                <div class=""stimulus-container"">
                    <img src=""images/semantic_sequence/redecorating_a_house_semantic/redecorating_a_house_semantic_5.png"" class=""exp-image"">
                    <div class=""question-area"">
                        <p style=""font-size: 20px; font-weight: bold; margin: 0;"">Is there a person in this image?</p>
                    </div>
                </div>","0","main_experiment_trial","5","redecorating_a_house_semantic","semantic_sequence","randomized","","","","",""
"","","","","","html-keyboard-response","96","167661","0.0-96.0","10DCCBD8FE8348138308ADFEF74EB272","019cf9bf-23f4-7a50-b4f2-1fda58550044","019cf99d-e445-78ae-88d0-91fe39b758eb","","null","
                <div class=""stimulus-container"">
                    <img src=""images/semantic_sequence/redecorating_a_house_semantic/redecorating_a_house_semantic_3.png"" class=""exp-image"">
                    <div class=""question-area""></div> 
                </div>","null","","","","","","","","","",""
"","","","","","html-button-response","97","168518","0.0-97.0","10DCCBD8FE8348138308ADFEF74EB272","019cf9bf-23f4-7a50-b4f2-1fda58550044","019cf99d-e445-78ae-88d0-91fe39b758eb","","856","
                <div class=""stimulus-container"">
                    <img src=""images/semantic_sequence/redecorating_a_house_semantic/redecorating_a_house_semantic_3.png"" class=""exp-image"">
                    <div class=""question-area"">
                        <p style=""font-size: 20px; font-weight: bold; margin: 0;"">Is there a person in this image?</p>
                    </div>
                </div>","0","main_experiment_trial","3","redecorating_a_house_semantic","semantic_sequence","randomized","","","","",""
"","","","","","html-keyboard-response","98","169519","0.0-98.0","10DCCBD8FE8348138308ADFEF74EB272","019cf9bf-23f4-7a50-b4f2-1fda58550044","019cf99d-e445-78ae-88d0-91fe39b758eb","","null","
                <div class=""stimulus-container"">
                    <img src=""images/semantic_sequence/redecorating_a_house_semantic/redecorating_a_house_semantic_7.png"" class=""exp-image"">
                    <div class=""question-area""></div> 
                </div>","null","","","","","","","","","",""
"","","","","","html-button-response","99","169878","0.0-99.0","10DCCBD8FE8348138308ADFEF74EB272","019cf9bf-23f4-7a50-b4f2-1fda58550044","019cf99d-e445-78ae-88d0-91fe39b758eb","","358","
                <div class=""stimulus-container"">
                    <img src=""images/semantic_sequence/redecorating_a_house_semantic/redecorating_a_house_semantic_7.png"" class=""exp-image"">
                    <div class=""question-area"">
                        <p style=""font-size: 20px; font-weight: bold; margin: 0;"">Is there a person in this image?</p>
                    </div>
                </div>","0","main_experiment_trial","7","redecorating_a_house_semantic","semantic_sequence","randomized","","","","",""
"","","","","","html-keyboard-response","100","174879","0.0-100.0","10DCCBD8FE8348138308ADFEF74EB272","019cf9bf-23f4-7a50-b4f2-1fda58550044","019cf99d-e445-78ae-88d0-91fe39b758eb","","null","<div style=""background-color: white; width: 100vw; height: 100vh;""></div>","null","","","","","","","","","",""
"","","","","","html-keyboard-response","101","175880","0.0-101.0","10DCCBD8FE8348138308ADFEF74EB272","019cf9bf-23f4-7a50-b4f2-1fda58550044","019cf99d-e445-78ae-88d0-91fe39b758eb","","null","
                <div class=""stimulus-container"">
                    <img src=""images/causal_sequence/the_performance_causal/the_performance_causal_3.png"" class=""exp-image"">
                    <div class=""question-area""></div> 
                </div>","null","","","","","","","","","",""
"","","","","","html-button-response","102","176782","0.0-102.0","10DCCBD8FE8348138308ADFEF74EB272","019cf9bf-23f4-7a50-b4f2-1fda58550044","019cf99d-e445-78ae-88d0-91fe39b758eb","","900","
                <div class=""stimulus-container"">
                    <img src=""images/causal_sequence/the_performance_causal/the_performance_causal_3.png"" class=""exp-image"">
                    <div class=""question-area"">
                        <p style=""font-size: 20px; font-weight: bold; margin: 0;"">Is there a person in this image?</p>
                    </div>
                </div>","0","main_experiment_trial","3","the_performance_causal","causal_sequence","randomized","","","","",""
"","","","","","html-keyboard-response","103","177783","0.0-103.0","10DCCBD8FE8348138308ADFEF74EB272","019cf9bf-23f4-7a50-b4f2-1fda58550044","019cf99d-e445-78ae-88d0-91fe39b758eb","","null","
                <div class=""stimulus-container"">
                    <img src=""images/causal_sequence/the_performance_causal/the_performance_causal_7.png"" class=""exp-image"">
                    <div class=""question-area""></div> 
                </div>","null","","","","","","","","","",""
"","","","","","html-button-response","104","178103","0.0-104.0","10DCCBD8FE8348138308ADFEF74EB272","019cf9bf-23f4-7a50-b4f2-1fda58550044","019cf99d-e445-78ae-88d0-91fe39b758eb","","319","
                <div class=""stimulus-container"">
                    <img src=""images/causal_sequence/the_performance_causal/the_performance_causal_7.png"" class=""exp-image"">
                    <div class=""question-area"">
                        <p style=""font-size: 20px; font-weight: bold; margin: 0;"">Is there a person in this image?</p>
                    </div>
                </div>","0","main_experiment_trial","7","the_performance_causal","causal_sequence","randomized","","","","",""
"","","","","","html-keyboard-response","105","179105","0.0-105.0","10DCCBD8FE8348138308ADFEF74EB272","019cf9bf-23f4-7a50-b4f2-1fda58550044","019cf99d-e445-78ae-88d0-91fe39b758eb","","null","
                <div class=""stimulus-container"">
                    <img src=""images/causal_sequence/the_performance_causal/the_performance_causal_2.png"" class=""exp-image"">
                    <div class=""question-area""></div> 
                </div>","null","","","","","","","","","",""
"","","","","","html-button-response","106","179533","0.0-106.0","10DCCBD8FE8348138308ADFEF74EB272","019cf9bf-23f4-7a50-b4f2-1fda58550044","019cf99d-e445-78ae-88d0-91fe39b758eb","","427","
                <div class=""stimulus-container"">
                    <img src=""images/causal_sequence/the_performance_causal/the_performance_causal_2.png"" class=""exp-image"">
                    <div class=""question-area"">
                        <p style=""font-size: 20px; font-weight: bold; margin: 0;"">Is there a person in this image?</p>
                    </div>
                </div>","0","main_experiment_trial","2","the_performance_causal","causal_sequence","randomized","","","","",""
"","","","","","html-keyboard-response","107","180535","0.0-107.0","10DCCBD8FE8348138308ADFEF74EB272","019cf9bf-23f4-7a50-b4f2-1fda58550044","019cf99d-e445-78ae-88d0-91fe39b758eb","","null","
                <div class=""stimulus-container"">
                    <img src=""images/causal_sequence/the_performance_causal/the_performance_causal_1.png"" class=""exp-image"">
                    <div class=""question-area""></div> 
                </div>","null","","","","","","","","","",""
"","","","","","html-button-response","108","180944","0.0-108.0","10DCCBD8FE8348138308ADFEF74EB272","019cf9bf-23f4-7a50-b4f2-1fda58550044","019cf99d-e445-78ae-88d0-91fe39b758eb","","408","
                <div class=""stimulus-container"">
                    <img src=""images/causal_sequence/the_performance_causal/the_performance_causal_1.png"" class=""exp-image"">
                    <div class=""question-area"">
                        <p style=""font-size: 20px; font-weight: bold; margin: 0;"">Is there a person in this image?</p>
                    </div>
                </div>","0","main_experiment_trial","1","the_performance_causal","causal_sequence","randomized","","","","",""
"","","","","","html-keyboard-response","109","181945","0.0-109.0","10DCCBD8FE8348138308ADFEF74EB272","019cf9bf-23f4-7a50-b4f2-1fda58550044","019cf99d-e445-78ae-88d0-91fe39b758eb","","null","
                <div class=""stimulus-container"">
                    <img src=""images/causal_sequence/the_performance_causal/the_performance_causal_4.png"" class=""exp-image"">
                    <div class=""question-area""></div> 
                </div>","null","","","","","","","","","",""
"","","","","","html-button-response","110","182316","0.0-110.0","10DCCBD8FE8348138308ADFEF74EB272","019cf9bf-23f4-7a50-b4f2-1fda58550044","019cf99d-e445-78ae-88d0-91fe39b758eb","","369","
                <div class=""stimulus-container"">
                    <img src=""images/causal_sequence/the_performance_causal/the_performance_causal_4.png"" class=""exp-image"">
                    <div class=""question-area"">
                        <p style=""font-size: 20px; font-weight: bold; margin: 0;"">Is there a person in this image?</p>
                    </div>
                </div>","0","main_experiment_trial","4","the_performance_causal","causal_sequence","randomized","","","","",""
"","","","","","html-keyboard-response","111","183317","0.0-111.0","10DCCBD8FE8348138308ADFEF74EB272","019cf9bf-23f4-7a50-b4f2-1fda58550044","019cf99d-e445-78ae-88d0-91fe39b758eb","","null","
                <div class=""stimulus-container"">
                    <img src=""images/causal_sequence/the_performance_causal/the_performance_causal_ten.png"" class=""exp-image"">
                    <div class=""question-area""></div> 
                </div>","null","","","","","","","","","",""
"","","","","","html-button-response","112","183736","0.0-112.0","10DCCBD8FE8348138308ADFEF74EB272","019cf9bf-23f4-7a50-b4f2-1fda58550044","019cf99d-e445-78ae-88d0-91fe39b758eb","","417","
                <div class=""stimulus-container"">
                    <img src=""images/causal_sequence/the_performance_causal/the_performance_causal_ten.png"" class=""exp-image"">
                    <div class=""question-area"">
                        <p style=""font-size: 20px; font-weight: bold; margin: 0;"">Is there a person in this image?</p>
                    </div>
                </div>","0","main_experiment_trial","ten","the_performance_causal","causal_sequence","randomized","","","","",""
"","","","","","html-keyboard-response","113","184737","0.0-113.0","10DCCBD8FE8348138308ADFEF74EB272","019cf9bf-23f4-7a50-b4f2-1fda58550044","019cf99d-e445-78ae-88d0-91fe39b758eb","","null","
                <div class=""stimulus-container"">
                    <img src=""images/causal_sequence/the_performance_causal/the_performance_causal_9.png"" class=""exp-image"">
                    <div class=""question-area""></div> 
                </div>","null","","","","","","","","","",""
"","","","","","html-button-response","114","185067","0.0-114.0","10DCCBD8FE8348138308ADFEF74EB272","019cf9bf-23f4-7a50-b4f2-1fda58550044","019cf99d-e445-78ae-88d0-91fe39b758eb","","329","
                <div class=""stimulus-container"">
                    <img src=""images/causal_sequence/the_performance_causal/the_performance_causal_9.png"" class=""exp-image"">
                    <div class=""question-area"">
                        <p style=""font-size: 20px; font-weight: bold; margin: 0;"">Is there a person in this image?</p>
                    </div>
                </div>","0","main_experiment_trial","9","the_performance_causal","causal_sequence","randomized","","","","",""
"","","","","","html-keyboard-response","115","186068","0.0-115.0","10DCCBD8FE8348138308ADFEF74EB272","019cf9bf-23f4-7a50-b4f2-1fda58550044","019cf99d-e445-78ae-88d0-91fe39b758eb","","null","
                <div class=""stimulus-container"">
                    <img src=""images/causal_sequence/the_performance_causal/the_performance_causal_8.png"" class=""exp-image"">
                    <div class=""question-area""></div> 
                </div>","null","","","","","","","","","",""
"","","","","","html-button-response","116","186517","0.0-116.0","10DCCBD8FE8348138308ADFEF74EB272","019cf9bf-23f4-7a50-b4f2-1fda58550044","019cf99d-e445-78ae-88d0-91fe39b758eb","","448","
                <div class=""stimulus-container"">
                    <img src=""images/causal_sequence/the_performance_causal/the_performance_causal_8.png"" class=""exp-image"">
                    <div class=""question-area"">
                        <p style=""font-size: 20px; font-weight: bold; margin: 0;"">Is there a person in this image?</p>
                    </div>
                </div>","0","main_experiment_trial","8","the_performance_causal","causal_sequence","randomized","","","","",""
"","","","","","html-keyboard-response","117","187519","0.0-117.0","10DCCBD8FE8348138308ADFEF74EB272","019cf9bf-23f4-7a50-b4f2-1fda58550044","019cf99d-e445-78ae-88d0-91fe39b758eb","","null","
                <div class=""stimulus-container"">
                    <img src=""images/causal_sequence/the_performance_causal/the_performance_causal_6.png"" class=""exp-image"">
                    <div class=""question-area""></div> 
                </div>","null","","","","","","","","","",""
"","","","","","html-button-response","118","187927","0.0-118.0","10DCCBD8FE8348138308ADFEF74EB272","019cf9bf-23f4-7a50-b4f2-1fda58550044","019cf99d-e445-78ae-88d0-91fe39b758eb","","408","
                <div class=""stimulus-container"">
                    <img src=""images/causal_sequence/the_performance_causal/the_performance_causal_6.png"" class=""exp-image"">
                    <div class=""question-area"">
                        <p style=""font-size: 20px; font-weight: bold; margin: 0;"">Is there a person in this image?</p>
                    </div>
                </div>","0","main_experiment_trial","6","the_performance_causal","causal_sequence","randomized","","","","",""
"","","","","","html-keyboard-response","119","188929","0.0-119.0","10DCCBD8FE8348138308ADFEF74EB272","019cf9bf-23f4-7a50-b4f2-1fda58550044","019cf99d-e445-78ae-88d0-91fe39b758eb","","null","
                <div class=""stimulus-container"">
                    <img src=""images/causal_sequence/the_performance_causal/the_performance_causal_5.png"" class=""exp-image"">
                    <div class=""question-area""></div> 
                </div>","null","","","","","","","","","",""
"","","","","","html-button-response","120","189260","0.0-120.0","10DCCBD8FE8348138308ADFEF74EB272","019cf9bf-23f4-7a50-b4f2-1fda58550044","019cf99d-e445-78ae-88d0-91fe39b758eb","","330","
                <div class=""stimulus-container"">
                    <img src=""images/causal_sequence/the_performance_causal/the_performance_causal_5.png"" class=""exp-image"">
                    <div class=""question-area"">
                        <p style=""font-size: 20px; font-weight: bold; margin: 0;"">Is there a person in this image?</p>
                    </div>
                </div>","0","main_experiment_trial","5","the_performance_causal","causal_sequence","randomized","","","","",""
"","","","","","html-keyboard-response","121","194261","0.0-121.0","10DCCBD8FE8348138308ADFEF74EB272","019cf9bf-23f4-7a50-b4f2-1fda58550044","019cf99d-e445-78ae-88d0-91fe39b758eb","","null","<div style=""background-color: white; width: 100vw; height: 100vh;""></div>","null","","","","","","","","","",""
"","","","","","html-keyboard-response","122","195262","0.0-122.0","10DCCBD8FE8348138308ADFEF74EB272","019cf9bf-23f4-7a50-b4f2-1fda58550044","019cf99d-e445-78ae-88d0-91fe39b758eb","","null","
                <div class=""stimulus-container"">
                    <img src=""images/causal_sequence/coin_causal/coin_causal_4.png"" class=""exp-image"">
                    <div class=""question-area""></div> 
                </div>","null","","","","","","","","","",""
"","","","","","html-button-response","123","195896","0.0-123.0","10DCCBD8FE8348138308ADFEF74EB272","019cf9bf-23f4-7a50-b4f2-1fda58550044","019cf99d-e445-78ae-88d0-91fe39b758eb","","633","
                <div class=""stimulus-container"">
                    <img src=""images/causal_sequence/coin_causal/coin_causal_4.png"" class=""exp-image"">
                    <div class=""question-area"">
                        <p style=""font-size: 20px; font-weight: bold; margin: 0;"">Is there a person in this image?</p>
                    </div>
                </div>","0","main_experiment_trial","4","coin_causal","causal_sequence","randomized","","","","",""
"","","","","","html-keyboard-response","124","196897","0.0-124.0","10DCCBD8FE8348138308ADFEF74EB272","019cf9bf-23f4-7a50-b4f2-1fda58550044","019cf99d-e445-78ae-88d0-91fe39b758eb","","null","
                <div class=""stimulus-container"">
                    <img src=""images/causal_sequence/coin_causal/coin_causal_8.png"" class=""exp-image"">
                    <div class=""question-area""></div> 
                </div>","null","","","","","","","","","",""
"","","","","","html-button-response","125","197277","0.0-125.0","10DCCBD8FE8348138308ADFEF74EB272","019cf9bf-23f4-7a50-b4f2-1fda58550044","019cf99d-e445-78ae-88d0-91fe39b758eb","","379","
                <div class=""stimulus-container"">
                    <img src=""images/causal_sequence/coin_causal/coin_causal_8.png"" class=""exp-image"">
                    <div class=""question-area"">
                        <p style=""font-size: 20px; font-weight: bold; margin: 0;"">Is there a person in this image?</p>
                    </div>
                </div>","0","main_experiment_trial","8","coin_causal","causal_sequence","randomized","","","","",""
"","","","","","html-keyboard-response","126","198279","0.0-126.0","10DCCBD8FE8348138308ADFEF74EB272","019cf9bf-23f4-7a50-b4f2-1fda58550044","019cf99d-e445-78ae-88d0-91fe39b758eb","","null","
                <div class=""stimulus-container"">
                    <img src=""images/causal_sequence/coin_causal/coin_causal_7.png"" class=""exp-image"">
                    <div class=""question-area""></div> 
                </div>","null","","","","","","","","","",""
"","","","","","html-button-response","127","199075","0.0-127.0","10DCCBD8FE8348138308ADFEF74EB272","019cf9bf-23f4-7a50-b4f2-1fda58550044","019cf99d-e445-78ae-88d0-91fe39b758eb","","795","
                <div class=""stimulus-container"">
                    <img src=""images/causal_sequence/coin_causal/coin_causal_7.png"" class=""exp-image"">
                    <div class=""question-area"">
                        <p style=""font-size: 20px; font-weight: bold; margin: 0;"">Is there a person in this image?</p>
                    </div>
                </div>","1","main_experiment_trial","7","coin_causal","causal_sequence","randomized","","","","",""
"","","","","","html-keyboard-response","128","200076","0.0-128.0","10DCCBD8FE8348138308ADFEF74EB272","019cf9bf-23f4-7a50-b4f2-1fda58550044","019cf99d-e445-78ae-88d0-91fe39b758eb","","null","
                <div class=""stimulus-container"">
                    <img src=""images/causal_sequence/coin_causal/coin_causal_5.png"" class=""exp-image"">
                    <div class=""question-area""></div> 
                </div>","null","","","","","","","","","",""
"","","","","","html-button-response","129","200733","0.0-129.0","10DCCBD8FE8348138308ADFEF74EB272","019cf9bf-23f4-7a50-b4f2-1fda58550044","019cf99d-e445-78ae-88d0-91fe39b758eb","","656","
                <div class=""stimulus-container"">
                    <img src=""images/causal_sequence/coin_causal/coin_causal_5.png"" class=""exp-image"">
                    <div class=""question-area"">
                        <p style=""font-size: 20px; font-weight: bold; margin: 0;"">Is there a person in this image?</p>
                    </div>
                </div>","0","main_experiment_trial","5","coin_causal","causal_sequence","randomized","","","","",""
"","","","","","html-keyboard-response","130","201734","0.0-130.0","10DCCBD8FE8348138308ADFEF74EB272","019cf9bf-23f4-7a50-b4f2-1fda58550044","019cf99d-e445-78ae-88d0-91fe39b758eb","","null","
                <div class=""stimulus-container"">
                    <img src=""images/causal_sequence/coin_causal/coin_causal_2.png"" class=""exp-image"">
                    <div class=""question-area""></div> 
                </div>","null","","","","","","","","","",""
"","","","","","html-button-response","131","202095","0.0-131.0","10DCCBD8FE8348138308ADFEF74EB272","019cf9bf-23f4-7a50-b4f2-1fda58550044","019cf99d-e445-78ae-88d0-91fe39b758eb","","360","
                <div class=""stimulus-container"">
                    <img src=""images/causal_sequence/coin_causal/coin_causal_2.png"" class=""exp-image"">
                    <div class=""question-area"">
                        <p style=""font-size: 20px; font-weight: bold; margin: 0;"">Is there a person in this image?</p>
                    </div>
                </div>","0","main_experiment_trial","2","coin_causal","causal_sequence","randomized","","","","",""
"","","","","","html-keyboard-response","132","203096","0.0-132.0","10DCCBD8FE8348138308ADFEF74EB272","019cf9bf-23f4-7a50-b4f2-1fda58550044","019cf99d-e445-78ae-88d0-91fe39b758eb","","null","
                <div class=""stimulus-container"">
                    <img src=""images/causal_sequence/coin_causal/coin_causal_6.png"" class=""exp-image"">
                    <div class=""question-area""></div> 
                </div>","null","","","","","","","","","",""
"","","","","","html-button-response","133","203446","0.0-133.0","10DCCBD8FE8348138308ADFEF74EB272","019cf9bf-23f4-7a50-b4f2-1fda58550044","019cf99d-e445-78ae-88d0-91fe39b758eb","","349","
                <div class=""stimulus-container"">
                    <img src=""images/causal_sequence/coin_causal/coin_causal_6.png"" class=""exp-image"">
                    <div class=""question-area"">
                        <p style=""font-size: 20px; font-weight: bold; margin: 0;"">Is there a person in this image?</p>
                    </div>
                </div>","0","main_experiment_trial","6","coin_causal","causal_sequence","randomized","","","","",""
"","","","","","html-keyboard-response","134","204448","0.0-134.0","10DCCBD8FE8348138308ADFEF74EB272","019cf9bf-23f4-7a50-b4f2-1fda58550044","019cf99d-e445-78ae-88d0-91fe39b758eb","","null","
                <div class=""stimulus-container"">
                    <img src=""images/causal_sequence/coin_causal/coin_causal_ten.png"" class=""exp-image"">
                    <div class=""question-area""></div> 
                </div>","null","","","","","","","","","",""
"","","","","","html-button-response","135","204777","0.0-135.0","10DCCBD8FE8348138308ADFEF74EB272","019cf9bf-23f4-7a50-b4f2-1fda58550044","019cf99d-e445-78ae-88d0-91fe39b758eb","","328","
                <div class=""stimulus-container"">
                    <img src=""images/causal_sequence/coin_causal/coin_causal_ten.png"" class=""exp-image"">
                    <div class=""question-area"">
                        <p style=""font-size: 20px; font-weight: bold; margin: 0;"">Is there a person in this image?</p>
                    </div>
                </div>","0","main_experiment_trial","ten","coin_causal","causal_sequence","randomized","","","","",""
"","","","","","html-keyboard-response","136","205778","0.0-136.0","10DCCBD8FE8348138308ADFEF74EB272","019cf9bf-23f4-7a50-b4f2-1fda58550044","019cf99d-e445-78ae-88d0-91fe39b758eb","","null","
                <div class=""stimulus-container"">
                    <img src=""images/causal_sequence/coin_causal/coin_causal_1.png"" class=""exp-image"">
                    <div class=""question-area""></div> 
                </div>","null","","","","","","","","","",""
"","","","","","html-button-response","137","206098","0.0-137.0","10DCCBD8FE8348138308ADFEF74EB272","019cf9bf-23f4-7a50-b4f2-1fda58550044","019cf99d-e445-78ae-88d0-91fe39b758eb","","318","
                <div class=""stimulus-container"">
                    <img src=""images/causal_sequence/coin_causal/coin_causal_1.png"" class=""exp-image"">
                    <div class=""question-area"">
                        <p style=""font-size: 20px; font-weight: bold; margin: 0;"">Is there a person in this image?</p>
                    </div>
                </div>","0","main_experiment_trial","1","coin_causal","causal_sequence","randomized","","","","",""
"","","","","","html-keyboard-response","138","207099","0.0-138.0","10DCCBD8FE8348138308ADFEF74EB272","019cf9bf-23f4-7a50-b4f2-1fda58550044","019cf99d-e445-78ae-88d0-91fe39b758eb","","null","
                <div class=""stimulus-container"">
                    <img src=""images/causal_sequence/coin_causal/coin_causal_9.png"" class=""exp-image"">
                    <div class=""question-area""></div> 
                </div>","null","","","","","","","","","",""
"","","","","","html-button-response","139","207459","0.0-139.0","10DCCBD8FE8348138308ADFEF74EB272","019cf9bf-23f4-7a50-b4f2-1fda58550044","019cf99d-e445-78ae-88d0-91fe39b758eb","","359","
                <div class=""stimulus-container"">
                    <img src=""images/causal_sequence/coin_causal/coin_causal_9.png"" class=""exp-image"">
                    <div class=""question-area"">
                        <p style=""font-size: 20px; font-weight: bold; margin: 0;"">Is there a person in this image?</p>
                    </div>
                </div>","0","main_experiment_trial","9","coin_causal","causal_sequence","randomized","","","","",""
"","","","","","html-keyboard-response","140","208461","0.0-140.0","10DCCBD8FE8348138308ADFEF74EB272","019cf9bf-23f4-7a50-b4f2-1fda58550044","019cf99d-e445-78ae-88d0-91fe39b758eb","","null","
                <div class=""stimulus-container"">
                    <img src=""images/causal_sequence/coin_causal/coin_causal_3.png"" class=""exp-image"">
                    <div class=""question-area""></div> 
                </div>","null","","","","","","","","","",""
"","","","","","html-button-response","141","208800","0.0-141.0","10DCCBD8FE8348138308ADFEF74EB272","019cf9bf-23f4-7a50-b4f2-1fda58550044","019cf99d-e445-78ae-88d0-91fe39b758eb","","338","
                <div class=""stimulus-container"">
                    <img src=""images/causal_sequence/coin_causal/coin_causal_3.png"" class=""exp-image"">
                    <div class=""question-area"">
                        <p style=""font-size: 20px; font-weight: bold; margin: 0;"">Is there a person in this image?</p>
                    </div>
                </div>","0","main_experiment_trial","3","coin_causal","causal_sequence","randomized","","","","",""
"","","","","","html-keyboard-response","142","213801","0.0-142.0","10DCCBD8FE8348138308ADFEF74EB272","019cf9bf-23f4-7a50-b4f2-1fda58550044","019cf99d-e445-78ae-88d0-91fe39b758eb","","null","<div style=""background-color: white; width: 100vw; height: 100vh;""></div>","null","","","","","","","","","",""
"","","","","","html-keyboard-response","143","214802","0.0-143.0","10DCCBD8FE8348138308ADFEF74EB272","019cf9bf-23f4-7a50-b4f2-1fda58550044","019cf99d-e445-78ae-88d0-91fe39b758eb","","null","
                <div class=""stimulus-container"">
                    <img src=""images/semantic_sequence/market_semantic/market_semantic_4.png"" class=""exp-image"">
                    <div class=""question-area""></div> 
                </div>","null","","","","","","","","","",""
"","","","","","html-button-response","144","216469","0.0-144.0","10DCCBD8FE8348138308ADFEF74EB272","019cf9bf-23f4-7a50-b4f2-1fda58550044","019cf99d-e445-78ae-88d0-91fe39b758eb","","1666","
                <div class=""stimulus-container"">
                    <img src=""images/semantic_sequence/market_semantic/market_semantic_4.png"" class=""exp-image"">
                    <div class=""question-area"">
                        <p style=""font-size: 20px; font-weight: bold; margin: 0;"">Is there a person in this image?</p>
                    </div>
                </div>","0","main_experiment_trial","4","market_semantic","semantic_sequence","randomized","","","","",""
"","","","","","html-keyboard-response","145","217470","0.0-145.0","10DCCBD8FE8348138308ADFEF74EB272","019cf9bf-23f4-7a50-b4f2-1fda58550044","019cf99d-e445-78ae-88d0-91fe39b758eb","","null","
                <div class=""stimulus-container"">
                    <img src=""images/semantic_sequence/market_semantic/market_semantic_9.png"" class=""exp-image"">
                    <div class=""question-area""></div> 
                </div>","null","","","","","","","","","",""
"","","","","","html-button-response","146","219885","0.0-146.0","10DCCBD8FE8348138308ADFEF74EB272","019cf9bf-23f4-7a50-b4f2-1fda58550044","019cf99d-e445-78ae-88d0-91fe39b758eb","","2413","
                <div class=""stimulus-container"">
                    <img src=""images/semantic_sequence/market_semantic/market_semantic_9.png"" class=""exp-image"">
                    <div class=""question-area"">
                        <p style=""font-size: 20px; font-weight: bold; margin: 0;"">Is there a person in this image?</p>
                    </div>
                </div>","0","main_experiment_trial","9","market_semantic","semantic_sequence","randomized","","","","",""
"","","","","","html-keyboard-response","147","220886","0.0-147.0","10DCCBD8FE8348138308ADFEF74EB272","019cf9bf-23f4-7a50-b4f2-1fda58550044","019cf99d-e445-78ae-88d0-91fe39b758eb","","null","
                <div class=""stimulus-container"">
                    <img src=""images/semantic_sequence/market_semantic/market_semantic_1.png"" class=""exp-image"">
                    <div class=""question-area""></div> 
                </div>","null","","","","","","","","","",""
"","","","","","html-button-response","148","221416","0.0-148.0","10DCCBD8FE8348138308ADFEF74EB272","019cf9bf-23f4-7a50-b4f2-1fda58550044","019cf99d-e445-78ae-88d0-91fe39b758eb","","529","
                <div class=""stimulus-container"">
                    <img src=""images/semantic_sequence/market_semantic/market_semantic_1.png"" class=""exp-image"">
                    <div class=""question-area"">
                        <p style=""font-size: 20px; font-weight: bold; margin: 0;"">Is there a person in this image?</p>
                    </div>
                </div>","1","main_experiment_trial","1","market_semantic","semantic_sequence","randomized","","","","",""
"","","","","","html-keyboard-response","149","222417","0.0-149.0","10DCCBD8FE8348138308ADFEF74EB272","019cf9bf-23f4-7a50-b4f2-1fda58550044","019cf99d-e445-78ae-88d0-91fe39b758eb","","null","
                <div class=""stimulus-container"">
                    <img src=""images/semantic_sequence/market_semantic/market_semantic_7.png"" class=""exp-image"">
                    <div class=""question-area""></div> 
                </div>","null","","","","","","","","","",""
"","","","","","html-button-response","150","222985","0.0-150.0","10DCCBD8FE8348138308ADFEF74EB272","019cf9bf-23f4-7a50-b4f2-1fda58550044","019cf99d-e445-78ae-88d0-91fe39b758eb","","567","
                <div class=""stimulus-container"">
                    <img src=""images/semantic_sequence/market_semantic/market_semantic_7.png"" class=""exp-image"">
                    <div class=""question-area"">
                        <p style=""font-size: 20px; font-weight: bold; margin: 0;"">Is there a person in this image?</p>
                    </div>
                </div>","0","main_experiment_trial","7","market_semantic","semantic_sequence","randomized","","","","",""
"","","","","","html-keyboard-response","151","223987","0.0-151.0","10DCCBD8FE8348138308ADFEF74EB272","019cf9bf-23f4-7a50-b4f2-1fda58550044","019cf99d-e445-78ae-88d0-91fe39b758eb","","null","
                <div class=""stimulus-container"">
                    <img src=""images/semantic_sequence/market_semantic/market_semantic_6.png"" class=""exp-image"">
                    <div class=""question-area""></div> 
                </div>","null","","","","","","","","","",""
"","","","","","html-button-response","152","225240","0.0-152.0","10DCCBD8FE8348138308ADFEF74EB272","019cf9bf-23f4-7a50-b4f2-1fda58550044","019cf99d-e445-78ae-88d0-91fe39b758eb","","1252","
                <div class=""stimulus-container"">
                    <img src=""images/semantic_sequence/market_semantic/market_semantic_6.png"" class=""exp-image"">
                    <div class=""question-area"">
                        <p style=""font-size: 20px; font-weight: bold; margin: 0;"">Is there a person in this image?</p>
                    </div>
                </div>","0","main_experiment_trial","6","market_semantic","semantic_sequence","randomized","","","","",""
"","","","","","html-keyboard-response","153","226241","0.0-153.0","10DCCBD8FE8348138308ADFEF74EB272","019cf9bf-23f4-7a50-b4f2-1fda58550044","019cf99d-e445-78ae-88d0-91fe39b758eb","","null","
                <div class=""stimulus-container"">
                    <img src=""images/semantic_sequence/market_semantic/market_semantic_8.png"" class=""exp-image"">
                    <div class=""question-area""></div> 
                </div>","null","","","","","","","","","",""
"","","","","","html-button-response","154","227605","0.0-154.0","10DCCBD8FE8348138308ADFEF74EB272","019cf9bf-23f4-7a50-b4f2-1fda58550044","019cf99d-e445-78ae-88d0-91fe39b758eb","","1362","
                <div class=""stimulus-container"">
                    <img src=""images/semantic_sequence/market_semantic/market_semantic_8.png"" class=""exp-image"">
                    <div class=""question-area"">
                        <p style=""font-size: 20px; font-weight: bold; margin: 0;"">Is there a person in this image?</p>
                    </div>
                </div>","1","main_experiment_trial","8","market_semantic","semantic_sequence","randomized","","","","",""
"","","","","","html-keyboard-response","155","228606","0.0-155.0","10DCCBD8FE8348138308ADFEF74EB272","019cf9bf-23f4-7a50-b4f2-1fda58550044","019cf99d-e445-78ae-88d0-91fe39b758eb","","null","
                <div class=""stimulus-container"">
                    <img src=""images/semantic_sequence/market_semantic/market_semantic_ten.png"" class=""exp-image"">
                    <div class=""question-area""></div> 
                </div>","null","","","","","","","","","",""
"","","","","","html-button-response","156","230068","0.0-156.0","10DCCBD8FE8348138308ADFEF74EB272","019cf9bf-23f4-7a50-b4f2-1fda58550044","019cf99d-e445-78ae-88d0-91fe39b758eb","","1461","
                <div class=""stimulus-container"">
                    <img src=""images/semantic_sequence/market_semantic/market_semantic_ten.png"" class=""exp-image"">
                    <div class=""question-area"">
                        <p style=""font-size: 20px; font-weight: bold; margin: 0;"">Is there a person in this image?</p>
                    </div>
                </div>","1","main_experiment_trial","ten","market_semantic","semantic_sequence","randomized","","","","",""
"","","","","","html-keyboard-response","157","231069","0.0-157.0","10DCCBD8FE8348138308ADFEF74EB272","019cf9bf-23f4-7a50-b4f2-1fda58550044","019cf99d-e445-78ae-88d0-91fe39b758eb","","null","
                <div class=""stimulus-container"">
                    <img src=""images/semantic_sequence/market_semantic/market_semantic_3.png"" class=""exp-image"">
                    <div class=""question-area""></div> 
                </div>","null","","","","","","","","","",""
"","","","","","html-button-response","158","231470","0.0-158.0","10DCCBD8FE8348138308ADFEF74EB272","019cf9bf-23f4-7a50-b4f2-1fda58550044","019cf99d-e445-78ae-88d0-91fe39b758eb","","399","
                <div class=""stimulus-container"">
                    <img src=""images/semantic_sequence/market_semantic/market_semantic_3.png"" class=""exp-image"">
                    <div class=""question-area"">
                        <p style=""font-size: 20px; font-weight: bold; margin: 0;"">Is there a person in this image?</p>
                    </div>
                </div>","1","main_experiment_trial","3","market_semantic","semantic_sequence","randomized","","","","",""
"","","","","","html-keyboard-response","159","232471","0.0-159.0","10DCCBD8FE8348138308ADFEF74EB272","019cf9bf-23f4-7a50-b4f2-1fda58550044","019cf99d-e445-78ae-88d0-91fe39b758eb","","null","
                <div class=""stimulus-container"">
                    <img src=""images/semantic_sequence/market_semantic/market_semantic_5.png"" class=""exp-image"">
                    <div class=""question-area""></div> 
                </div>","null","","","","","","","","","",""
"","","","","","html-button-response","160","232820","0.0-160.0","10DCCBD8FE8348138308ADFEF74EB272","019cf9bf-23f4-7a50-b4f2-1fda58550044","019cf99d-e445-78ae-88d0-91fe39b758eb","","348","
                <div class=""stimulus-container"">
                    <img src=""images/semantic_sequence/market_semantic/market_semantic_5.png"" class=""exp-image"">
                    <div class=""question-area"">
                        <p style=""font-size: 20px; font-weight: bold; margin: 0;"">Is there a person in this image?</p>
                    </div>
                </div>","1","main_experiment_trial","5","market_semantic","semantic_sequence","randomized","","","","",""
"","","","","","html-keyboard-response","161","233822","0.0-161.0","10DCCBD8FE8348138308ADFEF74EB272","019cf9bf-23f4-7a50-b4f2-1fda58550044","019cf99d-e445-78ae-88d0-91fe39b758eb","","null","
                <div class=""stimulus-container"">
                    <img src=""images/semantic_sequence/market_semantic/market_semantic_2.png"" class=""exp-image"">
                    <div class=""question-area""></div> 
                </div>","null","","","","","","","","","",""
"","","","","","html-button-response","162","234151","0.0-162.0","10DCCBD8FE8348138308ADFEF74EB272","019cf9bf-23f4-7a50-b4f2-1fda58550044","019cf99d-e445-78ae-88d0-91fe39b758eb","","329","
                <div class=""stimulus-container"">
                    <img src=""images/semantic_sequence/market_semantic/market_semantic_2.png"" class=""exp-image"">
                    <div class=""question-area"">
                        <p style=""font-size: 20px; font-weight: bold; margin: 0;"">Is there a person in this image?</p>
                    </div>
                </div>","1","main_experiment_trial","2","market_semantic","semantic_sequence","randomized","","","","",""
"","","","","","html-keyboard-response","163","239153","0.0-163.0","10DCCBD8FE8348138308ADFEF74EB272","019cf9bf-23f4-7a50-b4f2-1fda58550044","019cf99d-e445-78ae-88d0-91fe39b758eb","","null","<div style=""background-color: white; width: 100vw; height: 100vh;""></div>","null","","","","","","","","","",""
"","","","","","html-keyboard-response","164","240154","0.0-164.0","10DCCBD8FE8348138308ADFEF74EB272","019cf9bf-23f4-7a50-b4f2-1fda58550044","019cf99d-e445-78ae-88d0-91fe39b758eb","","null","
                <div class=""stimulus-container"">
                    <img src=""images/semantic_sequence/using_technology_semantic/using_technology_semantic_3.png"" class=""exp-image"">
                    <div class=""question-area""></div> 
                </div>","null","","","","","","","","","",""
"","","","","","html-button-response","165","240650","0.0-165.0","10DCCBD8FE8348138308ADFEF74EB272","019cf9bf-23f4-7a50-b4f2-1fda58550044","019cf99d-e445-78ae-88d0-91fe39b758eb","","495","
                <div class=""stimulus-container"">
                    <img src=""images/semantic_sequence/using_technology_semantic/using_technology_semantic_3.png"" class=""exp-image"">
                    <div class=""question-area"">
                        <p style=""font-size: 20px; font-weight: bold; margin: 0;"">Is there a person in this image?</p>
                    </div>
                </div>","0","main_experiment_trial","3","using_technology_semantic","semantic_sequence","randomized","","","","",""
"","","","","","html-keyboard-response","166","241651","0.0-166.0","10DCCBD8FE8348138308ADFEF74EB272","019cf9bf-23f4-7a50-b4f2-1fda58550044","019cf99d-e445-78ae-88d0-91fe39b758eb","","null","
                <div class=""stimulus-container"">
                    <img src=""images/semantic_sequence/using_technology_semantic/using_technology_semantic_ten.png"" class=""exp-image"">
                    <div class=""question-area""></div> 
                </div>","null","","","","","","","","","",""
"","","","","","html-button-response","167","242030","0.0-167.0","10DCCBD8FE8348138308ADFEF74EB272","019cf9bf-23f4-7a50-b4f2-1fda58550044","019cf99d-e445-78ae-88d0-91fe39b758eb","","378","
                <div class=""stimulus-container"">
                    <img src=""images/semantic_sequence/using_technology_semantic/using_technology_semantic_ten.png"" class=""exp-image"">
                    <div class=""question-area"">
                        <p style=""font-size: 20px; font-weight: bold; margin: 0;"">Is there a person in this image?</p>
                    </div>
                </div>","0","main_experiment_trial","ten","using_technology_semantic","semantic_sequence","randomized","","","","",""
"","","","","","html-keyboard-response","168","243032","0.0-168.0","10DCCBD8FE8348138308ADFEF74EB272","019cf9bf-23f4-7a50-b4f2-1fda58550044","019cf99d-e445-78ae-88d0-91fe39b758eb","","null","
                <div class=""stimulus-container"">
                    <img src=""images/semantic_sequence/using_technology_semantic/using_technology_semantic_4.png"" class=""exp-image"">
                    <div class=""question-area""></div> 
                </div>","null","","","","","","","","","",""
"","","","","","html-button-response","169","243331","0.0-169.0","10DCCBD8FE8348138308ADFEF74EB272","019cf9bf-23f4-7a50-b4f2-1fda58550044","019cf99d-e445-78ae-88d0-91fe39b758eb","","298","
                <div class=""stimulus-container"">
                    <img src=""images/semantic_sequence/using_technology_semantic/using_technology_semantic_4.png"" class=""exp-image"">
                    <div class=""question-area"">
                        <p style=""font-size: 20px; font-weight: bold; margin: 0;"">Is there a person in this image?</p>
                    </div>
                </div>","0","main_experiment_trial","4","using_technology_semantic","semantic_sequence","randomized","","","","",""
"","","","","","html-keyboard-response","170","244332","0.0-170.0","10DCCBD8FE8348138308ADFEF74EB272","019cf9bf-23f4-7a50-b4f2-1fda58550044","019cf99d-e445-78ae-88d0-91fe39b758eb","","null","
                <div class=""stimulus-container"">
                    <img src=""images/semantic_sequence/using_technology_semantic/using_technology_semantic_7.png"" class=""exp-image"">
                    <div class=""question-area""></div> 
                </div>","null","","","","","","","","","",""
"","","","","","html-button-response","171","244693","0.0-171.0","10DCCBD8FE8348138308ADFEF74EB272","019cf9bf-23f4-7a50-b4f2-1fda58550044","019cf99d-e445-78ae-88d0-91fe39b758eb","","359","
                <div class=""stimulus-container"">
                    <img src=""images/semantic_sequence/using_technology_semantic/using_technology_semantic_7.png"" class=""exp-image"">
                    <div class=""question-area"">
                        <p style=""font-size: 20px; font-weight: bold; margin: 0;"">Is there a person in this image?</p>
                    </div>
                </div>","0","main_experiment_trial","7","using_technology_semantic","semantic_sequence","randomized","","","","",""
"","","","","","html-keyboard-response","172","245694","0.0-172.0","10DCCBD8FE8348138308ADFEF74EB272","019cf9bf-23f4-7a50-b4f2-1fda58550044","019cf99d-e445-78ae-88d0-91fe39b758eb","","null","
                <div class=""stimulus-container"">
                    <img src=""images/semantic_sequence/using_technology_semantic/using_technology_semantic_2.png"" class=""exp-image"">
                    <div class=""question-area""></div> 
                </div>","null","","","","","","","","","",""
"","","","","","html-button-response","173","246023","0.0-173.0","10DCCBD8FE8348138308ADFEF74EB272","019cf9bf-23f4-7a50-b4f2-1fda58550044","019cf99d-e445-78ae-88d0-91fe39b758eb","","328","
                <div class=""stimulus-container"">
                    <img src=""images/semantic_sequence/using_technology_semantic/using_technology_semantic_2.png"" class=""exp-image"">
                    <div class=""question-area"">
                        <p style=""font-size: 20px; font-weight: bold; margin: 0;"">Is there a person in this image?</p>
                    </div>
                </div>","0","main_experiment_trial","2","using_technology_semantic","semantic_sequence","randomized","","","","",""
"","","","","","html-keyboard-response","174","247024","0.0-174.0","10DCCBD8FE8348138308ADFEF74EB272","019cf9bf-23f4-7a50-b4f2-1fda58550044","019cf99d-e445-78ae-88d0-91fe39b758eb","","null","
                <div class=""stimulus-container"">
                    <img src=""images/semantic_sequence/using_technology_semantic/using_technology_semantic_6.png"" class=""exp-image"">
                    <div class=""question-area""></div> 
                </div>","null","","","","","","","","","",""
"","","","","","html-button-response","175","247374","0.0-175.0","10DCCBD8FE8348138308ADFEF74EB272","019cf9bf-23f4-7a50-b4f2-1fda58550044","019cf99d-e445-78ae-88d0-91fe39b758eb","","349","
                <div class=""stimulus-container"">
                    <img src=""images/semantic_sequence/using_technology_semantic/using_technology_semantic_6.png"" class=""exp-image"">
                    <div class=""question-area"">
                        <p style=""font-size: 20px; font-weight: bold; margin: 0;"">Is there a person in this image?</p>
                    </div>
                </div>","0","main_experiment_trial","6","using_technology_semantic","semantic_sequence","randomized","","","","",""
"","","","","","html-keyboard-response","176","248376","0.0-176.0","10DCCBD8FE8348138308ADFEF74EB272","019cf9bf-23f4-7a50-b4f2-1fda58550044","019cf99d-e445-78ae-88d0-91fe39b758eb","","null","
                <div class=""stimulus-container"">
                    <img src=""images/semantic_sequence/using_technology_semantic/using_technology_semantic_1.png"" class=""exp-image"">
                    <div class=""question-area""></div> 
                </div>","null","","","","","","","","","",""
"","","","","","html-button-response","177","248705","0.0-177.0","10DCCBD8FE8348138308ADFEF74EB272","019cf9bf-23f4-7a50-b4f2-1fda58550044","019cf99d-e445-78ae-88d0-91fe39b758eb","","328","
                <div class=""stimulus-container"">
                    <img src=""images/semantic_sequence/using_technology_semantic/using_technology_semantic_1.png"" class=""exp-image"">
                    <div class=""question-area"">
                        <p style=""font-size: 20px; font-weight: bold; margin: 0;"">Is there a person in this image?</p>
                    </div>
