"success","timeout","failed_images","failed_audio","failed_video","trial_type","trial_index","time_elapsed","internal_node_id","subject_id","study_id","session_id","view_history","rt","stimulus","response","task","image_index","folder","sequence_type","valuable_image_index","reward_type","chosen_image_index","target_X","correct_choice"
"true","false","[]","[]","[]","preload","0","1600","0.0-0.0","85257BBEDAE945D09D130D88B592DF81","019cf49a-1552-78ae-96cf-9ab9095bea89","019cf498-06e0-702e-b525-9cde1ad77653","","","","","","","","","","","","",""
"","","","","","instructions","1","274449","0.0-1.0","85257BBEDAE945D09D130D88B592DF81","019cf49a-1552-78ae-96cf-9ab9095bea89","019cf498-06e0-702e-b525-9cde1ad77653","[{""page_index"":0,""viewing_time"":272847}]","272847","","","","","","","","","","",""
"","","","","","instructions","2","306200","0.0-2.0","85257BBEDAE945D09D130D88B592DF81","019cf49a-1552-78ae-96cf-9ab9095bea89","019cf498-06e0-702e-b525-9cde1ad77653","[{""page_index"":0,""viewing_time"":31751}]","31751","","","","","","","","","","",""
"true","","","","","fullscreen","3","309701","0.0-3.0","85257BBEDAE945D09D130D88B592DF81","019cf49a-1552-78ae-96cf-9ab9095bea89","019cf498-06e0-702e-b525-9cde1ad77653","","2495","","","","","","","","","","",""
"","","","","","instructions","4","318663","0.0-4.0","85257BBEDAE945D09D130D88B592DF81","019cf49a-1552-78ae-96cf-9ab9095bea89","019cf498-06e0-702e-b525-9cde1ad77653","[{""page_index"":0,""viewing_time"":8963}]","8963","","","","","","","","","","",""
"","","","","","instructions","5","327984","0.0-5.0","85257BBEDAE945D09D130D88B592DF81","019cf49a-1552-78ae-96cf-9ab9095bea89","019cf498-06e0-702e-b525-9cde1ad77653","[{""page_index"":0,""viewing_time"":9320}]","9320","","","","","","","","","","",""
"","","","","","html-keyboard-response","6","331988","0.0-6.0","85257BBEDAE945D09D130D88B592DF81","019cf49a-1552-78ae-96cf-9ab9095bea89","019cf498-06e0-702e-b525-9cde1ad77653","","null","
                <div class=""stimulus-container"">
                    <img src=""images/instructions/movie_1.png"" class=""exp-image"">
                    <div class=""question-area""></div> 
                </div>","null","","","","","","","","",""
"","","","","","html-button-response","7","334664","0.0-7.0","85257BBEDAE945D09D130D88B592DF81","019cf49a-1552-78ae-96cf-9ab9095bea89","019cf498-06e0-702e-b525-9cde1ad77653","","2674","
                <div class=""stimulus-container"">
                    <img src=""images/instructions/movie_1.png"" class=""exp-image"">
                    <div class=""question-area"">
                        <p style=""font-size: 20px; font-weight: bold; margin: 0;"">Was there a person in this image?</p>
                    </div>
                </div>","0","example_question","1","","","","","","",""
"","","","","","html-keyboard-response","8","338665","0.0-8.0","85257BBEDAE945D09D130D88B592DF81","019cf49a-1552-78ae-96cf-9ab9095bea89","019cf498-06e0-702e-b525-9cde1ad77653","","null","
                <div class=""stimulus-container"">
                    <img src=""images/instructions/movie_2.png"" class=""exp-image"">
                    <div class=""question-area""></div> 
                </div>","null","","","","","","","","",""
"","","","","","html-button-response","9","339832","0.0-9.0","85257BBEDAE945D09D130D88B592DF81","019cf49a-1552-78ae-96cf-9ab9095bea89","019cf498-06e0-702e-b525-9cde1ad77653","","1166","
                <div class=""stimulus-container"">
                    <img src=""images/instructions/movie_2.png"" class=""exp-image"">
                    <div class=""question-area"">
                        <p style=""font-size: 20px; font-weight: bold; margin: 0;"">Was there a person in this image?</p>
                    </div>
                </div>","0","example_question","2","","","","","","",""
"","","","","","html-keyboard-response","10","343834","0.0-10.0","85257BBEDAE945D09D130D88B592DF81","019cf49a-1552-78ae-96cf-9ab9095bea89","019cf498-06e0-702e-b525-9cde1ad77653","","null","
                <div class=""stimulus-container"">
                    <img src=""images/instructions/movie_3.png"" class=""exp-image"">
                    <div class=""question-area""></div> 
                </div>","null","","","","","","","","",""
"","","","","","html-button-response","11","344712","0.0-11.0","85257BBEDAE945D09D130D88B592DF81","019cf49a-1552-78ae-96cf-9ab9095bea89","019cf498-06e0-702e-b525-9cde1ad77653","","877","
                <div class=""stimulus-container"">
                    <img src=""images/instructions/movie_3.png"" class=""exp-image"">
                    <div class=""question-area"">
                        <p style=""font-size: 20px; font-weight: bold; margin: 0;"">Was there a person in this image?</p>
                    </div>
                </div>","0","example_question","3","","","","","","",""
"","","","","","html-keyboard-response","12","348728","0.0-12.0","85257BBEDAE945D09D130D88B592DF81","019cf49a-1552-78ae-96cf-9ab9095bea89","019cf498-06e0-702e-b525-9cde1ad77653","","null","
                <div class=""stimulus-container"">
                    <img src=""images/instructions/movie_4.png"" class=""exp-image"">
                    <div class=""question-area""></div> 
                </div>","null","","","","","","","","",""
"","","","","","html-button-response","13","349592","0.0-13.0","85257BBEDAE945D09D130D88B592DF81","019cf49a-1552-78ae-96cf-9ab9095bea89","019cf498-06e0-702e-b525-9cde1ad77653","","862","
                <div class=""stimulus-container"">
                    <img src=""images/instructions/movie_4.png"" class=""exp-image"">
                    <div class=""question-area"">
                        <p style=""font-size: 20px; font-weight: bold; margin: 0;"">Was there a person in this image?</p>
                    </div>
                </div>","0","example_question","4","","","","","","",""
"","","","","","instructions","14","351647","0.0-14.0","85257BBEDAE945D09D130D88B592DF81","019cf49a-1552-78ae-96cf-9ab9095bea89","019cf498-06e0-702e-b525-9cde1ad77653","[{""page_index"":0,""viewing_time"":2055}]","2056","","","","","","","","","","",""
"","","","","","instructions","15","355360","0.0-15.0","85257BBEDAE945D09D130D88B592DF81","019cf49a-1552-78ae-96cf-9ab9095bea89","019cf498-06e0-702e-b525-9cde1ad77653","[{""page_index"":0,""viewing_time"":3712}]","3712","","","","","","","","","","",""
"","","","","","html-keyboard-response","16","356370","0.0-16.0","85257BBEDAE945D09D130D88B592DF81","019cf49a-1552-78ae-96cf-9ab9095bea89","019cf498-06e0-702e-b525-9cde1ad77653","","null","<div style=""background-color: white; width: 100vw; height: 100vh;""></div>","null","","","","","","","","",""
"","","","","","html-keyboard-response","17","361373","0.0-17.0","85257BBEDAE945D09D130D88B592DF81","019cf49a-1552-78ae-96cf-9ab9095bea89","019cf498-06e0-702e-b525-9cde1ad77653","","null","
                <div class=""stimulus-container"">
                    <img src=""images/schematic_sequence/dinner_party_scheme/dinner_party_scheme_1.png"" class=""exp-image"">
                    <div class=""question-area""></div> 
                </div>","null","","","","","","","","",""
"","","","","","html-button-response","18","362775","0.0-18.0","85257BBEDAE945D09D130D88B592DF81","019cf49a-1552-78ae-96cf-9ab9095bea89","019cf498-06e0-702e-b525-9cde1ad77653","","1401","
                <div class=""stimulus-container"">
                    <img src=""images/schematic_sequence/dinner_party_scheme/dinner_party_scheme_1.png"" class=""exp-image"">
                    <div class=""question-area"">
                        <p style=""font-size: 20px; font-weight: bold; margin: 0;"">Is there a person in this image?</p>
                    </div>
                </div>","0","main_experiment_trial","1","dinner_party_scheme","schematic_sequence","","","","",""
"","","","","","html-keyboard-response","19","367777","0.0-19.0","85257BBEDAE945D09D130D88B592DF81","019cf49a-1552-78ae-96cf-9ab9095bea89","019cf498-06e0-702e-b525-9cde1ad77653","","null","
                <div class=""stimulus-container"">
                    <img src=""images/schematic_sequence/dinner_party_scheme/dinner_party_scheme_2.png"" class=""exp-image"">
                    <div class=""question-area""></div> 
                </div>","null","","","","","","","","",""
"","","","","","html-button-response","20","369495","0.0-20.0","85257BBEDAE945D09D130D88B592DF81","019cf49a-1552-78ae-96cf-9ab9095bea89","019cf498-06e0-702e-b525-9cde1ad77653","","1717","
                <div class=""stimulus-container"">
                    <img src=""images/schematic_sequence/dinner_party_scheme/dinner_party_scheme_2.png"" class=""exp-image"">
                    <div class=""question-area"">
                        <p style=""font-size: 20px; font-weight: bold; margin: 0;"">Is there a person in this image?</p>
                    </div>
                </div>","0","main_experiment_trial","2","dinner_party_scheme","schematic_sequence","","","","",""
"","","","","","html-keyboard-response","21","374509","0.0-21.0","85257BBEDAE945D09D130D88B592DF81","019cf49a-1552-78ae-96cf-9ab9095bea89","019cf498-06e0-702e-b525-9cde1ad77653","","null","
                <div class=""stimulus-container"">
                    <img src=""images/schematic_sequence/dinner_party_scheme/dinner_party_scheme_3.png"" class=""exp-image"">
                    <div class=""question-area""></div> 
                </div>","null","","","","","","","","",""
"","","","","","html-button-response","22","375600","0.0-22.0","85257BBEDAE945D09D130D88B592DF81","019cf49a-1552-78ae-96cf-9ab9095bea89","019cf498-06e0-702e-b525-9cde1ad77653","","1089","
                <div class=""stimulus-container"">
                    <img src=""images/schematic_sequence/dinner_party_scheme/dinner_party_scheme_3.png"" class=""exp-image"">
                    <div class=""question-area"">
                        <p style=""font-size: 20px; font-weight: bold; margin: 0;"">Is there a person in this image?</p>
                    </div>
                </div>","0","main_experiment_trial","3","dinner_party_scheme","schematic_sequence","","","","",""
"","","","","","html-keyboard-response","23","380603","0.0-23.0","85257BBEDAE945D09D130D88B592DF81","019cf49a-1552-78ae-96cf-9ab9095bea89","019cf498-06e0-702e-b525-9cde1ad77653","","null","
                <div class=""stimulus-container"">
                    <img src=""images/schematic_sequence/dinner_party_scheme/dinner_party_scheme_4.png"" class=""exp-image"">
                    <div class=""question-area""></div> 
                </div>","null","","","","","","","","",""
"","","","","","html-button-response","24","383606","0.0-24.0","85257BBEDAE945D09D130D88B592DF81","019cf49a-1552-78ae-96cf-9ab9095bea89","019cf498-06e0-702e-b525-9cde1ad77653","","null","
                <div class=""stimulus-container"">
                    <img src=""images/schematic_sequence/dinner_party_scheme/dinner_party_scheme_4.png"" class=""exp-image"">
                    <div class=""question-area"">
                        <p style=""font-size: 20px; font-weight: bold; margin: 0;"">Is there a person in this image?</p>
                    </div>
                </div>","null","main_experiment_trial","4","dinner_party_scheme","schematic_sequence","","","","",""
"","","","","","html-keyboard-response","25","388608","0.0-25.0","85257BBEDAE945D09D130D88B592DF81","019cf49a-1552-78ae-96cf-9ab9095bea89","019cf498-06e0-702e-b525-9cde1ad77653","","null","
                <div class=""stimulus-container"">
                    <img src=""images/schematic_sequence/dinner_party_scheme/dinner_party_scheme_5.png"" class=""exp-image"">
                    <div class=""question-area""></div> 
                </div>","null","","","","","","","","",""
"","","","","","html-button-response","26","389231","0.0-26.0","85257BBEDAE945D09D130D88B592DF81","019cf49a-1552-78ae-96cf-9ab9095bea89","019cf498-06e0-702e-b525-9cde1ad77653","","623","
                <div class=""stimulus-container"">
                    <img src=""images/schematic_sequence/dinner_party_scheme/dinner_party_scheme_5.png"" class=""exp-image"">
                    <div class=""question-area"">
                        <p style=""font-size: 20px; font-weight: bold; margin: 0;"">Is there a person in this image?</p>
                    </div>
                </div>","0","main_experiment_trial","5","dinner_party_scheme","schematic_sequence","","","","",""
"","","","","","html-keyboard-response","27","394245","0.0-27.0","85257BBEDAE945D09D130D88B592DF81","019cf49a-1552-78ae-96cf-9ab9095bea89","019cf498-06e0-702e-b525-9cde1ad77653","","null","
                <div class=""stimulus-container"">
                    <img src=""images/schematic_sequence/dinner_party_scheme/dinner_party_scheme_6.png"" class=""exp-image"">
                    <div class=""question-area""></div> 
                </div>","null","","","","","","","","",""
"","","","","","html-button-response","28","396312","0.0-28.0","85257BBEDAE945D09D130D88B592DF81","019cf49a-1552-78ae-96cf-9ab9095bea89","019cf498-06e0-702e-b525-9cde1ad77653","","2066","
                <div class=""stimulus-container"">
                    <img src=""images/schematic_sequence/dinner_party_scheme/dinner_party_scheme_6.png"" class=""exp-image"">
                    <div class=""question-area"">
                        <p style=""font-size: 20px; font-weight: bold; margin: 0;"">Is there a person in this image?</p>
                    </div>
                </div>","0","main_experiment_trial","6","dinner_party_scheme","schematic_sequence","","","","",""
"","","","","","html-keyboard-response","29","401315","0.0-29.0","85257BBEDAE945D09D130D88B592DF81","019cf49a-1552-78ae-96cf-9ab9095bea89","019cf498-06e0-702e-b525-9cde1ad77653","","null","
                <div class=""stimulus-container"">
                    <img src=""images/schematic_sequence/dinner_party_scheme/dinner_party_scheme_7.png"" class=""exp-image"">
                    <div class=""question-area""></div> 
                </div>","null","","","","","","","","",""
"","","","","","html-button-response","30","401792","0.0-30.0","85257BBEDAE945D09D130D88B592DF81","019cf49a-1552-78ae-96cf-9ab9095bea89","019cf498-06e0-702e-b525-9cde1ad77653","","476","
                <div class=""stimulus-container"">
                    <img src=""images/schematic_sequence/dinner_party_scheme/dinner_party_scheme_7.png"" class=""exp-image"">
                    <div class=""question-area"">
                        <p style=""font-size: 20px; font-weight: bold; margin: 0;"">Is there a person in this image?</p>
                    </div>
                </div>","0","main_experiment_trial","7","dinner_party_scheme","schematic_sequence","","","","",""
"","","","","","html-keyboard-response","31","406794","0.0-31.0","85257BBEDAE945D09D130D88B592DF81","019cf49a-1552-78ae-96cf-9ab9095bea89","019cf498-06e0-702e-b525-9cde1ad77653","","null","
                <div class=""stimulus-container"">
                    <img src=""images/schematic_sequence/dinner_party_scheme/dinner_party_scheme_8.png"" class=""exp-image"">
                    <div class=""question-area""></div> 
                </div>","null","","","","","","","","",""
"","","","","","html-button-response","32","409624","0.0-32.0","85257BBEDAE945D09D130D88B592DF81","019cf49a-1552-78ae-96cf-9ab9095bea89","019cf498-06e0-702e-b525-9cde1ad77653","","2829","
                <div class=""stimulus-container"">
                    <img src=""images/schematic_sequence/dinner_party_scheme/dinner_party_scheme_8.png"" class=""exp-image"">
                    <div class=""question-area"">
                        <p style=""font-size: 20px; font-weight: bold; margin: 0;"">Is there a person in this image?</p>
                    </div>
                </div>","0","main_experiment_trial","8","dinner_party_scheme","schematic_sequence","","","","",""
"","","","","","html-keyboard-response","33","414630","0.0-33.0","85257BBEDAE945D09D130D88B592DF81","019cf49a-1552-78ae-96cf-9ab9095bea89","019cf498-06e0-702e-b525-9cde1ad77653","","null","
                <div class=""stimulus-container"">
                    <img src=""images/schematic_sequence/dinner_party_scheme/dinner_party_scheme_9.png"" class=""exp-image"">
                    <div class=""question-area""></div> 
                </div>","null","","","","","","","","",""
"","","","","","html-button-response","34","415264","0.0-34.0","85257BBEDAE945D09D130D88B592DF81","019cf49a-1552-78ae-96cf-9ab9095bea89","019cf498-06e0-702e-b525-9cde1ad77653","","633","
                <div class=""stimulus-container"">
                    <img src=""images/schematic_sequence/dinner_party_scheme/dinner_party_scheme_9.png"" class=""exp-image"">
                    <div class=""question-area"">
                        <p style=""font-size: 20px; font-weight: bold; margin: 0;"">Is there a person in this image?</p>
                    </div>
                </div>","0","main_experiment_trial","9","dinner_party_scheme","schematic_sequence","","","","",""
"","","","","","html-keyboard-response","35","420269","0.0-35.0","85257BBEDAE945D09D130D88B592DF81","019cf49a-1552-78ae-96cf-9ab9095bea89","019cf498-06e0-702e-b525-9cde1ad77653","","null","
                <div class=""stimulus-container"">
                    <img src=""images/schematic_sequence/dinner_party_scheme/dinner_party_scheme_ten.png"" class=""exp-image"">
                    <div class=""question-area""></div> 
                </div>","null","","","","","","","","",""
"","","","","","html-button-response","36","422040","0.0-36.0","85257BBEDAE945D09D130D88B592DF81","019cf49a-1552-78ae-96cf-9ab9095bea89","019cf498-06e0-702e-b525-9cde1ad77653","","1770","
                <div class=""stimulus-container"">
                    <img src=""images/schematic_sequence/dinner_party_scheme/dinner_party_scheme_ten.png"" class=""exp-image"">
                    <div class=""question-area"">
                        <p style=""font-size: 20px; font-weight: bold; margin: 0;"">Is there a person in this image?</p>
                    </div>
                </div>","0","main_experiment_trial","ten","dinner_party_scheme","schematic_sequence","","","","",""
"","","","","","html-keyboard-response","37","423042","0.0-37.0","85257BBEDAE945D09D130D88B592DF81","019cf49a-1552-78ae-96cf-9ab9095bea89","019cf498-06e0-702e-b525-9cde1ad77653","","null","<div style=""background-color: white; width: 100vw; height: 100vh;""></div>","null","","","","","","","","",""
"","","","","","html-keyboard-response","38","428063","0.0-38.0","85257BBEDAE945D09D130D88B592DF81","019cf49a-1552-78ae-96cf-9ab9095bea89","019cf498-06e0-702e-b525-9cde1ad77653","","null","
                <div class=""stimulus-container"">
                    <img src=""images/causal_sequence/package_causal/package_causal_1.png"" class=""exp-image"">
                    <div class=""question-area""></div> 
                </div>","null","","","","","","","","",""
"","","","","","html-button-response","39","429128","0.0-39.0","85257BBEDAE945D09D130D88B592DF81","019cf49a-1552-78ae-96cf-9ab9095bea89","019cf498-06e0-702e-b525-9cde1ad77653","","1064","
                <div class=""stimulus-container"">
                    <img src=""images/causal_sequence/package_causal/package_causal_1.png"" class=""exp-image"">
                    <div class=""question-area"">
                        <p style=""font-size: 20px; font-weight: bold; margin: 0;"">Is there a person in this image?</p>
                    </div>
                </div>","0","main_experiment_trial","1","package_causal","causal_sequence","","","","",""
"","","","","","html-keyboard-response","40","434134","0.0-40.0","85257BBEDAE945D09D130D88B592DF81","019cf49a-1552-78ae-96cf-9ab9095bea89","019cf498-06e0-702e-b525-9cde1ad77653","","null","
                <div class=""stimulus-container"">
                    <img src=""images/causal_sequence/package_causal/package_causal_2.png"" class=""exp-image"">
                    <div class=""question-area""></div> 
                </div>","null","","","","","","","","",""
"","","","","","html-button-response","41","434704","0.0-41.0","85257BBEDAE945D09D130D88B592DF81","019cf49a-1552-78ae-96cf-9ab9095bea89","019cf498-06e0-702e-b525-9cde1ad77653","","569","
                <div class=""stimulus-container"">
                    <img src=""images/causal_sequence/package_causal/package_causal_2.png"" class=""exp-image"">
                    <div class=""question-area"">
                        <p style=""font-size: 20px; font-weight: bold; margin: 0;"">Is there a person in this image?</p>
                    </div>
                </div>","0","main_experiment_trial","2","package_causal","causal_sequence","","","","",""
"","","","","","html-keyboard-response","42","439714","0.0-42.0","85257BBEDAE945D09D130D88B592DF81","019cf49a-1552-78ae-96cf-9ab9095bea89","019cf498-06e0-702e-b525-9cde1ad77653","","null","
                <div class=""stimulus-container"">
                    <img src=""images/causal_sequence/package_causal/package_causal_3.png"" class=""exp-image"">
                    <div class=""question-area""></div> 
                </div>","null","","","","","","","","",""
"","","","","","html-button-response","43","441343","0.0-43.0","85257BBEDAE945D09D130D88B592DF81","019cf49a-1552-78ae-96cf-9ab9095bea89","019cf498-06e0-702e-b525-9cde1ad77653","","1628","
                <div class=""stimulus-container"">
                    <img src=""images/causal_sequence/package_causal/package_causal_3.png"" class=""exp-image"">
                    <div class=""question-area"">
                        <p style=""font-size: 20px; font-weight: bold; margin: 0;"">Is there a person in this image?</p>
                    </div>
                </div>","0","main_experiment_trial","3","package_causal","causal_sequence","","","","",""
"","","","","","html-keyboard-response","44","446348","0.0-44.0","85257BBEDAE945D09D130D88B592DF81","019cf49a-1552-78ae-96cf-9ab9095bea89","019cf498-06e0-702e-b525-9cde1ad77653","","null","
                <div class=""stimulus-container"">
                    <img src=""images/causal_sequence/package_causal/package_causal_4.png"" class=""exp-image"">
                    <div class=""question-area""></div> 
                </div>","null","","","","","","","","",""
"","","","","","html-button-response","45","447912","0.0-45.0","85257BBEDAE945D09D130D88B592DF81","019cf49a-1552-78ae-96cf-9ab9095bea89","019cf498-06e0-702e-b525-9cde1ad77653","","1563","
                <div class=""stimulus-container"">
                    <img src=""images/causal_sequence/package_causal/package_causal_4.png"" class=""exp-image"">
                    <div class=""question-area"">
                        <p style=""font-size: 20px; font-weight: bold; margin: 0;"">Is there a person in this image?</p>
                    </div>
                </div>","1","main_experiment_trial","4","package_causal","causal_sequence","","","","",""
"","","","","","html-keyboard-response","46","452922","0.0-46.0","85257BBEDAE945D09D130D88B592DF81","019cf49a-1552-78ae-96cf-9ab9095bea89","019cf498-06e0-702e-b525-9cde1ad77653","","null","
                <div class=""stimulus-container"">
                    <img src=""images/causal_sequence/package_causal/package_causal_5.png"" class=""exp-image"">
                    <div class=""question-area""></div> 
                </div>","null","","","","","","","","",""
"","","","","","html-button-response","47","453759","0.0-47.0","85257BBEDAE945D09D130D88B592DF81","019cf49a-1552-78ae-96cf-9ab9095bea89","019cf498-06e0-702e-b525-9cde1ad77653","","837","
                <div class=""stimulus-container"">
                    <img src=""images/causal_sequence/package_causal/package_causal_5.png"" class=""exp-image"">
                    <div class=""question-area"">
                        <p style=""font-size: 20px; font-weight: bold; margin: 0;"">Is there a person in this image?</p>
                    </div>
                </div>","0","main_experiment_trial","5","package_causal","causal_sequence","","","","",""
"","","","","","html-keyboard-response","48","458763","0.0-48.0","85257BBEDAE945D09D130D88B592DF81","019cf49a-1552-78ae-96cf-9ab9095bea89","019cf498-06e0-702e-b525-9cde1ad77653","","null","
                <div class=""stimulus-container"">
                    <img src=""images/causal_sequence/package_causal/package_causal_6.png"" class=""exp-image"">
                    <div class=""question-area""></div> 
                </div>","null","","","","","","","","",""
"","","","","","html-button-response","49","459615","0.0-49.0","85257BBEDAE945D09D130D88B592DF81","019cf49a-1552-78ae-96cf-9ab9095bea89","019cf498-06e0-702e-b525-9cde1ad77653","","851","
                <div class=""stimulus-container"">
                    <img src=""images/causal_sequence/package_causal/package_causal_6.png"" class=""exp-image"">
                    <div class=""question-area"">
                        <p style=""font-size: 20px; font-weight: bold; margin: 0;"">Is there a person in this image?</p>
                    </div>
                </div>","0","main_experiment_trial","6","package_causal","causal_sequence","","","","",""
"","","","","","html-keyboard-response","50","464633","0.0-50.0","85257BBEDAE945D09D130D88B592DF81","019cf49a-1552-78ae-96cf-9ab9095bea89","019cf498-06e0-702e-b525-9cde1ad77653","","null","
                <div class=""stimulus-container"">
                    <img src=""images/causal_sequence/package_causal/package_causal_7.png"" class=""exp-image"">
                    <div class=""question-area""></div> 
                </div>","null","","","","","","","","",""
"","","","","","html-button-response","51","465615","0.0-51.0","85257BBEDAE945D09D130D88B592DF81","019cf49a-1552-78ae-96cf-9ab9095bea89","019cf498-06e0-702e-b525-9cde1ad77653","","981","
                <div class=""stimulus-container"">
                    <img src=""images/causal_sequence/package_causal/package_causal_7.png"" class=""exp-image"">
                    <div class=""question-area"">
                        <p style=""font-size: 20px; font-weight: bold; margin: 0;"">Is there a person in this image?</p>
                    </div>
                </div>","0","main_experiment_trial","7","package_causal","causal_sequence","","","","",""
"","","","","","html-keyboard-response","52","470633","0.0-52.0","85257BBEDAE945D09D130D88B592DF81","019cf49a-1552-78ae-96cf-9ab9095bea89","019cf498-06e0-702e-b525-9cde1ad77653","","null","
                <div class=""stimulus-container"">
                    <img src=""images/causal_sequence/package_causal/package_causal_8.png"" class=""exp-image"">
                    <div class=""question-area""></div> 
                </div>","null","","","","","","","","",""
"","","","","","html-button-response","53","471104","0.0-53.0","85257BBEDAE945D09D130D88B592DF81","019cf49a-1552-78ae-96cf-9ab9095bea89","019cf498-06e0-702e-b525-9cde1ad77653","","469","
                <div class=""stimulus-container"">
                    <img src=""images/causal_sequence/package_causal/package_causal_8.png"" class=""exp-image"">
                    <div class=""question-area"">
                        <p style=""font-size: 20px; font-weight: bold; margin: 0;"">Is there a person in this image?</p>
                    </div>
                </div>","0","main_experiment_trial","8","package_causal","causal_sequence","","","","",""
"","","","","","html-keyboard-response","54","476117","0.0-54.0","85257BBEDAE945D09D130D88B592DF81","019cf49a-1552-78ae-96cf-9ab9095bea89","019cf498-06e0-702e-b525-9cde1ad77653","","null","
                <div class=""stimulus-container"">
                    <img src=""images/causal_sequence/package_causal/package_causal_9.png"" class=""exp-image"">
                    <div class=""question-area""></div> 
                </div>","null","","","","","","","","",""
"","","","","","html-button-response","55","477655","0.0-55.0","85257BBEDAE945D09D130D88B592DF81","019cf49a-1552-78ae-96cf-9ab9095bea89","019cf498-06e0-702e-b525-9cde1ad77653","","1537","
                <div class=""stimulus-container"">
                    <img src=""images/causal_sequence/package_causal/package_causal_9.png"" class=""exp-image"">
                    <div class=""question-area"">
                        <p style=""font-size: 20px; font-weight: bold; margin: 0;"">Is there a person in this image?</p>
                    </div>
                </div>","0","main_experiment_trial","9","package_causal","causal_sequence","","","","",""
"","","","","","html-keyboard-response","56","482659","0.0-56.0","85257BBEDAE945D09D130D88B592DF81","019cf49a-1552-78ae-96cf-9ab9095bea89","019cf498-06e0-702e-b525-9cde1ad77653","","null","
                <div class=""stimulus-container"">
                    <img src=""images/causal_sequence/package_causal/package_causal_ten.png"" class=""exp-image"">
                    <div class=""question-area""></div> 
                </div>","null","","","","","","","","",""
"","","","","","html-button-response","57","483535","0.0-57.0","85257BBEDAE945D09D130D88B592DF81","019cf49a-1552-78ae-96cf-9ab9095bea89","019cf498-06e0-702e-b525-9cde1ad77653","","876","
                <div class=""stimulus-container"">
                    <img src=""images/causal_sequence/package_causal/package_causal_ten.png"" class=""exp-image"">
                    <div class=""question-area"">
                        <p style=""font-size: 20px; font-weight: bold; margin: 0;"">Is there a person in this image?</p>
                    </div>
                </div>","0","main_experiment_trial","ten","package_causal","causal_sequence","","","","",""
"","","","","","html-keyboard-response","58","484553","0.0-58.0","85257BBEDAE945D09D130D88B592DF81","019cf49a-1552-78ae-96cf-9ab9095bea89","019cf498-06e0-702e-b525-9cde1ad77653","","null","<div style=""background-color: white; width: 100vw; height: 100vh;""></div>","null","","","","","","","","",""
"","","","","","html-keyboard-response","59","489559","0.0-59.0","85257BBEDAE945D09D130D88B592DF81","019cf49a-1552-78ae-96cf-9ab9095bea89","019cf498-06e0-702e-b525-9cde1ad77653","","null","
                <div class=""stimulus-container"">
                    <img src=""images/causal_sequence/saving_a_cat_causal/saving_a_cat_causal_1.png"" class=""exp-image"">
                    <div class=""question-area""></div> 
                </div>","null","","","","","","","","",""
"","","","","","html-button-response","60","490448","0.0-60.0","85257BBEDAE945D09D130D88B592DF81","019cf49a-1552-78ae-96cf-9ab9095bea89","019cf498-06e0-702e-b525-9cde1ad77653","","887","
                <div class=""stimulus-container"">
                    <img src=""images/causal_sequence/saving_a_cat_causal/saving_a_cat_causal_1.png"" class=""exp-image"">
                    <div class=""question-area"">
                        <p style=""font-size: 20px; font-weight: bold; margin: 0;"">Is there a person in this image?</p>
                    </div>
                </div>","0","main_experiment_trial","1","saving_a_cat_causal","causal_sequence","","","","",""
"","","","","","html-keyboard-response","61","495463","0.0-61.0","85257BBEDAE945D09D130D88B592DF81","019cf49a-1552-78ae-96cf-9ab9095bea89","019cf498-06e0-702e-b525-9cde1ad77653","","null","
                <div class=""stimulus-container"">
                    <img src=""images/causal_sequence/saving_a_cat_causal/saving_a_cat_causal_2.png"" class=""exp-image"">
                    <div class=""question-area""></div> 
                </div>","null","","","","","","","","",""
"","","","","","html-button-response","62","497632","0.0-62.0","85257BBEDAE945D09D130D88B592DF81","019cf49a-1552-78ae-96cf-9ab9095bea89","019cf498-06e0-702e-b525-9cde1ad77653","","2168","
                <div class=""stimulus-container"">
                    <img src=""images/causal_sequence/saving_a_cat_causal/saving_a_cat_causal_2.png"" class=""exp-image"">
                    <div class=""question-area"">
                        <p style=""font-size: 20px; font-weight: bold; margin: 0;"">Is there a person in this image?</p>
                    </div>
                </div>","1","main_experiment_trial","2","saving_a_cat_causal","causal_sequence","","","","",""
"","","","","","html-keyboard-response","63","502638","0.0-63.0","85257BBEDAE945D09D130D88B592DF81","019cf49a-1552-78ae-96cf-9ab9095bea89","019cf498-06e0-702e-b525-9cde1ad77653","","null","
                <div class=""stimulus-container"">
                    <img src=""images/causal_sequence/saving_a_cat_causal/saving_a_cat_causal_3.png"" class=""exp-image"">
                    <div class=""question-area""></div> 
                </div>","null","","","","","","","","",""
"","","","","","html-button-response","64","504319","0.0-64.0","85257BBEDAE945D09D130D88B592DF81","019cf49a-1552-78ae-96cf-9ab9095bea89","019cf498-06e0-702e-b525-9cde1ad77653","","1681","
                <div class=""stimulus-container"">
                    <img src=""images/causal_sequence/saving_a_cat_causal/saving_a_cat_causal_3.png"" class=""exp-image"">
                    <div class=""question-area"">
                        <p style=""font-size: 20px; font-weight: bold; margin: 0;"">Is there a person in this image?</p>
                    </div>
                </div>","1","main_experiment_trial","3","saving_a_cat_causal","causal_sequence","","","","",""
"","","","","","html-keyboard-response","65","509333","0.0-65.0","85257BBEDAE945D09D130D88B592DF81","019cf49a-1552-78ae-96cf-9ab9095bea89","019cf498-06e0-702e-b525-9cde1ad77653","","null","
                <div class=""stimulus-container"">
                    <img src=""images/causal_sequence/saving_a_cat_causal/saving_a_cat_causal_4.png"" class=""exp-image"">
                    <div class=""question-area""></div> 
                </div>","null","","","","","","","","",""
"","","","","","html-button-response","66","510199","0.0-66.0","85257BBEDAE945D09D130D88B592DF81","019cf49a-1552-78ae-96cf-9ab9095bea89","019cf498-06e0-702e-b525-9cde1ad77653","","865","
                <div class=""stimulus-container"">
                    <img src=""images/causal_sequence/saving_a_cat_causal/saving_a_cat_causal_4.png"" class=""exp-image"">
                    <div class=""question-area"">
                        <p style=""font-size: 20px; font-weight: bold; margin: 0;"">Is there a person in this image?</p>
                    </div>
                </div>","0","main_experiment_trial","4","saving_a_cat_causal","causal_sequence","","","","",""
"","","","","","html-keyboard-response","67","515200","0.0-67.0","85257BBEDAE945D09D130D88B592DF81","019cf49a-1552-78ae-96cf-9ab9095bea89","019cf498-06e0-702e-b525-9cde1ad77653","","null","
                <div class=""stimulus-container"">
                    <img src=""images/causal_sequence/saving_a_cat_causal/saving_a_cat_causal_5.png"" class=""exp-image"">
                    <div class=""question-area""></div> 
                </div>","null","","","","","","","","",""
"","","","","","html-button-response","68","516935","0.0-68.0","85257BBEDAE945D09D130D88B592DF81","019cf49a-1552-78ae-96cf-9ab9095bea89","019cf498-06e0-702e-b525-9cde1ad77653","","1734","
                <div class=""stimulus-container"">
                    <img src=""images/causal_sequence/saving_a_cat_causal/saving_a_cat_causal_5.png"" class=""exp-image"">
                    <div class=""question-area"">
                        <p style=""font-size: 20px; font-weight: bold; margin: 0;"">Is there a person in this image?</p>
                    </div>
                </div>","0","main_experiment_trial","5","saving_a_cat_causal","causal_sequence","","","","",""
"","","","","","html-keyboard-response","69","521948","0.0-69.0","85257BBEDAE945D09D130D88B592DF81","019cf49a-1552-78ae-96cf-9ab9095bea89","019cf498-06e0-702e-b525-9cde1ad77653","","null","
                <div class=""stimulus-container"">
                    <img src=""images/causal_sequence/saving_a_cat_causal/saving_a_cat_causal_6.png"" class=""exp-image"">
                    <div class=""question-area""></div> 
                </div>","null","","","","","","","","",""
"","","","","","html-button-response","70","523175","0.0-70.0","85257BBEDAE945D09D130D88B592DF81","019cf49a-1552-78ae-96cf-9ab9095bea89","019cf498-06e0-702e-b525-9cde1ad77653","","1226","
                <div class=""stimulus-container"">
                    <img src=""images/causal_sequence/saving_a_cat_causal/saving_a_cat_causal_6.png"" class=""exp-image"">
                    <div class=""question-area"">
                        <p style=""font-size: 20px; font-weight: bold; margin: 0;"">Is there a person in this image?</p>
                    </div>
                </div>","0","main_experiment_trial","6","saving_a_cat_causal","causal_sequence","","","","",""
"","","","","","html-keyboard-response","71","528178","0.0-71.0","85257BBEDAE945D09D130D88B592DF81","019cf49a-1552-78ae-96cf-9ab9095bea89","019cf498-06e0-702e-b525-9cde1ad77653","","null","
                <div class=""stimulus-container"">
                    <img src=""images/causal_sequence/saving_a_cat_causal/saving_a_cat_causal_7.png"" class=""exp-image"">
                    <div class=""question-area""></div> 
                </div>","null","","","","","","","","",""
"","","","","","html-button-response","72","528808","0.0-72.0","85257BBEDAE945D09D130D88B592DF81","019cf49a-1552-78ae-96cf-9ab9095bea89","019cf498-06e0-702e-b525-9cde1ad77653","","629","
                <div class=""stimulus-container"">
                    <img src=""images/causal_sequence/saving_a_cat_causal/saving_a_cat_causal_7.png"" class=""exp-image"">
                    <div class=""question-area"">
                        <p style=""font-size: 20px; font-weight: bold; margin: 0;"">Is there a person in this image?</p>
                    </div>
                </div>","0","main_experiment_trial","7","saving_a_cat_causal","causal_sequence","","","","",""
"","","","","","html-keyboard-response","73","533812","0.0-73.0","85257BBEDAE945D09D130D88B592DF81","019cf49a-1552-78ae-96cf-9ab9095bea89","019cf498-06e0-702e-b525-9cde1ad77653","","null","
                <div class=""stimulus-container"">
                    <img src=""images/causal_sequence/saving_a_cat_causal/saving_a_cat_causal_8.png"" class=""exp-image"">
                    <div class=""question-area""></div> 
                </div>","null","","","","","","","","",""
"","","","","","html-button-response","74","536822","0.0-74.0","85257BBEDAE945D09D130D88B592DF81","019cf49a-1552-78ae-96cf-9ab9095bea89","019cf498-06e0-702e-b525-9cde1ad77653","","null","
                <div class=""stimulus-container"">
                    <img src=""images/causal_sequence/saving_a_cat_causal/saving_a_cat_causal_8.png"" class=""exp-image"">
                    <div class=""question-area"">
                        <p style=""font-size: 20px; font-weight: bold; margin: 0;"">Is there a person in this image?</p>
                    </div>
                </div>","null","main_experiment_trial","8","saving_a_cat_causal","causal_sequence","","","","",""
"","","","","","html-keyboard-response","75","541828","0.0-75.0","85257BBEDAE945D09D130D88B592DF81","019cf49a-1552-78ae-96cf-9ab9095bea89","019cf498-06e0-702e-b525-9cde1ad77653","","null","
                <div class=""stimulus-container"">
                    <img src=""images/causal_sequence/saving_a_cat_causal/saving_a_cat_causal_9.png"" class=""exp-image"">
                    <div class=""question-area""></div> 
                </div>","null","","","","","","","","",""
"","","","","","html-button-response","76","542328","0.0-76.0","85257BBEDAE945D09D130D88B592DF81","019cf49a-1552-78ae-96cf-9ab9095bea89","019cf498-06e0-702e-b525-9cde1ad77653","","499","
                <div class=""stimulus-container"">
                    <img src=""images/causal_sequence/saving_a_cat_causal/saving_a_cat_causal_9.png"" class=""exp-image"">
                    <div class=""question-area"">
                        <p style=""font-size: 20px; font-weight: bold; margin: 0;"">Is there a person in this image?</p>
                    </div>
                </div>","0","main_experiment_trial","9","saving_a_cat_causal","causal_sequence","","","","",""
"","","","","","html-keyboard-response","77","547333","0.0-77.0","85257BBEDAE945D09D130D88B592DF81","019cf49a-1552-78ae-96cf-9ab9095bea89","019cf498-06e0-702e-b525-9cde1ad77653","","null","
                <div class=""stimulus-container"">
                    <img src=""images/causal_sequence/saving_a_cat_causal/saving_a_cat_causal_ten.png"" class=""exp-image"">
                    <div class=""question-area""></div> 
                </div>","null","","","","","","","","",""
"","","","","","html-button-response","78","547928","0.0-78.0","85257BBEDAE945D09D130D88B592DF81","019cf49a-1552-78ae-96cf-9ab9095bea89","019cf498-06e0-702e-b525-9cde1ad77653","","593","
                <div class=""stimulus-container"">
                    <img src=""images/causal_sequence/saving_a_cat_causal/saving_a_cat_causal_ten.png"" class=""exp-image"">
                    <div class=""question-area"">
                        <p style=""font-size: 20px; font-weight: bold; margin: 0;"">Is there a person in this image?</p>
                    </div>
                </div>","0","main_experiment_trial","ten","saving_a_cat_causal","causal_sequence","","","","",""
"","","","","","html-keyboard-response","79","548943","0.0-79.0","85257BBEDAE945D09D130D88B592DF81","019cf49a-1552-78ae-96cf-9ab9095bea89","019cf498-06e0-702e-b525-9cde1ad77653","","null","<div style=""background-color: white; width: 100vw; height: 100vh;""></div>","null","","","","","","","","",""
"","","","","","html-keyboard-response","80","553949","0.0-80.0","85257BBEDAE945D09D130D88B592DF81","019cf49a-1552-78ae-96cf-9ab9095bea89","019cf498-06e0-702e-b525-9cde1ad77653","","null","
                <div class=""stimulus-container"">
                    <img src=""images/schematic_sequence/interview_scheme/interview_scheme_1.png"" class=""exp-image"">
                    <div class=""question-area""></div> 
                </div>","null","","","","","","","","",""
"","","","","","html-button-response","81","555088","0.0-81.0","85257BBEDAE945D09D130D88B592DF81","019cf49a-1552-78ae-96cf-9ab9095bea89","019cf498-06e0-702e-b525-9cde1ad77653","","1138","
                <div class=""stimulus-container"">
                    <img src=""images/schematic_sequence/interview_scheme/interview_scheme_1.png"" class=""exp-image"">
                    <div class=""question-area"">
                        <p style=""font-size: 20px; font-weight: bold; margin: 0;"">Is there a person in this image?</p>
                    </div>
                </div>","1","main_experiment_trial","1","interview_scheme","schematic_sequence","","","","",""
"","","","","","html-keyboard-response","82","560090","0.0-82.0","85257BBEDAE945D09D130D88B592DF81","019cf49a-1552-78ae-96cf-9ab9095bea89","019cf498-06e0-702e-b525-9cde1ad77653","","null","
                <div class=""stimulus-container"">
                    <img src=""images/schematic_sequence/interview_scheme/interview_scheme_2.png"" class=""exp-image"">
                    <div class=""question-area""></div> 
                </div>","null","","","","","","","","",""
"","","","","","html-button-response","83","561968","0.0-83.0","85257BBEDAE945D09D130D88B592DF81","019cf49a-1552-78ae-96cf-9ab9095bea89","019cf498-06e0-702e-b525-9cde1ad77653","","1877","
                <div class=""stimulus-container"">
                    <img src=""images/schematic_sequence/interview_scheme/interview_scheme_2.png"" class=""exp-image"">
                    <div class=""question-area"">
                        <p style=""font-size: 20px; font-weight: bold; margin: 0;"">Is there a person in this image?</p>
                    </div>
                </div>","0","main_experiment_trial","2","interview_scheme","schematic_sequence","","","","",""
"","","","","","html-keyboard-response","84","566980","0.0-84.0","85257BBEDAE945D09D130D88B592DF81","019cf49a-1552-78ae-96cf-9ab9095bea89","019cf498-06e0-702e-b525-9cde1ad77653","","null","
                <div class=""stimulus-container"">
                    <img src=""images/schematic_sequence/interview_scheme/interview_scheme_3.png"" class=""exp-image"">
                    <div class=""question-area""></div> 
                </div>","null","","","","","","","","",""
"","","","","","html-button-response","85","567680","0.0-85.0","85257BBEDAE945D09D130D88B592DF81","019cf49a-1552-78ae-96cf-9ab9095bea89","019cf498-06e0-702e-b525-9cde1ad77653","","698","
                <div class=""stimulus-container"">
                    <img src=""images/schematic_sequence/interview_scheme/interview_scheme_3.png"" class=""exp-image"">
                    <div class=""question-area"">
                        <p style=""font-size: 20px; font-weight: bold; margin: 0;"">Is there a person in this image?</p>
                    </div>
                </div>","1","main_experiment_trial","3","interview_scheme","schematic_sequence","","","","",""
"","","","","","html-keyboard-response","86","572683","0.0-86.0","85257BBEDAE945D09D130D88B592DF81","019cf49a-1552-78ae-96cf-9ab9095bea89","019cf498-06e0-702e-b525-9cde1ad77653","","null","
                <div class=""stimulus-container"">
                    <img src=""images/schematic_sequence/interview_scheme/interview_scheme_4.png"" class=""exp-image"">
                    <div class=""question-area""></div> 
                </div>","null","","","","","","","","",""
"","","","","","html-button-response","87","573055","0.0-87.0","85257BBEDAE945D09D130D88B592DF81","019cf49a-1552-78ae-96cf-9ab9095bea89","019cf498-06e0-702e-b525-9cde1ad77653","","371","
                <div class=""stimulus-container"">
                    <img src=""images/schematic_sequence/interview_scheme/interview_scheme_4.png"" class=""exp-image"">
                    <div class=""question-area"">
                        <p style=""font-size: 20px; font-weight: bold; margin: 0;"">Is there a person in this image?</p>
                    </div>
                </div>","1","main_experiment_trial","4","interview_scheme","schematic_sequence","","","","",""
"","","","","","html-keyboard-response","88","578058","0.0-88.0","85257BBEDAE945D09D130D88B592DF81","019cf49a-1552-78ae-96cf-9ab9095bea89","019cf498-06e0-702e-b525-9cde1ad77653","","null","
                <div class=""stimulus-container"">
                    <img src=""images/schematic_sequence/interview_scheme/interview_scheme_5.png"" class=""exp-image"">
                    <div class=""question-area""></div> 
                </div>","null","","","","","","","","",""
"","","","","","html-button-response","89","578984","0.0-89.0","85257BBEDAE945D09D130D88B592DF81","019cf49a-1552-78ae-96cf-9ab9095bea89","019cf498-06e0-702e-b525-9cde1ad77653","","925","
                <div class=""stimulus-container"">
                    <img src=""images/schematic_sequence/interview_scheme/interview_scheme_5.png"" class=""exp-image"">
                    <div class=""question-area"">
                        <p style=""font-size: 20px; font-weight: bold; margin: 0;"">Is there a person in this image?</p>
                    </div>
                </div>","0","main_experiment_trial","5","interview_scheme","schematic_sequence","","","","",""
"","","","","","html-keyboard-response","90","583988","0.0-90.0","85257BBEDAE945D09D130D88B592DF81","019cf49a-1552-78ae-96cf-9ab9095bea89","019cf498-06e0-702e-b525-9cde1ad77653","","null","
                <div class=""stimulus-container"">
                    <img src=""images/schematic_sequence/interview_scheme/interview_scheme_6.png"" class=""exp-image"">
                    <div class=""question-area""></div> 
                </div>","null","","","","","","","","",""
"","","","","","html-button-response","91","584960","0.0-91.0","85257BBEDAE945D09D130D88B592DF81","019cf49a-1552-78ae-96cf-9ab9095bea89","019cf498-06e0-702e-b525-9cde1ad77653","","971","
                <div class=""stimulus-container"">
                    <img src=""images/schematic_sequence/interview_scheme/interview_scheme_6.png"" class=""exp-image"">
                    <div class=""question-area"">
                        <p style=""font-size: 20px; font-weight: bold; margin: 0;"">Is there a person in this image?</p>
                    </div>
                </div>","0","main_experiment_trial","6","interview_scheme","schematic_sequence","","","","",""
"","","","","","html-keyboard-response","92","589964","0.0-92.0","85257BBEDAE945D09D130D88B592DF81","019cf49a-1552-78ae-96cf-9ab9095bea89","019cf498-06e0-702e-b525-9cde1ad77653","","null","
                <div class=""stimulus-container"">
                    <img src=""images/schematic_sequence/interview_scheme/interview_scheme_7.png"" class=""exp-image"">
                    <div class=""question-area""></div> 
                </div>","null","","","","","","","","",""
"","","","","","html-button-response","93","591151","0.0-93.0","85257BBEDAE945D09D130D88B592DF81","019cf49a-1552-78ae-96cf-9ab9095bea89","019cf498-06e0-702e-b525-9cde1ad77653","","1187","
                <div class=""stimulus-container"">
                    <img src=""images/schematic_sequence/interview_scheme/interview_scheme_7.png"" class=""exp-image"">
                    <div class=""question-area"">
                        <p style=""font-size: 20px; font-weight: bold; margin: 0;"">Is there a person in this image?</p>
                    </div>
                </div>","0","main_experiment_trial","7","interview_scheme","schematic_sequence","","","","",""
"","","","","","html-keyboard-response","94","596159","0.0-94.0","85257BBEDAE945D09D130D88B592DF81","019cf49a-1552-78ae-96cf-9ab9095bea89","019cf498-06e0-702e-b525-9cde1ad77653","","null","
                <div class=""stimulus-container"">
                    <img src=""images/schematic_sequence/interview_scheme/interview_scheme_8.png"" class=""exp-image"">
                    <div class=""question-area""></div> 
                </div>","null","","","","","","","","",""
"","","","","","html-button-response","95","596688","0.0-95.0","85257BBEDAE945D09D130D88B592DF81","019cf49a-1552-78ae-96cf-9ab9095bea89","019cf498-06e0-702e-b525-9cde1ad77653","","528","
                <div class=""stimulus-container"">
                    <img src=""images/schematic_sequence/interview_scheme/interview_scheme_8.png"" class=""exp-image"">
                    <div class=""question-area"">
                        <p style=""font-size: 20px; font-weight: bold; margin: 0;"">Is there a person in this image?</p>
                    </div>
                </div>","0","main_experiment_trial","8","interview_scheme","schematic_sequence","","","","",""
"","","","","","html-keyboard-response","96","601695","0.0-96.0","85257BBEDAE945D09D130D88B592DF81","019cf49a-1552-78ae-96cf-9ab9095bea89","019cf498-06e0-702e-b525-9cde1ad77653","","null","
                <div class=""stimulus-container"">
                    <img src=""images/schematic_sequence/interview_scheme/interview_scheme_9.png"" class=""exp-image"">
                    <div class=""question-area""></div> 
                </div>","null","","","","","","","","",""
"","","","","","html-button-response","97","602112","0.0-97.0","85257BBEDAE945D09D130D88B592DF81","019cf49a-1552-78ae-96cf-9ab9095bea89","019cf498-06e0-702e-b525-9cde1ad77653","","416","
                <div class=""stimulus-container"">
                    <img src=""images/schematic_sequence/interview_scheme/interview_scheme_9.png"" class=""exp-image"">
                    <div class=""question-area"">
                        <p style=""font-size: 20px; font-weight: bold; margin: 0;"">Is there a person in this image?</p>
                    </div>
                </div>","0","main_experiment_trial","9","interview_scheme","schematic_sequence","","","","",""
"","","","","","html-keyboard-response","98","607133","0.0-98.0","85257BBEDAE945D09D130D88B592DF81","019cf49a-1552-78ae-96cf-9ab9095bea89","019cf498-06e0-702e-b525-9cde1ad77653","","null","
                <div class=""stimulus-container"">
                    <img src=""images/schematic_sequence/interview_scheme/interview_scheme_ten.png"" class=""exp-image"">
                    <div class=""question-area""></div> 
                </div>","null","","","","","","","","",""
"","","","","","html-button-response","99","607544","0.0-99.0","85257BBEDAE945D09D130D88B592DF81","019cf49a-1552-78ae-96cf-9ab9095bea89","019cf498-06e0-702e-b525-9cde1ad77653","","409","
                <div class=""stimulus-container"">
                    <img src=""images/schematic_sequence/interview_scheme/interview_scheme_ten.png"" class=""exp-image"">
                    <div class=""question-area"">
                        <p style=""font-size: 20px; font-weight: bold; margin: 0;"">Is there a person in this image?</p>
                    </div>
                </div>","0","main_experiment_trial","ten","interview_scheme","schematic_sequence","","","","",""
"","","","","","html-keyboard-response","100","608548","0.0-100.0","85257BBEDAE945D09D130D88B592DF81","019cf49a-1552-78ae-96cf-9ab9095bea89","019cf498-06e0-702e-b525-9cde1ad77653","","null","<div style=""background-color: white; width: 100vw; height: 100vh;""></div>","null","","","","","","","","",""
"","","","","","html-keyboard-response","101","613566","0.0-101.0","85257BBEDAE945D09D130D88B592DF81","019cf49a-1552-78ae-96cf-9ab9095bea89","019cf498-06e0-702e-b525-9cde1ad77653","","null","
                <div class=""stimulus-container"">
                    <img src=""images/causal_sequence/coin_causal/coin_causal_1.png"" class=""exp-image"">
                    <div class=""question-area""></div> 
                </div>","null","","","","","","","","",""
"","","","","","html-button-response","102","614255","0.0-102.0","85257BBEDAE945D09D130D88B592DF81","019cf49a-1552-78ae-96cf-9ab9095bea89","019cf498-06e0-702e-b525-9cde1ad77653","","689","
                <div class=""stimulus-container"">
                    <img src=""images/causal_sequence/coin_causal/coin_causal_1.png"" class=""exp-image"">
                    <div class=""question-area"">
                        <p style=""font-size: 20px; font-weight: bold; margin: 0;"">Is there a person in this image?</p>
                    </div>
                </div>","0","main_experiment_trial","1","coin_causal","causal_sequence","","","","",""
"","","","","","html-keyboard-response","103","619265","0.0-103.0","85257BBEDAE945D09D130D88B592DF81","019cf49a-1552-78ae-96cf-9ab9095bea89","019cf498-06e0-702e-b525-9cde1ad77653","","null","
                <div class=""stimulus-container"">
                    <img src=""images/causal_sequence/coin_causal/coin_causal_2.png"" class=""exp-image"">
                    <div class=""question-area""></div> 
                </div>","null","","","","","","","","",""
"","","","","","html-button-response","104","619871","0.0-104.0","85257BBEDAE945D09D130D88B592DF81","019cf49a-1552-78ae-96cf-9ab9095bea89","019cf498-06e0-702e-b525-9cde1ad77653","","605","
                <div class=""stimulus-container"">
                    <img src=""images/causal_sequence/coin_causal/coin_causal_2.png"" class=""exp-image"">
                    <div class=""question-area"">
                        <p style=""font-size: 20px; font-weight: bold; margin: 0;"">Is there a person in this image?</p>
                    </div>
                </div>","0","main_experiment_trial","2","coin_causal","causal_sequence","","","","",""
"","","","","","html-keyboard-response","105","624879","0.0-105.0","85257BBEDAE945D09D130D88B592DF81","019cf49a-1552-78ae-96cf-9ab9095bea89","019cf498-06e0-702e-b525-9cde1ad77653","","null","
                <div class=""stimulus-container"">
                    <img src=""images/causal_sequence/coin_causal/coin_causal_3.png"" class=""exp-image"">
                    <div class=""question-area""></div> 
                </div>","null","","","","","","","","",""
"","","","","","html-button-response","106","625584","0.0-106.0","85257BBEDAE945D09D130D88B592DF81","019cf49a-1552-78ae-96cf-9ab9095bea89","019cf498-06e0-702e-b525-9cde1ad77653","","704","
                <div class=""stimulus-container"">
                    <img src=""images/causal_sequence/coin_causal/coin_causal_3.png"" class=""exp-image"">
                    <div class=""question-area"">
                        <p style=""font-size: 20px; font-weight: bold; margin: 0;"">Is there a person in this image?</p>
                    </div>
                </div>","0","main_experiment_trial","3","coin_causal","causal_sequence","","","","",""
"","","","","","html-keyboard-response","107","630597","0.0-107.0","85257BBEDAE945D09D130D88B592DF81","019cf49a-1552-78ae-96cf-9ab9095bea89","019cf498-06e0-702e-b525-9cde1ad77653","","null","
                <div class=""stimulus-container"">
                    <img src=""images/causal_sequence/coin_causal/coin_causal_4.png"" class=""exp-image"">
                    <div class=""question-area""></div> 
                </div>","null","","","","","","","","",""
"","","","","","html-button-response","108","631069","0.0-108.0","85257BBEDAE945D09D130D88B592DF81","019cf49a-1552-78ae-96cf-9ab9095bea89","019cf498-06e0-702e-b525-9cde1ad77653","","471","
                <div class=""stimulus-container"">
                    <img src=""images/causal_sequence/coin_causal/coin_causal_4.png"" class=""exp-image"">
                    <div class=""question-area"">
                        <p style=""font-size: 20px; font-weight: bold; margin: 0;"">Is there a person in this image?</p>
                    </div>
                </div>","0","main_experiment_trial","4","coin_causal","causal_sequence","","","","",""
"","","","","","html-keyboard-response","109","636078","0.0-109.0","85257BBEDAE945D09D130D88B592DF81","019cf49a-1552-78ae-96cf-9ab9095bea89","019cf498-06e0-702e-b525-9cde1ad77653","","null","
                <div class=""stimulus-container"">
                    <img src=""images/causal_sequence/coin_causal/coin_causal_5.png"" class=""exp-image"">
                    <div class=""question-area""></div> 
                </div>","null","","","","","","","","",""
"","","","","","html-button-response","110","636551","0.0-110.0","85257BBEDAE945D09D130D88B592DF81","019cf49a-1552-78ae-96cf-9ab9095bea89","019cf498-06e0-702e-b525-9cde1ad77653","","472","
                <div class=""stimulus-container"">
                    <img src=""images/causal_sequence/coin_causal/coin_causal_5.png"" class=""exp-image"">
                    <div class=""question-area"">
                        <p style=""font-size: 20px; font-weight: bold; margin: 0;"">Is there a person in this image?</p>
                    </div>
                </div>","0","main_experiment_trial","5","coin_causal","causal_sequence","","","","",""
"","","","","","html-keyboard-response","111","641564","0.0-111.0","85257BBEDAE945D09D130D88B592DF81","019cf49a-1552-78ae-96cf-9ab9095bea89","019cf498-06e0-702e-b525-9cde1ad77653","","null","
                <div class=""stimulus-container"">
                    <img src=""images/causal_sequence/coin_causal/coin_causal_6.png"" class=""exp-image"">
                    <div class=""question-area""></div> 
                </div>","null","","","","","","","","",""
"","","","","","html-button-response","112","641951","0.0-112.0","85257BBEDAE945D09D130D88B592DF81","019cf49a-1552-78ae-96cf-9ab9095bea89","019cf498-06e0-702e-b525-9cde1ad77653","","387","
                <div class=""stimulus-container"">
                    <img src=""images/causal_sequence/coin_causal/coin_causal_6.png"" class=""exp-image"">
                    <div class=""question-area"">
                        <p style=""font-size: 20px; font-weight: bold; margin: 0;"">Is there a person in this image?</p>
                    </div>
                </div>","0","main_experiment_trial","6","coin_causal","causal_sequence","","","","",""
"","","","","","html-keyboard-response","113","646959","0.0-113.0","85257BBEDAE945D09D130D88B592DF81","019cf49a-1552-78ae-96cf-9ab9095bea89","019cf498-06e0-702e-b525-9cde1ad77653","","null","
                <div class=""stimulus-container"">
                    <img src=""images/causal_sequence/coin_causal/coin_causal_7.png"" class=""exp-image"">
                    <div class=""question-area""></div> 
                </div>","null","","","","","","","","",""
"","","","","","html-button-response","114","647408","0.0-114.0","85257BBEDAE945D09D130D88B592DF81","019cf49a-1552-78ae-96cf-9ab9095bea89","019cf498-06e0-702e-b525-9cde1ad77653","","448","
                <div class=""stimulus-container"">
                    <img src=""images/causal_sequence/coin_causal/coin_causal_7.png"" class=""exp-image"">
                    <div class=""question-area"">
                        <p style=""font-size: 20px; font-weight: bold; margin: 0;"">Is there a person in this image?</p>
                    </div>
                </div>","0","main_experiment_trial","7","coin_causal","causal_sequence","","","","",""
"","","","","","html-keyboard-response","115","652416","0.0-115.0","85257BBEDAE945D09D130D88B592DF81","019cf49a-1552-78ae-96cf-9ab9095bea89","019cf498-06e0-702e-b525-9cde1ad77653","","null","
                <div class=""stimulus-container"">
                    <img src=""images/causal_sequence/coin_causal/coin_causal_8.png"" class=""exp-image"">
                    <div class=""question-area""></div> 
                </div>","null","","","","","","","","",""
"","","","","","html-button-response","116","653368","0.0-116.0","85257BBEDAE945D09D130D88B592DF81","019cf49a-1552-78ae-96cf-9ab9095bea89","019cf498-06e0-702e-b525-9cde1ad77653","","951","
                <div class=""stimulus-container"">
                    <img src=""images/causal_sequence/coin_causal/coin_causal_8.png"" class=""exp-image"">
                    <div class=""question-area"">
                        <p style=""font-size: 20px; font-weight: bold; margin: 0;"">Is there a person in this image?</p>
                    </div>
                </div>","0","main_experiment_trial","8","coin_causal","causal_sequence","","","","",""
"","","","","","html-keyboard-response","117","658375","0.0-117.0","85257BBEDAE945D09D130D88B592DF81","019cf49a-1552-78ae-96cf-9ab9095bea89","019cf498-06e0-702e-b525-9cde1ad77653","","null","
                <div class=""stimulus-container"">
                    <img src=""images/causal_sequence/coin_causal/coin_causal_9.png"" class=""exp-image"">
                    <div class=""question-area""></div> 
                </div>","null","","","","","","","","",""
"","","","","","html-button-response","118","658944","0.0-118.0","85257BBEDAE945D09D130D88B592DF81","019cf49a-1552-78ae-96cf-9ab9095bea89","019cf498-06e0-702e-b525-9cde1ad77653","","568","
                <div class=""stimulus-container"">
                    <img src=""images/causal_sequence/coin_causal/coin_causal_9.png"" class=""exp-image"">
                    <div class=""question-area"">
                        <p style=""font-size: 20px; font-weight: bold; margin: 0;"">Is there a person in this image?</p>
                    </div>
                </div>","0","main_experiment_trial","9","coin_causal","causal_sequence","","","","",""
"","","","","","html-keyboard-response","119","663959","0.0-119.0","85257BBEDAE945D09D130D88B592DF81","019cf49a-1552-78ae-96cf-9ab9095bea89","019cf498-06e0-702e-b525-9cde1ad77653","","null","
                <div class=""stimulus-container"">
                    <img src=""images/causal_sequence/coin_causal/coin_causal_ten.png"" class=""exp-image"">
                    <div class=""question-area""></div> 
                </div>","null","","","","","","","","",""
"","","","","","html-button-response","120","664471","0.0-120.0","85257BBEDAE945D09D130D88B592DF81","019cf49a-1552-78ae-96cf-9ab9095bea89","019cf498-06e0-702e-b525-9cde1ad77653","","511","
                <div class=""stimulus-container"">
                    <img src=""images/causal_sequence/coin_causal/coin_causal_ten.png"" class=""exp-image"">
                    <div class=""question-area"">
                        <p style=""font-size: 20px; font-weight: bold; margin: 0;"">Is there a person in this image?</p>
                    </div>
                </div>","0","main_experiment_trial","ten","coin_causal","causal_sequence","","","","",""
"","","","","","html-keyboard-response","121","665483","0.0-121.0","85257BBEDAE945D09D130D88B592DF81","019cf49a-1552-78ae-96cf-9ab9095bea89","019cf498-06e0-702e-b525-9cde1ad77653","","null","<div style=""background-color: white; width: 100vw; height: 100vh;""></div>","null","","","","","","","","",""
"","","","","","html-keyboard-response","122","670491","0.0-122.0","85257BBEDAE945D09D130D88B592DF81","019cf49a-1552-78ae-96cf-9ab9095bea89","019cf498-06e0-702e-b525-9cde1ad77653","","null","
                <div class=""stimulus-container"">
                    <img src=""images/schematic_sequence/restaurant_scheme/restaurant_scheme_1.png"" class=""exp-image"">
                    <div class=""question-area""></div> 
                </div>","null","","","","","","","","",""
"","","","","","html-button-response","123","671183","0.0-123.0","85257BBEDAE945D09D130D88B592DF81","019cf49a-1552-78ae-96cf-9ab9095bea89","019cf498-06e0-702e-b525-9cde1ad77653","","691","
                <div class=""stimulus-container"">
                    <img src=""images/schematic_sequence/restaurant_scheme/restaurant_scheme_1.png"" class=""exp-image"">
                    <div class=""question-area"">
                        <p style=""font-size: 20px; font-weight: bold; margin: 0;"">Is there a person in this image?</p>
                    </div>
                </div>","0","main_experiment_trial","1","restaurant_scheme","schematic_sequence","","","","",""
"","","","","","html-keyboard-response","124","676193","0.0-124.0","85257BBEDAE945D09D130D88B592DF81","019cf49a-1552-78ae-96cf-9ab9095bea89","019cf498-06e0-702e-b525-9cde1ad77653","","null","
                <div class=""stimulus-container"">
                    <img src=""images/schematic_sequence/restaurant_scheme/restaurant_scheme_2.png"" class=""exp-image"">
                    <div class=""question-area""></div> 
                </div>","null","","","","","","","","",""
"","","","","","html-button-response","125","677055","0.0-125.0","85257BBEDAE945D09D130D88B592DF81","019cf49a-1552-78ae-96cf-9ab9095bea89","019cf498-06e0-702e-b525-9cde1ad77653","","862","
                <div class=""stimulus-container"">
                    <img src=""images/schematic_sequence/restaurant_scheme/restaurant_scheme_2.png"" class=""exp-image"">
                    <div class=""question-area"">
                        <p style=""font-size: 20px; font-weight: bold; margin: 0;"">Is there a person in this image?</p>
                    </div>
                </div>","1","main_experiment_trial","2","restaurant_scheme","schematic_sequence","","","","",""
"","","","","","html-keyboard-response","126","682070","0.0-126.0","85257BBEDAE945D09D130D88B592DF81","019cf49a-1552-78ae-96cf-9ab9095bea89","019cf498-06e0-702e-b525-9cde1ad77653","","null","
                <div class=""stimulus-container"">
                    <img src=""images/schematic_sequence/restaurant_scheme/restaurant_scheme_3.png"" class=""exp-image"">
                    <div class=""question-area""></div> 
                </div>","null","","","","","","","","",""
"","","","","","html-button-response","127","682944","0.0-127.0","85257BBEDAE945D09D130D88B592DF81","019cf49a-1552-78ae-96cf-9ab9095bea89","019cf498-06e0-702e-b525-9cde1ad77653","","873","
                <div class=""stimulus-container"">
                    <img src=""images/schematic_sequence/restaurant_scheme/restaurant_scheme_3.png"" class=""exp-image"">
                    <div class=""question-area"">
                        <p style=""font-size: 20px; font-weight: bold; margin: 0;"">Is there a person in this image?</p>
                    </div>
                </div>","1","main_experiment_trial","3","restaurant_scheme","schematic_sequence","","","","",""
"","","","","","html-keyboard-response","128","687963","0.0-128.0","85257BBEDAE945D09D130D88B592DF81","019cf49a-1552-78ae-96cf-9ab9095bea89","019cf498-06e0-702e-b525-9cde1ad77653","","null","
                <div class=""stimulus-container"">
                    <img src=""images/schematic_sequence/restaurant_scheme/restaurant_scheme_4.png"" class=""exp-image"">
                    <div class=""question-area""></div> 
                </div>","null","","","","","","","","",""
"","","","","","html-button-response","129","688440","0.0-129.0","85257BBEDAE945D09D130D88B592DF81","019cf49a-1552-78ae-96cf-9ab9095bea89","019cf498-06e0-702e-b525-9cde1ad77653","","476","
                <div class=""stimulus-container"">
                    <img src=""images/schematic_sequence/restaurant_scheme/restaurant_scheme_4.png"" class=""exp-image"">
                    <div class=""question-area"">
                        <p style=""font-size: 20px; font-weight: bold; margin: 0;"">Is there a person in this image?</p>
                    </div>
                </div>","0","main_experiment_trial","4","restaurant_scheme","schematic_sequence","","","","",""
"","","","","","html-keyboard-response","130","693448","0.0-130.0","85257BBEDAE945D09D130D88B592DF81","019cf49a-1552-78ae-96cf-9ab9095bea89","019cf498-06e0-702e-b525-9cde1ad77653","","null","
                <div class=""stimulus-container"">
                    <img src=""images/schematic_sequence/restaurant_scheme/restaurant_scheme_5.png"" class=""exp-image"">
                    <div class=""question-area""></div> 
                </div>","null","","","","","","","","",""
"","","","","","html-button-response","131","694248","0.0-131.0","85257BBEDAE945D09D130D88B592DF81","019cf49a-1552-78ae-96cf-9ab9095bea89","019cf498-06e0-702e-b525-9cde1ad77653","","799","
                <div class=""stimulus-container"">
                    <img src=""images/schematic_sequence/restaurant_scheme/restaurant_scheme_5.png"" class=""exp-image"">
                    <div class=""question-area"">
                        <p style=""font-size: 20px; font-weight: bold; margin: 0;"">Is there a person in this image?</p>
                    </div>
                </div>","0","main_experiment_trial","5","restaurant_scheme","schematic_sequence","","","","",""
"","","","","","html-keyboard-response","132","699249","0.0-132.0","85257BBEDAE945D09D130D88B592DF81","019cf49a-1552-78ae-96cf-9ab9095bea89","019cf498-06e0-702e-b525-9cde1ad77653","","null","
                <div class=""stimulus-container"">
                    <img src=""images/schematic_sequence/restaurant_scheme/restaurant_scheme_6.png"" class=""exp-image"">
                    <div class=""question-area""></div> 
                </div>","null","","","","","","","","",""
"","","","","","html-button-response","133","700280","0.0-133.0","85257BBEDAE945D09D130D88B592DF81","019cf49a-1552-78ae-96cf-9ab9095bea89","019cf498-06e0-702e-b525-9cde1ad77653","","1030","
                <div class=""stimulus-container"">
                    <img src=""images/schematic_sequence/restaurant_scheme/restaurant_scheme_6.png"" class=""exp-image"">
                    <div class=""question-area"">
                        <p style=""font-size: 20px; font-weight: bold; margin: 0;"">Is there a person in this image?</p>
                    </div>
                </div>","1","main_experiment_trial","6","restaurant_scheme","schematic_sequence","","","","",""
"","","","","","html-keyboard-response","134","705286","0.0-134.0","85257BBEDAE945D09D130D88B592DF81","019cf49a-1552-78ae-96cf-9ab9095bea89","019cf498-06e0-702e-b525-9cde1ad77653","","null","
                <div class=""stimulus-container"">
                    <img src=""images/schematic_sequence/restaurant_scheme/restaurant_scheme_7.png"" class=""exp-image"">
                    <div class=""question-area""></div> 
                </div>","null","","","","","","","","",""
"","","","","","html-button-response","135","706144","0.0-135.0","85257BBEDAE945D09D130D88B592DF81","019cf49a-1552-78ae-96cf-9ab9095bea89","019cf498-06e0-702e-b525-9cde1ad77653","","857","
                <div class=""stimulus-container"">
                    <img src=""images/schematic_sequence/restaurant_scheme/restaurant_scheme_7.png"" class=""exp-image"">
                    <div class=""question-area"">
                        <p style=""font-size: 20px; font-weight: bold; margin: 0;"">Is there a person in this image?</p>
                    </div>
                </div>","1","main_experiment_trial","7","restaurant_scheme","schematic_sequence","","","","",""
"","","","","","html-keyboard-response","136","711163","0.0-136.0","85257BBEDAE945D09D130D88B592DF81","019cf49a-1552-78ae-96cf-9ab9095bea89","019cf498-06e0-702e-b525-9cde1ad77653","","null","
                <div class=""stimulus-container"">
                    <img src=""images/schematic_sequence/restaurant_scheme/restaurant_scheme_8.png"" class=""exp-image"">
                    <div class=""question-area""></div> 
                </div>","null","","","","","","","","",""
"","","","","","html-button-response","137","712328","0.0-137.0","85257BBEDAE945D09D130D88B592DF81","019cf49a-1552-78ae-96cf-9ab9095bea89","019cf498-06e0-702e-b525-9cde1ad77653","","1164","
                <div class=""stimulus-container"">
                    <img src=""images/schematic_sequence/restaurant_scheme/restaurant_scheme_8.png"" class=""exp-image"">
                    <div class=""question-area"">
                        <p style=""font-size: 20px; font-weight: bold; margin: 0;"">Is there a person in this image?</p>
                    </div>
                </div>","0","main_experiment_trial","8","restaurant_scheme","schematic_sequence","","","","",""
"","","","","","html-keyboard-response","138","717338","0.0-138.0","85257BBEDAE945D09D130D88B592DF81","019cf49a-1552-78ae-96cf-9ab9095bea89","019cf498-06e0-702e-b525-9cde1ad77653","","null","
                <div class=""stimulus-container"">
                    <img src=""images/schematic_sequence/restaurant_scheme/restaurant_scheme_9.png"" class=""exp-image"">
                    <div class=""question-area""></div> 
                </div>","null","","","","","","","","",""
"","","","","","html-button-response","139","717768","0.0-139.0","85257BBEDAE945D09D130D88B592DF81","019cf49a-1552-78ae-96cf-9ab9095bea89","019cf498-06e0-702e-b525-9cde1ad77653","","429","
                <div class=""stimulus-container"">
                    <img src=""images/schematic_sequence/restaurant_scheme/restaurant_scheme_9.png"" class=""exp-image"">
                    <div class=""question-area"">
                        <p style=""font-size: 20px; font-weight: bold; margin: 0;"">Is there a person in this image?</p>
                    </div>
                </div>","0","main_experiment_trial","9","restaurant_scheme","schematic_sequence","","","","",""
"","","","","","html-keyboard-response","140","722781","0.0-140.0","85257BBEDAE945D09D130D88B592DF81","019cf49a-1552-78ae-96cf-9ab9095bea89","019cf498-06e0-702e-b525-9cde1ad77653","","null","
                <div class=""stimulus-container"">
                    <img src=""images/schematic_sequence/restaurant_scheme/restaurant_scheme_ten.png"" class=""exp-image"">
                    <div class=""question-area""></div> 
                </div>","null","","","","","","","","",""
"","","","","","html-button-response","141","723192","0.0-141.0","85257BBEDAE945D09D130D88B592DF81","019cf49a-1552-78ae-96cf-9ab9095bea89","019cf498-06e0-702e-b525-9cde1ad77653","","410","
                <div class=""stimulus-container"">
                    <img src=""images/schematic_sequence/restaurant_scheme/restaurant_scheme_ten.png"" class=""exp-image"">
                    <div class=""question-area"">
                        <p style=""font-size: 20px; font-weight: bold; margin: 0;"">Is there a person in this image?</p>
                    </div>
                </div>","0","main_experiment_trial","ten","restaurant_scheme","schematic_sequence","","","","",""
"","","","","","html-keyboard-response","142","724198","0.0-142.0","85257BBEDAE945D09D130D88B592DF81","019cf49a-1552-78ae-96cf-9ab9095bea89","019cf498-06e0-702e-b525-9cde1ad77653","","null","<div style=""background-color: white; width: 100vw; height: 100vh;""></div>","null","","","","","","","","",""
"","","","","","html-keyboard-response","143","729202","0.0-143.0","85257BBEDAE945D09D130D88B592DF81","019cf49a-1552-78ae-96cf-9ab9095bea89","019cf498-06e0-702e-b525-9cde1ad77653","","null","
                <div class=""stimulus-container"">
                    <img src=""images/causal_sequence/the_performance_causal/the_performance_causal_1.png"" class=""exp-image"">
                    <div class=""question-area""></div> 
                </div>","null","","","","","","","","",""
"","","","","","html-button-response","144","729632","0.0-144.0","85257BBEDAE945D09D130D88B592DF81","019cf49a-1552-78ae-96cf-9ab9095bea89","019cf498-06e0-702e-b525-9cde1ad77653","","429","
                <div class=""stimulus-container"">
                    <img src=""images/causal_sequence/the_performance_causal/the_performance_causal_1.png"" class=""exp-image"">
                    <div class=""question-area"">
                        <p style=""font-size: 20px; font-weight: bold; margin: 0;"">Is there a person in this image?</p>
                    </div>
                </div>","0","main_experiment_trial","1","the_performance_causal","causal_sequence","","","","",""
"","","","","","html-keyboard-response","145","734645","0.0-145.0","85257BBEDAE945D09D130D88B592DF81","019cf49a-1552-78ae-96cf-9ab9095bea89","019cf498-06e0-702e-b525-9cde1ad77653","","null","
                <div class=""stimulus-container"">
                    <img src=""images/causal_sequence/the_performance_causal/the_performance_causal_2.png"" class=""exp-image"">
                    <div class=""question-area""></div> 
                </div>","null","","","","","","","","",""
"","","","","","html-button-response","146","735064","0.0-146.0","85257BBEDAE945D09D130D88B592DF81","019cf49a-1552-78ae-96cf-9ab9095bea89","019cf498-06e0-702e-b525-9cde1ad77653","","418","
                <div class=""stimulus-container"">
                    <img src=""images/causal_sequence/the_performance_causal/the_performance_causal_2.png"" class=""exp-image"">
                    <div class=""question-area"">
                        <p style=""font-size: 20px; font-weight: bold; margin: 0;"">Is there a person in this image?</p>
                    </div>
                </div>","0","main_experiment_trial","2","the_performance_causal","causal_sequence","","","","",""
"","","","","","html-keyboard-response","147","740066","0.0-147.0","85257BBEDAE945D09D130D88B592DF81","019cf49a-1552-78ae-96cf-9ab9095bea89","019cf498-06e0-702e-b525-9cde1ad77653","","null","
                <div class=""stimulus-container"">
                    <img src=""images/causal_sequence/the_performance_causal/the_performance_causal_3.png"" class=""exp-image"">
                    <div class=""question-area""></div> 
                </div>","null","","","","","","","","",""
"","","","","","html-button-response","148","740728","0.0-148.0","85257BBEDAE945D09D130D88B592DF81","019cf49a-1552-78ae-96cf-9ab9095bea89","019cf498-06e0-702e-b525-9cde1ad77653","","661","
                <div class=""stimulus-container"">
                    <img src=""images/causal_sequence/the_performance_causal/the_performance_causal_3.png"" class=""exp-image"">
                    <div class=""question-area"">
                        <p style=""font-size: 20px; font-weight: bold; margin: 0;"">Is there a person in this image?</p>
                    </div>
                </div>","0","main_experiment_trial","3","the_performance_causal","causal_sequence","","","","",""
"","","","","","html-keyboard-response","149","745738","0.0-149.0","85257BBEDAE945D09D130D88B592DF81","019cf49a-1552-78ae-96cf-9ab9095bea89","019cf498-06e0-702e-b525-9cde1ad77653","","null","
                <div class=""stimulus-container"">
                    <img src=""images/causal_sequence/the_performance_causal/the_performance_causal_4.png"" class=""exp-image"">
                    <div class=""question-area""></div> 
                </div>","null","","","","","","","","",""
"","","","","","html-button-response","150","746640","0.0-150.0","85257BBEDAE945D09D130D88B592DF81","019cf49a-1552-78ae-96cf-9ab9095bea89","019cf498-06e0-702e-b525-9cde1ad77653","","901","
                <div class=""stimulus-container"">
                    <img src=""images/causal_sequence/the_performance_causal/the_performance_causal_4.png"" class=""exp-image"">
                    <div class=""question-area"">
                        <p style=""font-size: 20px; font-weight: bold; margin: 0;"">Is there a person in this image?</p>
                    </div>
                </div>","0","main_experiment_trial","4","the_performance_causal","causal_sequence","","","","",""
"","","","","","html-keyboard-response","151","751642","0.0-151.0","85257BBEDAE945D09D130D88B592DF81","019cf49a-1552-78ae-96cf-9ab9095bea89","019cf498-06e0-702e-b525-9cde1ad77653","","null","
                <div class=""stimulus-container"">
                    <img src=""images/causal_sequence/the_performance_causal/the_performance_causal_5.png"" class=""exp-image"">
                    <div class=""question-area""></div> 
                </div>","null","","","","","","","","",""
"","","","","","html-button-response","152","752048","0.0-152.0","85257BBEDAE945D09D130D88B592DF81","019cf49a-1552-78ae-96cf-9ab9095bea89","019cf498-06e0-702e-b525-9cde1ad77653","","404","
                <div class=""stimulus-container"">
                    <img src=""images/causal_sequence/the_performance_causal/the_performance_causal_5.png"" class=""exp-image"">
                    <div class=""question-area"">
                        <p style=""font-size: 20px; font-weight: bold; margin: 0;"">Is there a person in this image?</p>
                    </div>
                </div>","0","main_experiment_trial","5","the_performance_causal","causal_sequence","","","","",""
"","","","","","html-keyboard-response","153","757061","0.0-153.0","85257BBEDAE945D09D130D88B592DF81","019cf49a-1552-78ae-96cf-9ab9095bea89","019cf498-06e0-702e-b525-9cde1ad77653","","null","
                <div class=""stimulus-container"">
                    <img src=""images/causal_sequence/the_performance_causal/the_performance_causal_6.png"" class=""exp-image"">
                    <div class=""question-area""></div> 
                </div>","null","","","","","","","","",""
"","","","","","html-button-response","154","757464","0.0-154.0","85257BBEDAE945D09D130D88B592DF81","019cf49a-1552-78ae-96cf-9ab9095bea89","019cf498-06e0-702e-b525-9cde1ad77653","","402","
                <div class=""stimulus-container"">
                    <img src=""images/causal_sequence/the_performance_causal/the_performance_causal_6.png"" class=""exp-image"">
                    <div class=""question-area"">
                        <p style=""font-size: 20px; font-weight: bold; margin: 0;"">Is there a person in this image?</p>
                    </div>
                </div>","0","main_experiment_trial","6","the_performance_causal","causal_sequence","","","","",""
"","","","","","html-keyboard-response","155","762483","0.0-155.0","85257BBEDAE945D09D130D88B592DF81","019cf49a-1552-78ae-96cf-9ab9095bea89","019cf498-06e0-702e-b525-9cde1ad77653","","null","
                <div class=""stimulus-container"">
                    <img src=""images/causal_sequence/the_performance_causal/the_performance_causal_7.png"" class=""exp-image"">
                    <div class=""question-area""></div> 
                </div>","null","","","","","","","","",""
"","","","","","html-button-response","156","762871","0.0-156.0","85257BBEDAE945D09D130D88B592DF81","019cf49a-1552-78ae-96cf-9ab9095bea89","019cf498-06e0-702e-b525-9cde1ad77653","","387","
                <div class=""stimulus-container"">
                    <img src=""images/causal_sequence/the_performance_causal/the_performance_causal_7.png"" class=""exp-image"">
                    <div class=""question-area"">
                        <p style=""font-size: 20px; font-weight: bold; margin: 0;"">Is there a person in this image?</p>
                    </div>
                </div>","0","main_experiment_trial","7","the_performance_causal","causal_sequence","","","","",""
"","","","","","html-keyboard-response","157","767873","0.0-157.0","85257BBEDAE945D09D130D88B592DF81","019cf49a-1552-78ae-96cf-9ab9095bea89","019cf498-06e0-702e-b525-9cde1ad77653","","null","
                <div class=""stimulus-container"">
                    <img src=""images/causal_sequence/the_performance_causal/the_performance_causal_8.png"" class=""exp-image"">
                    <div class=""question-area""></div> 
                </div>","null","","","","","","","","",""
"","","","","","html-button-response","158","768487","0.0-158.0","85257BBEDAE945D09D130D88B592DF81","019cf49a-1552-78ae-96cf-9ab9095bea89","019cf498-06e0-702e-b525-9cde1ad77653","","613","
                <div class=""stimulus-container"">
                    <img src=""images/causal_sequence/the_performance_causal/the_performance_causal_8.png"" class=""exp-image"">
                    <div class=""question-area"">
                        <p style=""font-size: 20px; font-weight: bold; margin: 0;"">Is there a person in this image?</p>
                    </div>
                </div>","0","main_experiment_trial","8","the_performance_causal","causal_sequence","","","","",""
"","","","","","html-keyboard-response","159","773496","0.0-159.0","85257BBEDAE945D09D130D88B592DF81","019cf49a-1552-78ae-96cf-9ab9095bea89","019cf498-06e0-702e-b525-9cde1ad77653","","null","
                <div class=""stimulus-container"">
                    <img src=""images/causal_sequence/the_performance_causal/the_performance_causal_9.png"" class=""exp-image"">
                    <div class=""question-area""></div> 
                </div>","null","","","","","","","","",""
"","","","","","html-button-response","160","774751","0.0-160.0","85257BBEDAE945D09D130D88B592DF81","019cf49a-1552-78ae-96cf-9ab9095bea89","019cf498-06e0-702e-b525-9cde1ad77653","","1255","
                <div class=""stimulus-container"">
                    <img src=""images/causal_sequence/the_performance_causal/the_performance_causal_9.png"" class=""exp-image"">
                    <div class=""question-area"">
                        <p style=""font-size: 20px; font-weight: bold; margin: 0;"">Is there a person in this image?</p>
                    </div>
                </div>","0","main_experiment_trial","9","the_performance_causal","causal_sequence","","","","",""
"","","","","","html-keyboard-response","161","779762","0.0-161.0","85257BBEDAE945D09D130D88B592DF81","019cf49a-1552-78ae-96cf-9ab9095bea89","019cf498-06e0-702e-b525-9cde1ad77653","","null","
                <div class=""stimulus-container"">
                    <img src=""images/causal_sequence/the_performance_causal/the_performance_causal_ten.png"" class=""exp-image"">
                    <div class=""question-area""></div> 
                </div>","null","","","","","","","","",""
"","","","","","html-button-response","162","780560","0.0-162.0","85257BBEDAE945D09D130D88B592DF81","019cf49a-1552-78ae-96cf-9ab9095bea89","019cf498-06e0-702e-b525-9cde1ad77653","","797","
                <div class=""stimulus-container"">
                    <img src=""images/causal_sequence/the_performance_causal/the_performance_causal_ten.png"" class=""exp-image"">
                    <div class=""question-area"">
                        <p style=""font-size: 20px; font-weight: bold; margin: 0;"">Is there a person in this image?</p>
                    </div>
                </div>","0","main_experiment_trial","ten","the_performance_causal","causal_sequence","","","","",""
"","","","","","html-keyboard-response","163","781564","0.0-163.0","85257BBEDAE945D09D130D88B592DF81","019cf49a-1552-78ae-96cf-9ab9095bea89","019cf498-06e0-702e-b525-9cde1ad77653","","null","<div style=""background-color: white; width: 100vw; height: 100vh;""></div>","null","","","","","","","","",""
"","","","","","html-keyboard-response","164","786565","0.0-164.0","85257BBEDAE945D09D130D88B592DF81","019cf49a-1552-78ae-96cf-9ab9095bea89","019cf498-06e0-702e-b525-9cde1ad77653","","null","
                <div class=""stimulus-container"">
                    <img src=""images/schematic_sequence/flight_scheme/flight_scheme_1.png"" class=""exp-image"">
                    <div class=""question-area""></div> 
                </div>","null","","","","","","","","",""
"","","","","","html-button-response","165","787288","0.0-165.0","85257BBEDAE945D09D130D88B592DF81","019cf49a-1552-78ae-96cf-9ab9095bea89","019cf498-06e0-702e-b525-9cde1ad77653","","722","
                <div class=""stimulus-container"">
                    <img src=""images/schematic_sequence/flight_scheme/flight_scheme_1.png"" class=""exp-image"">
                    <div class=""question-area"">
                        <p style=""font-size: 20px; font-weight: bold; margin: 0;"">Is there a person in this image?</p>
                    </div>
                </div>","0","main_experiment_trial","1","flight_scheme","schematic_sequence","","","","",""
"","","","","","html-keyboard-response","166","792294","0.0-166.0","85257BBEDAE945D09D130D88B592DF81","019cf49a-1552-78ae-96cf-9ab9095bea89","019cf498-06e0-702e-b525-9cde1ad77653","","null","
                <div class=""stimulus-container"">
                    <img src=""images/schematic_sequence/flight_scheme/flight_scheme_2.png"" class=""exp-image"">
                    <div class=""question-area""></div> 
                </div>","null","","","","","","","","",""
"","","","","","html-button-response","167","793008","0.0-167.0","85257BBEDAE945D09D130D88B592DF81","019cf49a-1552-78ae-96cf-9ab9095bea89","019cf498-06e0-702e-b525-9cde1ad77653","","713","
                <div class=""stimulus-container"">
                    <img src=""images/schematic_sequence/flight_scheme/flight_scheme_2.png"" class=""exp-image"">
                    <div class=""question-area"">
                        <p style=""font-size: 20px; font-weight: bold; margin: 0;"">Is there a person in this image?</p>
                    </div>
                </div>","1","main_experiment_trial","2","flight_scheme","schematic_sequence","","","","",""
"","","","","","html-keyboard-response","168","798020","0.0-168.0","85257BBEDAE945D09D130D88B592DF81","019cf49a-1552-78ae-96cf-9ab9095bea89","019cf498-06e0-702e-b525-9cde1ad77653","","null","
                <div class=""stimulus-container"">
                    <img src=""images/schematic_sequence/flight_scheme/flight_scheme_3.png"" class=""exp-image"">
                    <div class=""question-area""></div> 
                </div>","null","","","","","","","","",""
"","","","","","html-button-response","169","798768","0.0-169.0","85257BBEDAE945D09D130D88B592DF81","019cf49a-1552-78ae-96cf-9ab9095bea89","019cf498-06e0-702e-b525-9cde1ad77653","","746","
                <div class=""stimulus-container"">
                    <img src=""images/schematic_sequence/flight_scheme/flight_scheme_3.png"" class=""exp-image"">
                    <div class=""question-area"">
                        <p style=""font-size: 20px; font-weight: bold; margin: 0;"">Is there a person in this image?</p>
                    </div>
                </div>","0","main_experiment_trial","3","flight_scheme","schematic_sequence","","","","",""
"","","","","","html-keyboard-response","170","803780","0.0-170.0","85257BBEDAE945D09D130D88B592DF81","019cf49a-1552-78ae-96cf-9ab9095bea89","019cf498-06e0-702e-b525-9cde1ad77653","","null","
                <div class=""stimulus-container"">
                    <img src=""images/schematic_sequence/flight_scheme/flight_scheme_4.png"" class=""exp-image"">
                    <div class=""question-area""></div> 
                </div>","null","","","","","","","","",""
"","","","","","html-button-response","171","804935","0.0-171.0","85257BBEDAE945D09D130D88B592DF81","019cf49a-1552-78ae-96cf-9ab9095bea89","019cf498-06e0-702e-b525-9cde1ad77653","","1155","
                <div class=""stimulus-container"">
                    <img src=""images/schematic_sequence/flight_scheme/flight_scheme_4.png"" class=""exp-image"">
                    <div class=""question-area"">
                        <p style=""font-size: 20px; font-weight: bold; margin: 0;"">Is there a person in this image?</p>
                    </div>
                </div>","0","main_experiment_trial","4","flight_scheme","schematic_sequence","","","","",""
"","","","","","html-keyboard-response","172","809941","0.0-172.0","85257BBEDAE945D09D130D88B592DF81","019cf49a-1552-78ae-96cf-9ab9095bea89","019cf498-06e0-702e-b525-9cde1ad77653","","null","
                <div class=""stimulus-container"">
                    <img src=""images/schematic_sequence/flight_scheme/flight_scheme_5.png"" class=""exp-image"">
                    <div class=""question-area""></div> 
                </div>","null","","","","","","","","",""
"","","","","","html-button-response","173","810719","0.0-173.0","85257BBEDAE945D09D130D88B592DF81","019cf49a-1552-78ae-96cf-9ab9095bea89","019cf498-06e0-702e-b525-9cde1ad77653","","777","
                <div class=""stimulus-container"">
                    <img src=""images/schematic_sequence/flight_scheme/flight_scheme_5.png"" class=""exp-image"">
                    <div class=""question-area"">
                        <p style=""font-size: 20px; font-weight: bold; margin: 0;"">Is there a person in this image?</p>
                    </div>
                </div>","0","main_experiment_trial","5","flight_scheme","schematic_sequence","","","","",""
"","","","","","html-keyboard-response","174","815733","0.0-174.0","85257BBEDAE945D09D130D88B592DF81","019cf49a-1552-78ae-96cf-9ab9095bea89","019cf498-06e0-702e-b525-9cde1ad77653","","null","
                <div class=""stimulus-container"">
                    <img src=""images/schematic_sequence/flight_scheme/flight_scheme_6.png"" class=""exp-image"">
                    <div class=""question-area""></div> 
                </div>","null","","","","","","","","",""
"","","","","","html-button-response","175","816655","0.0-175.0","85257BBEDAE945D09D130D88B592DF81","019cf49a-1552-78ae-96cf-9ab9095bea89","019cf498-06e0-702e-b525-9cde1ad77653","","921","
                <div class=""stimulus-container"">
                    <img src=""images/schematic_sequence/flight_scheme/flight_scheme_6.png"" class=""exp-image"">
                    <div class=""question-area"">
                        <p style=""font-size: 20px; font-weight: bold; margin: 0;"">Is there a person in this image?</p>
                    </div>
                </div>","1","main_experiment_trial","6","flight_scheme","schematic_sequence","","","","",""
"","","","","","html-keyboard-response","176","821657","0.0-176.0","85257BBEDAE945D09D130D88B592DF81","019cf49a-1552-78ae-96cf-9ab9095bea89","019cf498-06e0-702e-b525-9cde1ad77653","","null","
                <div class=""stimulus-container"">
                    <img src=""images/schematic_sequence/flight_scheme/flight_scheme_7.png"" class=""exp-image"">
                    <div class=""question-area""></div> 
                </div>","null","","","","","","","","",""
"","","","","","html-button-response","177","822335","0.0-177.0","85257BBEDAE945D09D130D88B592DF81","019cf49a-1552-78ae-96cf-9ab9095bea89","019cf498-06e0-702e-b525-9cde1ad77653","","677","
                <div class=""stimulus-container"">
                    <img src=""images/schematic_sequence/flight_scheme/flight_scheme_7.png"" class=""exp-image"">
                    <div class=""question-area"">
                        <p style=""font-size: 20px; font-weight: bold; margin: 0;"">Is there a person in this image?</p>
                    </div>
                </div>","1","main_experiment_trial","7","flight_scheme","schematic_sequence","","","","",""
"","","","","","html-keyboard-response","178","827338","0.0-178.0","85257BBEDAE945D09D130D88B592DF81","019cf49a-1552-78ae-96cf-9ab9095bea89","019cf498-06e0-702e-b525-9cde1ad77653","","null","
                <div class=""stimulus-container"">
                    <img src=""images/schematic_sequence/flight_scheme/flight_scheme_8.png"" class=""exp-image"">
                    <div class=""question-area""></div> 
                </div>","null","","","","","","","","",""
"","","","","","html-button-response","179","827743","0.0-179.0","85257BBEDAE945D09D130D88B592DF81","019cf49a-1552-78ae-96cf-9ab9095bea89","019cf498-06e0-702e-b525-9cde1ad77653","","404","
                <div class=""stimulus-container"">
                    <img src=""images/schematic_sequence/flight_scheme/flight_scheme_8.png"" class=""exp-image"">
                    <div class=""question-area"">
                        <p style=""font-size: 20px; font-weight: bold; margin: 0;"">Is there a person in this image?</p>
                    </div>
                </div>","1","main_experiment_trial","8","flight_scheme","schematic_sequence","","","","",""
"","","","","","html-keyboard-response","180","832745","0.0-180.0","85257BBEDAE945D09D130D88B592DF81","019cf49a-1552-78ae-96cf-9ab9095bea89","019cf498-06e0-702e-b525-9cde1ad77653","","null","
                <div class=""stimulus-container"">
                    <img src=""images/schematic_sequence/flight_scheme/flight_scheme_9.png"" class=""exp-image"">
                    <div class=""question-area""></div> 
                </div>","null","","","","","","","","",""
"","","","","","html-button-response","181","833448","0.0-181.0","85257BBEDAE945D09D130D88B592DF81","019cf49a-1552-78ae-96cf-9ab9095bea89","019cf498-06e0-702e-b525-9cde1ad77653","","702","
                <div class=""stimulus-container"">
                    <img src=""images/schematic_sequence/flight_scheme/flight_scheme_9.png"" class=""exp-image"">
                    <div class=""question-area"">
                        <p style=""font-size: 20px; font-weight: bold; margin: 0;"">Is there a person in this image?</p>
                    </div>
                </div>","0","main_experiment_trial","9","flight_scheme","schematic_sequence","","","","",""
"","","","","","html-keyboard-response","182","838456","0.0-182.0","85257BBEDAE945D09D130D88B592DF81","019cf49a-1552-78ae-96cf-9ab9095bea89","019cf498-06e0-702e-b525-9cde1ad77653","","null","
                <div class=""stimulus-container"">
                    <img src=""images/schematic_sequence/flight_scheme/flight_scheme_ten.png"" class=""exp-image"">
                    <div class=""question-area""></div> 
                </div>","null","","","","","","","","",""
