"success","timeout","failed_images","failed_audio","failed_video","trial_type","trial_index","time_elapsed","internal_node_id","subject_id","study_id","session_id","view_history","rt","stimulus","response","task","image_index","folder","sequence_type","presentation_order","valuable_image_index","reward_type","target_X","l_dist","r_dist","chosen_image_index","selected_after_X","correct_choice"
"true","false","[]","[]","[]","preload","0","5932","0.0-0.0","5A5BF28B8EFE47D9AF7F4ED88DE6290B","019d6663-99bf-74bb-ab87-70561dec4260","019d6630-2071-75cb-8026-6699844a2719","","","","","","","","","","","","","","","","",""
"","","","","","instructions","1","8935","0.0-1.0","5A5BF28B8EFE47D9AF7F4ED88DE6290B","019d6663-99bf-74bb-ab87-70561dec4260","019d6630-2071-75cb-8026-6699844a2719","[{""page_index"":0,""viewing_time"":3000}]","3002","","","","","","","","","","","","","","",""
"","","","","","instructions","2","15634","0.0-2.0","5A5BF28B8EFE47D9AF7F4ED88DE6290B","019d6663-99bf-74bb-ab87-70561dec4260","019d6630-2071-75cb-8026-6699844a2719","[{""page_index"":0,""viewing_time"":6697}]","6698","","","","","","","","","","","","","","",""
"true","","","","","fullscreen","3","18104","0.0-3.0","5A5BF28B8EFE47D9AF7F4ED88DE6290B","019d6663-99bf-74bb-ab87-70561dec4260","019d6630-2071-75cb-8026-6699844a2719","","1433","","","","","","","","","","","","","","",""
"","","","","","instructions","4","32866","0.0-4.0","5A5BF28B8EFE47D9AF7F4ED88DE6290B","019d6663-99bf-74bb-ab87-70561dec4260","019d6630-2071-75cb-8026-6699844a2719","[{""page_index"":0,""viewing_time"":14759}]","14761","","","","","","","","","","","","","","",""
"","","","","","instructions","5","38451","0.0-5.0","5A5BF28B8EFE47D9AF7F4ED88DE6290B","019d6663-99bf-74bb-ab87-70561dec4260","019d6630-2071-75cb-8026-6699844a2719","[{""page_index"":0,""viewing_time"":5583}]","5585","","","","","","","","","","","","","","",""
"","","","","","html-keyboard-response","6","42455","0.0-6.0","5A5BF28B8EFE47D9AF7F4ED88DE6290B","019d6663-99bf-74bb-ab87-70561dec4260","019d6630-2071-75cb-8026-6699844a2719","","null","
                <div class=""stimulus-container"">
                    <img src=""images/instructions/movie_1.png"" class=""exp-image"">
                    <div class=""question-area""></div> 
                </div>","null","","","","","","","","","","","","",""
"","","","","","html-button-response","7","43367","0.0-7.0","5A5BF28B8EFE47D9AF7F4ED88DE6290B","019d6663-99bf-74bb-ab87-70561dec4260","019d6630-2071-75cb-8026-6699844a2719","","908","
                <div class=""stimulus-container"">
                    <img src=""images/instructions/movie_1.png"" class=""exp-image"">
                    <div class=""question-area"">
                        <p style=""font-size: 20px; font-weight: bold; margin: 0;"">Was there a person in this image?</p>
                    </div>
                </div>","0","example_question","1","","","","","","","","","","",""
"","","","","","html-keyboard-response","8","47384","0.0-8.0","5A5BF28B8EFE47D9AF7F4ED88DE6290B","019d6663-99bf-74bb-ab87-70561dec4260","019d6630-2071-75cb-8026-6699844a2719","","null","
                <div class=""stimulus-container"">
                    <img src=""images/instructions/movie_2.png"" class=""exp-image"">
                    <div class=""question-area""></div> 
                </div>","null","","","","","","","","","","","","",""
"","","","","","html-button-response","9","48015","0.0-9.0","5A5BF28B8EFE47D9AF7F4ED88DE6290B","019d6663-99bf-74bb-ab87-70561dec4260","019d6630-2071-75cb-8026-6699844a2719","","629","
                <div class=""stimulus-container"">
                    <img src=""images/instructions/movie_2.png"" class=""exp-image"">
                    <div class=""question-area"">
                        <p style=""font-size: 20px; font-weight: bold; margin: 0;"">Was there a person in this image?</p>
                    </div>
                </div>","1","example_question","2","","","","","","","","","","",""
"","","","","","html-keyboard-response","10","52024","0.0-10.0","5A5BF28B8EFE47D9AF7F4ED88DE6290B","019d6663-99bf-74bb-ab87-70561dec4260","019d6630-2071-75cb-8026-6699844a2719","","null","
                <div class=""stimulus-container"">
                    <img src=""images/instructions/movie_3.png"" class=""exp-image"">
                    <div class=""question-area""></div> 
                </div>","null","","","","","","","","","","","","",""
"","","","","","html-button-response","11","53271","0.0-11.0","5A5BF28B8EFE47D9AF7F4ED88DE6290B","019d6663-99bf-74bb-ab87-70561dec4260","019d6630-2071-75cb-8026-6699844a2719","","1246","
                <div class=""stimulus-container"">
                    <img src=""images/instructions/movie_3.png"" class=""exp-image"">
                    <div class=""question-area"">
                        <p style=""font-size: 20px; font-weight: bold; margin: 0;"">Was there a person in this image?</p>
                    </div>
                </div>","0","example_question","3","","","","","","","","","","",""
"","","","","","html-keyboard-response","12","57278","0.0-12.0","5A5BF28B8EFE47D9AF7F4ED88DE6290B","019d6663-99bf-74bb-ab87-70561dec4260","019d6630-2071-75cb-8026-6699844a2719","","null","
                <div class=""stimulus-container"">
                    <img src=""images/instructions/movie_4.png"" class=""exp-image"">
                    <div class=""question-area""></div> 
                </div>","null","","","","","","","","","","","","",""
"","","","","","html-button-response","13","58169","0.0-13.0","5A5BF28B8EFE47D9AF7F4ED88DE6290B","019d6663-99bf-74bb-ab87-70561dec4260","019d6630-2071-75cb-8026-6699844a2719","","888","
                <div class=""stimulus-container"">
                    <img src=""images/instructions/movie_4.png"" class=""exp-image"">
                    <div class=""question-area"">
                        <p style=""font-size: 20px; font-weight: bold; margin: 0;"">Was there a person in this image?</p>
                    </div>
                </div>","0","example_question","4","","","","","","","","","","",""
"","","","","","instructions","14","60484","0.0-14.0","5A5BF28B8EFE47D9AF7F4ED88DE6290B","019d6663-99bf-74bb-ab87-70561dec4260","019d6630-2071-75cb-8026-6699844a2719","[{""page_index"":0,""viewing_time"":2312}]","2313","","","","","","","","","","","","","","",""
"","","","","","instructions","15","63456","0.0-15.0","5A5BF28B8EFE47D9AF7F4ED88DE6290B","019d6663-99bf-74bb-ab87-70561dec4260","019d6630-2071-75cb-8026-6699844a2719","[{""page_index"":0,""viewing_time"":2970}]","2971","","","","","","","","","","","","","","",""
"","","","","","html-keyboard-response","16","68468","0.0-16.0","5A5BF28B8EFE47D9AF7F4ED88DE6290B","019d6663-99bf-74bb-ab87-70561dec4260","019d6630-2071-75cb-8026-6699844a2719","","null","<div style=""background-color: white; width: 100vw; height: 100vh;""></div>","null","","","","","","","","","","","","",""
"","","","","","html-keyboard-response","17","73483","0.0-17.0","5A5BF28B8EFE47D9AF7F4ED88DE6290B","019d6663-99bf-74bb-ab87-70561dec4260","019d6630-2071-75cb-8026-6699844a2719","","null","
                <div class=""stimulus-container"">
                    <img src=""images/semantic_sequence/physical_activity_semantic/physical_activity_semantic_1.png"" class=""exp-image"">
                    <div class=""question-area""></div> 
                </div>","null","","","","","","","","","","","","",""
"","","","","","html-button-response","18","74125","0.0-18.0","5A5BF28B8EFE47D9AF7F4ED88DE6290B","019d6663-99bf-74bb-ab87-70561dec4260","019d6630-2071-75cb-8026-6699844a2719","","639","
                <div class=""stimulus-container"">
                    <img src=""images/semantic_sequence/physical_activity_semantic/physical_activity_semantic_1.png"" class=""exp-image"">
                    <div class=""question-area"">
                        <p style=""font-size: 20px; font-weight: bold; margin: 0;"">Is there a person in this image?</p>
                    </div>
                </div>","0","main_experiment_trial","1","physical_activity_semantic","semantic_sequence","chronological","","","","","","","",""
"","","","","","html-keyboard-response","19","79127","0.0-19.0","5A5BF28B8EFE47D9AF7F4ED88DE6290B","019d6663-99bf-74bb-ab87-70561dec4260","019d6630-2071-75cb-8026-6699844a2719","","null","
                <div class=""stimulus-container"">
                    <img src=""images/semantic_sequence/physical_activity_semantic/physical_activity_semantic_2.png"" class=""exp-image"">
                    <div class=""question-area""></div> 
                </div>","null","","","","","","","","","","","","",""
"","","","","","html-button-response","20","79873","0.0-20.0","5A5BF28B8EFE47D9AF7F4ED88DE6290B","019d6663-99bf-74bb-ab87-70561dec4260","019d6630-2071-75cb-8026-6699844a2719","","743","
                <div class=""stimulus-container"">
                    <img src=""images/semantic_sequence/physical_activity_semantic/physical_activity_semantic_2.png"" class=""exp-image"">
                    <div class=""question-area"">
                        <p style=""font-size: 20px; font-weight: bold; margin: 0;"">Is there a person in this image?</p>
                    </div>
                </div>","0","main_experiment_trial","2","physical_activity_semantic","semantic_sequence","chronological","","","","","","","",""
"","","","","","html-keyboard-response","21","84880","0.0-21.0","5A5BF28B8EFE47D9AF7F4ED88DE6290B","019d6663-99bf-74bb-ab87-70561dec4260","019d6630-2071-75cb-8026-6699844a2719","","null","
                <div class=""stimulus-container"">
                    <img src=""images/semantic_sequence/physical_activity_semantic/physical_activity_semantic_3.png"" class=""exp-image"">
                    <div class=""question-area""></div> 
                </div>","null","","","","","","","","","","","","",""
"","","","","","html-button-response","22","85929","0.0-22.0","5A5BF28B8EFE47D9AF7F4ED88DE6290B","019d6663-99bf-74bb-ab87-70561dec4260","019d6630-2071-75cb-8026-6699844a2719","","1045","
                <div class=""stimulus-container"">
                    <img src=""images/semantic_sequence/physical_activity_semantic/physical_activity_semantic_3.png"" class=""exp-image"">
                    <div class=""question-area"">
                        <p style=""font-size: 20px; font-weight: bold; margin: 0;"">Is there a person in this image?</p>
                    </div>
                </div>","0","main_experiment_trial","3","physical_activity_semantic","semantic_sequence","chronological","","","","","","","",""
"","","","","","html-keyboard-response","23","90939","0.0-23.0","5A5BF28B8EFE47D9AF7F4ED88DE6290B","019d6663-99bf-74bb-ab87-70561dec4260","019d6630-2071-75cb-8026-6699844a2719","","null","
                <div class=""stimulus-container"">
                    <img src=""images/semantic_sequence/physical_activity_semantic/physical_activity_semantic_4.png"" class=""exp-image"">
                    <div class=""question-area""></div> 
                </div>","null","","","","","","","","","","","","",""
"","","","","","html-button-response","24","92232","0.0-24.0","5A5BF28B8EFE47D9AF7F4ED88DE6290B","019d6663-99bf-74bb-ab87-70561dec4260","019d6630-2071-75cb-8026-6699844a2719","","1287","
                <div class=""stimulus-container"">
                    <img src=""images/semantic_sequence/physical_activity_semantic/physical_activity_semantic_4.png"" class=""exp-image"">
                    <div class=""question-area"">
                        <p style=""font-size: 20px; font-weight: bold; margin: 0;"">Is there a person in this image?</p>
                    </div>
                </div>","0","main_experiment_trial","4","physical_activity_semantic","semantic_sequence","chronological","","","","","","","",""
"","","","","","html-keyboard-response","25","97239","0.0-25.0","5A5BF28B8EFE47D9AF7F4ED88DE6290B","019d6663-99bf-74bb-ab87-70561dec4260","019d6630-2071-75cb-8026-6699844a2719","","null","
                <div class=""stimulus-container"">
                    <img src=""images/semantic_sequence/physical_activity_semantic/physical_activity_semantic_5.png"" class=""exp-image"">
                    <div class=""question-area""></div> 
                </div>","null","","","","","","","","","","","","",""
"","","","","","html-button-response","26","98042","0.0-26.0","5A5BF28B8EFE47D9AF7F4ED88DE6290B","019d6663-99bf-74bb-ab87-70561dec4260","019d6630-2071-75cb-8026-6699844a2719","","801","
                <div class=""stimulus-container"">
                    <img src=""images/semantic_sequence/physical_activity_semantic/physical_activity_semantic_5.png"" class=""exp-image"">
                    <div class=""question-area"">
                        <p style=""font-size: 20px; font-weight: bold; margin: 0;"">Is there a person in this image?</p>
                    </div>
                </div>","0","main_experiment_trial","5","physical_activity_semantic","semantic_sequence","chronological","","","","","","","",""
"","","","","","html-keyboard-response","27","103052","0.0-27.0","5A5BF28B8EFE47D9AF7F4ED88DE6290B","019d6663-99bf-74bb-ab87-70561dec4260","019d6630-2071-75cb-8026-6699844a2719","","null","
                <div class=""stimulus-container"">
                    <img src=""images/semantic_sequence/physical_activity_semantic/physical_activity_semantic_6.png"" class=""exp-image"">
                    <div class=""question-area""></div> 
                </div>","null","","","","","","","","","","","","",""
"","","","","","html-button-response","28","103972","0.0-28.0","5A5BF28B8EFE47D9AF7F4ED88DE6290B","019d6663-99bf-74bb-ab87-70561dec4260","019d6630-2071-75cb-8026-6699844a2719","","915","
                <div class=""stimulus-container"">
                    <img src=""images/semantic_sequence/physical_activity_semantic/physical_activity_semantic_6.png"" class=""exp-image"">
                    <div class=""question-area"">
                        <p style=""font-size: 20px; font-weight: bold; margin: 0;"">Is there a person in this image?</p>
                    </div>
                </div>","0","main_experiment_trial","6","physical_activity_semantic","semantic_sequence","chronological","","","","","","","",""
"","","","","","html-keyboard-response","29","108985","0.0-29.0","5A5BF28B8EFE47D9AF7F4ED88DE6290B","019d6663-99bf-74bb-ab87-70561dec4260","019d6630-2071-75cb-8026-6699844a2719","","null","
                <div class=""stimulus-container"">
                    <img src=""images/semantic_sequence/physical_activity_semantic/physical_activity_semantic_7.png"" class=""exp-image"">
                    <div class=""question-area""></div> 
                </div>","null","","","","","","","","","","","","",""
"","","","","","html-button-response","30","109629","0.0-30.0","5A5BF28B8EFE47D9AF7F4ED88DE6290B","019d6663-99bf-74bb-ab87-70561dec4260","019d6630-2071-75cb-8026-6699844a2719","","640","
                <div class=""stimulus-container"">
                    <img src=""images/semantic_sequence/physical_activity_semantic/physical_activity_semantic_7.png"" class=""exp-image"">
                    <div class=""question-area"">
                        <p style=""font-size: 20px; font-weight: bold; margin: 0;"">Is there a person in this image?</p>
                    </div>
                </div>","0","main_experiment_trial","7","physical_activity_semantic","semantic_sequence","chronological","","","","","","","",""
"","","","","","html-keyboard-response","31","114636","0.0-31.0","5A5BF28B8EFE47D9AF7F4ED88DE6290B","019d6663-99bf-74bb-ab87-70561dec4260","019d6630-2071-75cb-8026-6699844a2719","","null","
                <div class=""stimulus-container"">
                    <img src=""images/semantic_sequence/physical_activity_semantic/physical_activity_semantic_8.png"" class=""exp-image"">
                    <div class=""question-area""></div> 
                </div>","null","","","","","","","","","","","","",""
"","","","","","html-button-response","32","115581","0.0-32.0","5A5BF28B8EFE47D9AF7F4ED88DE6290B","019d6663-99bf-74bb-ab87-70561dec4260","019d6630-2071-75cb-8026-6699844a2719","","942","
                <div class=""stimulus-container"">
                    <img src=""images/semantic_sequence/physical_activity_semantic/physical_activity_semantic_8.png"" class=""exp-image"">
                    <div class=""question-area"">
                        <p style=""font-size: 20px; font-weight: bold; margin: 0;"">Is there a person in this image?</p>
                    </div>
                </div>","0","main_experiment_trial","8","physical_activity_semantic","semantic_sequence","chronological","","","","","","","",""
"","","","","","html-keyboard-response","33","120598","0.0-33.0","5A5BF28B8EFE47D9AF7F4ED88DE6290B","019d6663-99bf-74bb-ab87-70561dec4260","019d6630-2071-75cb-8026-6699844a2719","","null","
                <div class=""stimulus-container"">
                    <img src=""images/semantic_sequence/physical_activity_semantic/physical_activity_semantic_9.png"" class=""exp-image"">
                    <div class=""question-area""></div> 
                </div>","null","","","","","","","","","","","","",""
"","","","","","html-button-response","34","121540","0.0-34.0","5A5BF28B8EFE47D9AF7F4ED88DE6290B","019d6663-99bf-74bb-ab87-70561dec4260","019d6630-2071-75cb-8026-6699844a2719","","938","
                <div class=""stimulus-container"">
                    <img src=""images/semantic_sequence/physical_activity_semantic/physical_activity_semantic_9.png"" class=""exp-image"">
                    <div class=""question-area"">
                        <p style=""font-size: 20px; font-weight: bold; margin: 0;"">Is there a person in this image?</p>
                    </div>
                </div>","0","main_experiment_trial","9","physical_activity_semantic","semantic_sequence","chronological","","","","","","","",""
"","","","","","html-keyboard-response","35","126551","0.0-35.0","5A5BF28B8EFE47D9AF7F4ED88DE6290B","019d6663-99bf-74bb-ab87-70561dec4260","019d6630-2071-75cb-8026-6699844a2719","","null","
                <div class=""stimulus-container"">
                    <img src=""images/semantic_sequence/physical_activity_semantic/physical_activity_semantic_ten.png"" class=""exp-image"">
                    <div class=""question-area""></div> 
                </div>","null","","","","","","","","","","","","",""
"","","","","","html-button-response","36","127405","0.0-36.0","5A5BF28B8EFE47D9AF7F4ED88DE6290B","019d6663-99bf-74bb-ab87-70561dec4260","019d6630-2071-75cb-8026-6699844a2719","","851","
                <div class=""stimulus-container"">
                    <img src=""images/semantic_sequence/physical_activity_semantic/physical_activity_semantic_ten.png"" class=""exp-image"">
                    <div class=""question-area"">
                        <p style=""font-size: 20px; font-weight: bold; margin: 0;"">Is there a person in this image?</p>
                    </div>
                </div>","0","main_experiment_trial","ten","physical_activity_semantic","semantic_sequence","chronological","","","","","","","",""
"","","","","","html-keyboard-response","37","132422","0.0-37.0","5A5BF28B8EFE47D9AF7F4ED88DE6290B","019d6663-99bf-74bb-ab87-70561dec4260","019d6630-2071-75cb-8026-6699844a2719","","null","<div style=""background-color: white; width: 100vw; height: 100vh;""></div>","null","","","","","","","","","","","","",""
"","","","","","html-keyboard-response","38","137429","0.0-38.0","5A5BF28B8EFE47D9AF7F4ED88DE6290B","019d6663-99bf-74bb-ab87-70561dec4260","019d6630-2071-75cb-8026-6699844a2719","","null","
                <div class=""stimulus-container"">
                    <img src=""images/schematic_sequence/dinner_party_scheme/dinner_party_scheme_1.png"" class=""exp-image"">
                    <div class=""question-area""></div> 
                </div>","null","","","","","","","","","","","","",""
"","","","","","html-button-response","39","138956","0.0-39.0","5A5BF28B8EFE47D9AF7F4ED88DE6290B","019d6663-99bf-74bb-ab87-70561dec4260","019d6630-2071-75cb-8026-6699844a2719","","1524","
                <div class=""stimulus-container"">
                    <img src=""images/schematic_sequence/dinner_party_scheme/dinner_party_scheme_1.png"" class=""exp-image"">
                    <div class=""question-area"">
                        <p style=""font-size: 20px; font-weight: bold; margin: 0;"">Is there a person in this image?</p>
                    </div>
                </div>","0","main_experiment_trial","1","dinner_party_scheme","schematic_sequence","chronological","","","","","","","",""
"","","","","","html-keyboard-response","40","143962","0.0-40.0","5A5BF28B8EFE47D9AF7F4ED88DE6290B","019d6663-99bf-74bb-ab87-70561dec4260","019d6630-2071-75cb-8026-6699844a2719","","null","
                <div class=""stimulus-container"">
                    <img src=""images/schematic_sequence/dinner_party_scheme/dinner_party_scheme_2.png"" class=""exp-image"">
                    <div class=""question-area""></div> 
                </div>","null","","","","","","","","","","","","",""
"","","","","","html-button-response","41","146098","0.0-41.0","5A5BF28B8EFE47D9AF7F4ED88DE6290B","019d6663-99bf-74bb-ab87-70561dec4260","019d6630-2071-75cb-8026-6699844a2719","","2133","
                <div class=""stimulus-container"">
                    <img src=""images/schematic_sequence/dinner_party_scheme/dinner_party_scheme_2.png"" class=""exp-image"">
                    <div class=""question-area"">
                        <p style=""font-size: 20px; font-weight: bold; margin: 0;"">Is there a person in this image?</p>
                    </div>
                </div>","0","main_experiment_trial","2","dinner_party_scheme","schematic_sequence","chronological","","","","","","","",""
"","","","","","html-keyboard-response","42","151100","0.0-42.0","5A5BF28B8EFE47D9AF7F4ED88DE6290B","019d6663-99bf-74bb-ab87-70561dec4260","019d6630-2071-75cb-8026-6699844a2719","","null","
                <div class=""stimulus-container"">
                    <img src=""images/schematic_sequence/dinner_party_scheme/dinner_party_scheme_3.png"" class=""exp-image"">
                    <div class=""question-area""></div> 
                </div>","null","","","","","","","","","","","","",""
"","","","","","html-button-response","43","152500","0.0-43.0","5A5BF28B8EFE47D9AF7F4ED88DE6290B","019d6663-99bf-74bb-ab87-70561dec4260","019d6630-2071-75cb-8026-6699844a2719","","1396","
                <div class=""stimulus-container"">
                    <img src=""images/schematic_sequence/dinner_party_scheme/dinner_party_scheme_3.png"" class=""exp-image"">
                    <div class=""question-area"">
                        <p style=""font-size: 20px; font-weight: bold; margin: 0;"">Is there a person in this image?</p>
                    </div>
                </div>","0","main_experiment_trial","3","dinner_party_scheme","schematic_sequence","chronological","","","","","","","",""
"","","","","","html-keyboard-response","44","157519","0.0-44.0","5A5BF28B8EFE47D9AF7F4ED88DE6290B","019d6663-99bf-74bb-ab87-70561dec4260","019d6630-2071-75cb-8026-6699844a2719","","null","
                <div class=""stimulus-container"">
                    <img src=""images/schematic_sequence/dinner_party_scheme/dinner_party_scheme_4.png"" class=""exp-image"">
                    <div class=""question-area""></div> 
                </div>","null","","","","","","","","","","","","",""
"","","","","","html-button-response","45","158114","0.0-45.0","5A5BF28B8EFE47D9AF7F4ED88DE6290B","019d6663-99bf-74bb-ab87-70561dec4260","019d6630-2071-75cb-8026-6699844a2719","","593","
                <div class=""stimulus-container"">
                    <img src=""images/schematic_sequence/dinner_party_scheme/dinner_party_scheme_4.png"" class=""exp-image"">
                    <div class=""question-area"">
                        <p style=""font-size: 20px; font-weight: bold; margin: 0;"">Is there a person in this image?</p>
                    </div>
                </div>","0","main_experiment_trial","4","dinner_party_scheme","schematic_sequence","chronological","","","","","","","",""
"","","","","","html-keyboard-response","46","163123","0.0-46.0","5A5BF28B8EFE47D9AF7F4ED88DE6290B","019d6663-99bf-74bb-ab87-70561dec4260","019d6630-2071-75cb-8026-6699844a2719","","null","
                <div class=""stimulus-container"">
                    <img src=""images/schematic_sequence/dinner_party_scheme/dinner_party_scheme_5.png"" class=""exp-image"">
                    <div class=""question-area""></div> 
                </div>","null","","","","","","","","","","","","",""
"","","","","","html-button-response","47","164409","0.0-47.0","5A5BF28B8EFE47D9AF7F4ED88DE6290B","019d6663-99bf-74bb-ab87-70561dec4260","019d6630-2071-75cb-8026-6699844a2719","","1283","
                <div class=""stimulus-container"">
                    <img src=""images/schematic_sequence/dinner_party_scheme/dinner_party_scheme_5.png"" class=""exp-image"">
                    <div class=""question-area"">
                        <p style=""font-size: 20px; font-weight: bold; margin: 0;"">Is there a person in this image?</p>
                    </div>
                </div>","0","main_experiment_trial","5","dinner_party_scheme","schematic_sequence","chronological","","","","","","","",""
"","","","","","html-keyboard-response","48","169417","0.0-48.0","5A5BF28B8EFE47D9AF7F4ED88DE6290B","019d6663-99bf-74bb-ab87-70561dec4260","019d6630-2071-75cb-8026-6699844a2719","","null","
                <div class=""stimulus-container"">
                    <img src=""images/schematic_sequence/dinner_party_scheme/dinner_party_scheme_6.png"" class=""exp-image"">
                    <div class=""question-area""></div> 
                </div>","null","","","","","","","","","","","","",""
"","","","","","html-button-response","49","170150","0.0-49.0","5A5BF28B8EFE47D9AF7F4ED88DE6290B","019d6663-99bf-74bb-ab87-70561dec4260","019d6630-2071-75cb-8026-6699844a2719","","727","
                <div class=""stimulus-container"">
                    <img src=""images/schematic_sequence/dinner_party_scheme/dinner_party_scheme_6.png"" class=""exp-image"">
                    <div class=""question-area"">
                        <p style=""font-size: 20px; font-weight: bold; margin: 0;"">Is there a person in this image?</p>
                    </div>
                </div>","0","main_experiment_trial","6","dinner_party_scheme","schematic_sequence","chronological","","","","","","","",""
"","","","","","html-keyboard-response","50","175168","0.0-50.0","5A5BF28B8EFE47D9AF7F4ED88DE6290B","019d6663-99bf-74bb-ab87-70561dec4260","019d6630-2071-75cb-8026-6699844a2719","","null","
                <div class=""stimulus-container"">
                    <img src=""images/schematic_sequence/dinner_party_scheme/dinner_party_scheme_7.png"" class=""exp-image"">
                    <div class=""question-area""></div> 
                </div>","null","","","","","","","","","","","","",""
"","","","","","html-button-response","51","175799","0.0-51.0","5A5BF28B8EFE47D9AF7F4ED88DE6290B","019d6663-99bf-74bb-ab87-70561dec4260","019d6630-2071-75cb-8026-6699844a2719","","628","
                <div class=""stimulus-container"">
                    <img src=""images/schematic_sequence/dinner_party_scheme/dinner_party_scheme_7.png"" class=""exp-image"">
                    <div class=""question-area"">
                        <p style=""font-size: 20px; font-weight: bold; margin: 0;"">Is there a person in this image?</p>
                    </div>
                </div>","0","main_experiment_trial","7","dinner_party_scheme","schematic_sequence","chronological","","","","","","","",""
"","","","","","html-keyboard-response","52","180816","0.0-52.0","5A5BF28B8EFE47D9AF7F4ED88DE6290B","019d6663-99bf-74bb-ab87-70561dec4260","019d6630-2071-75cb-8026-6699844a2719","","null","
                <div class=""stimulus-container"">
                    <img src=""images/schematic_sequence/dinner_party_scheme/dinner_party_scheme_8.png"" class=""exp-image"">
                    <div class=""question-area""></div> 
                </div>","null","","","","","","","","","","","","",""
"","","","","","html-button-response","53","181426","0.0-53.0","5A5BF28B8EFE47D9AF7F4ED88DE6290B","019d6663-99bf-74bb-ab87-70561dec4260","019d6630-2071-75cb-8026-6699844a2719","","606","
                <div class=""stimulus-container"">
                    <img src=""images/schematic_sequence/dinner_party_scheme/dinner_party_scheme_8.png"" class=""exp-image"">
                    <div class=""question-area"">
                        <p style=""font-size: 20px; font-weight: bold; margin: 0;"">Is there a person in this image?</p>
                    </div>
                </div>","0","main_experiment_trial","8","dinner_party_scheme","schematic_sequence","chronological","","","","","","","",""
"","","","","","html-keyboard-response","54","186432","0.0-54.0","5A5BF28B8EFE47D9AF7F4ED88DE6290B","019d6663-99bf-74bb-ab87-70561dec4260","019d6630-2071-75cb-8026-6699844a2719","","null","
                <div class=""stimulus-container"">
                    <img src=""images/schematic_sequence/dinner_party_scheme/dinner_party_scheme_9.png"" class=""exp-image"">
                    <div class=""question-area""></div> 
                </div>","null","","","","","","","","","","","","",""
"","","","","","html-button-response","55","187179","0.0-55.0","5A5BF28B8EFE47D9AF7F4ED88DE6290B","019d6663-99bf-74bb-ab87-70561dec4260","019d6630-2071-75cb-8026-6699844a2719","","743","
                <div class=""stimulus-container"">
                    <img src=""images/schematic_sequence/dinner_party_scheme/dinner_party_scheme_9.png"" class=""exp-image"">
                    <div class=""question-area"">
                        <p style=""font-size: 20px; font-weight: bold; margin: 0;"">Is there a person in this image?</p>
                    </div>
                </div>","0","main_experiment_trial","9","dinner_party_scheme","schematic_sequence","chronological","","","","","","","",""
"","","","","","html-keyboard-response","56","192186","0.0-56.0","5A5BF28B8EFE47D9AF7F4ED88DE6290B","019d6663-99bf-74bb-ab87-70561dec4260","019d6630-2071-75cb-8026-6699844a2719","","null","
                <div class=""stimulus-container"">
                    <img src=""images/schematic_sequence/dinner_party_scheme/dinner_party_scheme_ten.png"" class=""exp-image"">
                    <div class=""question-area""></div> 
                </div>","null","","","","","","","","","","","","",""
"","","","","","html-button-response","57","193505","0.0-57.0","5A5BF28B8EFE47D9AF7F4ED88DE6290B","019d6663-99bf-74bb-ab87-70561dec4260","019d6630-2071-75cb-8026-6699844a2719","","1316","
                <div class=""stimulus-container"">
                    <img src=""images/schematic_sequence/dinner_party_scheme/dinner_party_scheme_ten.png"" class=""exp-image"">
                    <div class=""question-area"">
                        <p style=""font-size: 20px; font-weight: bold; margin: 0;"">Is there a person in this image?</p>
                    </div>
                </div>","0","main_experiment_trial","ten","dinner_party_scheme","schematic_sequence","chronological","","","","","","","",""
"","","","","","html-keyboard-response","58","198509","0.0-58.0","5A5BF28B8EFE47D9AF7F4ED88DE6290B","019d6663-99bf-74bb-ab87-70561dec4260","019d6630-2071-75cb-8026-6699844a2719","","null","<div style=""background-color: white; width: 100vw; height: 100vh;""></div>","null","","","","","","","","","","","","",""
"","","","","","html-keyboard-response","59","203514","0.0-59.0","5A5BF28B8EFE47D9AF7F4ED88DE6290B","019d6663-99bf-74bb-ab87-70561dec4260","019d6630-2071-75cb-8026-6699844a2719","","null","
                <div class=""stimulus-container"">
                    <img src=""images/schematic_sequence/restaurant_scheme/restaurant_scheme_1.png"" class=""exp-image"">
                    <div class=""question-area""></div> 
                </div>","null","","","","","","","","","","","","",""
"","","","","","html-button-response","60","204256","0.0-60.0","5A5BF28B8EFE47D9AF7F4ED88DE6290B","019d6663-99bf-74bb-ab87-70561dec4260","019d6630-2071-75cb-8026-6699844a2719","","739","
                <div class=""stimulus-container"">
                    <img src=""images/schematic_sequence/restaurant_scheme/restaurant_scheme_1.png"" class=""exp-image"">
                    <div class=""question-area"">
                        <p style=""font-size: 20px; font-weight: bold; margin: 0;"">Is there a person in this image?</p>
                    </div>
                </div>","0","main_experiment_trial","1","restaurant_scheme","schematic_sequence","chronological","","","","","","","",""
"","","","","","html-keyboard-response","61","209272","0.0-61.0","5A5BF28B8EFE47D9AF7F4ED88DE6290B","019d6663-99bf-74bb-ab87-70561dec4260","019d6630-2071-75cb-8026-6699844a2719","","null","
                <div class=""stimulus-container"">
                    <img src=""images/schematic_sequence/restaurant_scheme/restaurant_scheme_2.png"" class=""exp-image"">
                    <div class=""question-area""></div> 
                </div>","null","","","","","","","","","","","","",""
"","","","","","html-button-response","62","209931","0.0-62.0","5A5BF28B8EFE47D9AF7F4ED88DE6290B","019d6663-99bf-74bb-ab87-70561dec4260","019d6630-2071-75cb-8026-6699844a2719","","656","
                <div class=""stimulus-container"">
                    <img src=""images/schematic_sequence/restaurant_scheme/restaurant_scheme_2.png"" class=""exp-image"">
                    <div class=""question-area"">
                        <p style=""font-size: 20px; font-weight: bold; margin: 0;"">Is there a person in this image?</p>
                    </div>
                </div>","1","main_experiment_trial","2","restaurant_scheme","schematic_sequence","chronological","","","","","","","",""
"","","","","","html-keyboard-response","63","214942","0.0-63.0","5A5BF28B8EFE47D9AF7F4ED88DE6290B","019d6663-99bf-74bb-ab87-70561dec4260","019d6630-2071-75cb-8026-6699844a2719","","null","
                <div class=""stimulus-container"">
                    <img src=""images/schematic_sequence/restaurant_scheme/restaurant_scheme_3.png"" class=""exp-image"">
                    <div class=""question-area""></div> 
                </div>","null","","","","","","","","","","","","",""
"","","","","","html-button-response","64","216090","0.0-64.0","5A5BF28B8EFE47D9AF7F4ED88DE6290B","019d6663-99bf-74bb-ab87-70561dec4260","019d6630-2071-75cb-8026-6699844a2719","","1143","
                <div class=""stimulus-container"">
                    <img src=""images/schematic_sequence/restaurant_scheme/restaurant_scheme_3.png"" class=""exp-image"">
                    <div class=""question-area"">
                        <p style=""font-size: 20px; font-weight: bold; margin: 0;"">Is there a person in this image?</p>
                    </div>
                </div>","1","main_experiment_trial","3","restaurant_scheme","schematic_sequence","chronological","","","","","","","",""
"","","","","","html-keyboard-response","65","221099","0.0-65.0","5A5BF28B8EFE47D9AF7F4ED88DE6290B","019d6663-99bf-74bb-ab87-70561dec4260","019d6630-2071-75cb-8026-6699844a2719","","null","
                <div class=""stimulus-container"">
                    <img src=""images/schematic_sequence/restaurant_scheme/restaurant_scheme_4.png"" class=""exp-image"">
                    <div class=""question-area""></div> 
                </div>","null","","","","","","","","","","","","",""
"","","","","","html-button-response","66","221725","0.0-66.0","5A5BF28B8EFE47D9AF7F4ED88DE6290B","019d6663-99bf-74bb-ab87-70561dec4260","019d6630-2071-75cb-8026-6699844a2719","","622","
                <div class=""stimulus-container"">
                    <img src=""images/schematic_sequence/restaurant_scheme/restaurant_scheme_4.png"" class=""exp-image"">
                    <div class=""question-area"">
                        <p style=""font-size: 20px; font-weight: bold; margin: 0;"">Is there a person in this image?</p>
                    </div>
                </div>","0","main_experiment_trial","4","restaurant_scheme","schematic_sequence","chronological","","","","","","","",""
"","","","","","html-keyboard-response","67","226743","0.0-67.0","5A5BF28B8EFE47D9AF7F4ED88DE6290B","019d6663-99bf-74bb-ab87-70561dec4260","019d6630-2071-75cb-8026-6699844a2719","","null","
                <div class=""stimulus-container"">
                    <img src=""images/schematic_sequence/restaurant_scheme/restaurant_scheme_5.png"" class=""exp-image"">
                    <div class=""question-area""></div> 
                </div>","null","","","","","","","","","","","","",""
"","","","","","html-button-response","68","227519","0.0-68.0","5A5BF28B8EFE47D9AF7F4ED88DE6290B","019d6663-99bf-74bb-ab87-70561dec4260","019d6630-2071-75cb-8026-6699844a2719","","774","
                <div class=""stimulus-container"">
                    <img src=""images/schematic_sequence/restaurant_scheme/restaurant_scheme_5.png"" class=""exp-image"">
                    <div class=""question-area"">
                        <p style=""font-size: 20px; font-weight: bold; margin: 0;"">Is there a person in this image?</p>
                    </div>
                </div>","0","main_experiment_trial","5","restaurant_scheme","schematic_sequence","chronological","","","","","","","",""
"","","","","","html-keyboard-response","69","232532","0.0-69.0","5A5BF28B8EFE47D9AF7F4ED88DE6290B","019d6663-99bf-74bb-ab87-70561dec4260","019d6630-2071-75cb-8026-6699844a2719","","null","
                <div class=""stimulus-container"">
                    <img src=""images/schematic_sequence/restaurant_scheme/restaurant_scheme_6.png"" class=""exp-image"">
                    <div class=""question-area""></div> 
                </div>","null","","","","","","","","","","","","",""
"","","","","","html-button-response","70","233921","0.0-70.0","5A5BF28B8EFE47D9AF7F4ED88DE6290B","019d6663-99bf-74bb-ab87-70561dec4260","019d6630-2071-75cb-8026-6699844a2719","","1386","
                <div class=""stimulus-container"">
                    <img src=""images/schematic_sequence/restaurant_scheme/restaurant_scheme_6.png"" class=""exp-image"">
                    <div class=""question-area"">
                        <p style=""font-size: 20px; font-weight: bold; margin: 0;"">Is there a person in this image?</p>
                    </div>
                </div>","1","main_experiment_trial","6","restaurant_scheme","schematic_sequence","chronological","","","","","","","",""
"","","","","","html-keyboard-response","71","238924","0.0-71.0","5A5BF28B8EFE47D9AF7F4ED88DE6290B","019d6663-99bf-74bb-ab87-70561dec4260","019d6630-2071-75cb-8026-6699844a2719","","null","
                <div class=""stimulus-container"">
                    <img src=""images/schematic_sequence/restaurant_scheme/restaurant_scheme_7.png"" class=""exp-image"">
                    <div class=""question-area""></div> 
                </div>","null","","","","","","","","","","","","",""
"","","","","","html-button-response","72","240835","0.0-72.0","5A5BF28B8EFE47D9AF7F4ED88DE6290B","019d6663-99bf-74bb-ab87-70561dec4260","019d6630-2071-75cb-8026-6699844a2719","","1908","
                <div class=""stimulus-container"">
                    <img src=""images/schematic_sequence/restaurant_scheme/restaurant_scheme_7.png"" class=""exp-image"">
                    <div class=""question-area"">
                        <p style=""font-size: 20px; font-weight: bold; margin: 0;"">Is there a person in this image?</p>
                    </div>
                </div>","1","main_experiment_trial","7","restaurant_scheme","schematic_sequence","chronological","","","","","","","",""
"","","","","","html-keyboard-response","73","245842","0.0-73.0","5A5BF28B8EFE47D9AF7F4ED88DE6290B","019d6663-99bf-74bb-ab87-70561dec4260","019d6630-2071-75cb-8026-6699844a2719","","null","
                <div class=""stimulus-container"">
                    <img src=""images/schematic_sequence/restaurant_scheme/restaurant_scheme_8.png"" class=""exp-image"">
                    <div class=""question-area""></div> 
                </div>","null","","","","","","","","","","","","",""
"","","","","","html-button-response","74","247198","0.0-74.0","5A5BF28B8EFE47D9AF7F4ED88DE6290B","019d6663-99bf-74bb-ab87-70561dec4260","019d6630-2071-75cb-8026-6699844a2719","","1348","
                <div class=""stimulus-container"">
                    <img src=""images/schematic_sequence/restaurant_scheme/restaurant_scheme_8.png"" class=""exp-image"">
                    <div class=""question-area"">
                        <p style=""font-size: 20px; font-weight: bold; margin: 0;"">Is there a person in this image?</p>
                    </div>
                </div>","0","main_experiment_trial","8","restaurant_scheme","schematic_sequence","chronological","","","","","","","",""
"","","","","","html-keyboard-response","75","252205","0.0-75.0","5A5BF28B8EFE47D9AF7F4ED88DE6290B","019d6663-99bf-74bb-ab87-70561dec4260","019d6630-2071-75cb-8026-6699844a2719","","null","
                <div class=""stimulus-container"">
                    <img src=""images/schematic_sequence/restaurant_scheme/restaurant_scheme_9.png"" class=""exp-image"">
                    <div class=""question-area""></div> 
                </div>","null","","","","","","","","","","","","",""
"","","","","","html-button-response","76","253845","0.0-76.0","5A5BF28B8EFE47D9AF7F4ED88DE6290B","019d6663-99bf-74bb-ab87-70561dec4260","019d6630-2071-75cb-8026-6699844a2719","","1636","
                <div class=""stimulus-container"">
                    <img src=""images/schematic_sequence/restaurant_scheme/restaurant_scheme_9.png"" class=""exp-image"">
                    <div class=""question-area"">
                        <p style=""font-size: 20px; font-weight: bold; margin: 0;"">Is there a person in this image?</p>
                    </div>
                </div>","0","main_experiment_trial","9","restaurant_scheme","schematic_sequence","chronological","","","","","","","",""
"","","","","","html-keyboard-response","77","258856","0.0-77.0","5A5BF28B8EFE47D9AF7F4ED88DE6290B","019d6663-99bf-74bb-ab87-70561dec4260","019d6630-2071-75cb-8026-6699844a2719","","null","
                <div class=""stimulus-container"">
                    <img src=""images/schematic_sequence/restaurant_scheme/restaurant_scheme_ten.png"" class=""exp-image"">
                    <div class=""question-area""></div> 
                </div>","null","","","","","","","","","","","","",""
"","","","","","html-button-response","78","260495","0.0-78.0","5A5BF28B8EFE47D9AF7F4ED88DE6290B","019d6663-99bf-74bb-ab87-70561dec4260","019d6630-2071-75cb-8026-6699844a2719","","1636","
                <div class=""stimulus-container"">
                    <img src=""images/schematic_sequence/restaurant_scheme/restaurant_scheme_ten.png"" class=""exp-image"">
                    <div class=""question-area"">
                        <p style=""font-size: 20px; font-weight: bold; margin: 0;"">Is there a person in this image?</p>
                    </div>
                </div>","0","main_experiment_trial","ten","restaurant_scheme","schematic_sequence","chronological","","","","","","","",""
"","","","","","html-keyboard-response","79","265503","0.0-79.0","5A5BF28B8EFE47D9AF7F4ED88DE6290B","019d6663-99bf-74bb-ab87-70561dec4260","019d6630-2071-75cb-8026-6699844a2719","","null","<div style=""background-color: white; width: 100vw; height: 100vh;""></div>","null","","","","","","","","","","","","",""
"","","","","","html-keyboard-response","80","270514","0.0-80.0","5A5BF28B8EFE47D9AF7F4ED88DE6290B","019d6663-99bf-74bb-ab87-70561dec4260","019d6630-2071-75cb-8026-6699844a2719","","null","
                <div class=""stimulus-container"">
                    <img src=""images/semantic_sequence/housework_semantic/housework_semantic_1.png"" class=""exp-image"">
                    <div class=""question-area""></div> 
                </div>","null","","","","","","","","","","","","",""
"","","","","","html-button-response","81","271918","0.0-81.0","5A5BF28B8EFE47D9AF7F4ED88DE6290B","019d6663-99bf-74bb-ab87-70561dec4260","019d6630-2071-75cb-8026-6699844a2719","","1400","
                <div class=""stimulus-container"">
                    <img src=""images/semantic_sequence/housework_semantic/housework_semantic_1.png"" class=""exp-image"">
                    <div class=""question-area"">
                        <p style=""font-size: 20px; font-weight: bold; margin: 0;"">Is there a person in this image?</p>
                    </div>
                </div>","0","main_experiment_trial","1","housework_semantic","semantic_sequence","chronological","","","","","","","",""
"","","","","","html-keyboard-response","82","276932","0.0-82.0","5A5BF28B8EFE47D9AF7F4ED88DE6290B","019d6663-99bf-74bb-ab87-70561dec4260","019d6630-2071-75cb-8026-6699844a2719","","null","
                <div class=""stimulus-container"">
                    <img src=""images/semantic_sequence/housework_semantic/housework_semantic_2.png"" class=""exp-image"">
                    <div class=""question-area""></div> 
                </div>","null","","","","","","","","","","","","",""
"","","","","","html-button-response","83","278492","0.0-83.0","5A5BF28B8EFE47D9AF7F4ED88DE6290B","019d6663-99bf-74bb-ab87-70561dec4260","019d6630-2071-75cb-8026-6699844a2719","","1556","
                <div class=""stimulus-container"">
                    <img src=""images/semantic_sequence/housework_semantic/housework_semantic_2.png"" class=""exp-image"">
                    <div class=""question-area"">
                        <p style=""font-size: 20px; font-weight: bold; margin: 0;"">Is there a person in this image?</p>
                    </div>
                </div>","0","main_experiment_trial","2","housework_semantic","semantic_sequence","chronological","","","","","","","",""
"","","","","","html-keyboard-response","84","283509","0.0-84.0","5A5BF28B8EFE47D9AF7F4ED88DE6290B","019d6663-99bf-74bb-ab87-70561dec4260","019d6630-2071-75cb-8026-6699844a2719","","null","
                <div class=""stimulus-container"">
                    <img src=""images/semantic_sequence/housework_semantic/housework_semantic_3.png"" class=""exp-image"">
                    <div class=""question-area""></div> 
                </div>","null","","","","","","","","","","","","",""
"","","","","","html-button-response","85","284864","0.0-85.0","5A5BF28B8EFE47D9AF7F4ED88DE6290B","019d6663-99bf-74bb-ab87-70561dec4260","019d6630-2071-75cb-8026-6699844a2719","","1350","
                <div class=""stimulus-container"">
                    <img src=""images/semantic_sequence/housework_semantic/housework_semantic_3.png"" class=""exp-image"">
                    <div class=""question-area"">
                        <p style=""font-size: 20px; font-weight: bold; margin: 0;"">Is there a person in this image?</p>
                    </div>
                </div>","0","main_experiment_trial","3","housework_semantic","semantic_sequence","chronological","","","","","","","",""
"","","","","","html-keyboard-response","86","289875","0.0-86.0","5A5BF28B8EFE47D9AF7F4ED88DE6290B","019d6663-99bf-74bb-ab87-70561dec4260","019d6630-2071-75cb-8026-6699844a2719","","null","
                <div class=""stimulus-container"">
                    <img src=""images/semantic_sequence/housework_semantic/housework_semantic_4.png"" class=""exp-image"">
                    <div class=""question-area""></div> 
                </div>","null","","","","","","","","","","","","",""
"","","","","","html-button-response","87","291541","0.0-87.0","5A5BF28B8EFE47D9AF7F4ED88DE6290B","019d6663-99bf-74bb-ab87-70561dec4260","019d6630-2071-75cb-8026-6699844a2719","","1662","
                <div class=""stimulus-container"">
                    <img src=""images/semantic_sequence/housework_semantic/housework_semantic_4.png"" class=""exp-image"">
                    <div class=""question-area"">
                        <p style=""font-size: 20px; font-weight: bold; margin: 0;"">Is there a person in this image?</p>
                    </div>
                </div>","0","main_experiment_trial","4","housework_semantic","semantic_sequence","chronological","","","","","","","",""
"","","","","","html-keyboard-response","88","296550","0.0-88.0","5A5BF28B8EFE47D9AF7F4ED88DE6290B","019d6663-99bf-74bb-ab87-70561dec4260","019d6630-2071-75cb-8026-6699844a2719","","null","
                <div class=""stimulus-container"">
                    <img src=""images/semantic_sequence/housework_semantic/housework_semantic_5.png"" class=""exp-image"">
                    <div class=""question-area""></div> 
                </div>","null","","","","","","","","","","","","",""
"","","","","","html-button-response","89","297520","0.0-89.0","5A5BF28B8EFE47D9AF7F4ED88DE6290B","019d6663-99bf-74bb-ab87-70561dec4260","019d6630-2071-75cb-8026-6699844a2719","","967","
                <div class=""stimulus-container"">
                    <img src=""images/semantic_sequence/housework_semantic/housework_semantic_5.png"" class=""exp-image"">
                    <div class=""question-area"">
                        <p style=""font-size: 20px; font-weight: bold; margin: 0;"">Is there a person in this image?</p>
                    </div>
                </div>","0","main_experiment_trial","5","housework_semantic","semantic_sequence","chronological","","","","","","","",""
"","","","","","html-keyboard-response","90","302531","0.0-90.0","5A5BF28B8EFE47D9AF7F4ED88DE6290B","019d6663-99bf-74bb-ab87-70561dec4260","019d6630-2071-75cb-8026-6699844a2719","","null","
                <div class=""stimulus-container"">
                    <img src=""images/semantic_sequence/housework_semantic/housework_semantic_6.png"" class=""exp-image"">
                    <div class=""question-area""></div> 
                </div>","null","","","","","","","","","","","","",""
"","","","","","html-button-response","91","304002","0.0-91.0","5A5BF28B8EFE47D9AF7F4ED88DE6290B","019d6663-99bf-74bb-ab87-70561dec4260","019d6630-2071-75cb-8026-6699844a2719","","1467","
                <div class=""stimulus-container"">
                    <img src=""images/semantic_sequence/housework_semantic/housework_semantic_6.png"" class=""exp-image"">
                    <div class=""question-area"">
                        <p style=""font-size: 20px; font-weight: bold; margin: 0;"">Is there a person in this image?</p>
                    </div>
                </div>","0","main_experiment_trial","6","housework_semantic","semantic_sequence","chronological","","","","","","","",""
"","","","","","html-keyboard-response","92","309014","0.0-92.0","5A5BF28B8EFE47D9AF7F4ED88DE6290B","019d6663-99bf-74bb-ab87-70561dec4260","019d6630-2071-75cb-8026-6699844a2719","","null","
                <div class=""stimulus-container"">
                    <img src=""images/semantic_sequence/housework_semantic/housework_semantic_7.png"" class=""exp-image"">
                    <div class=""question-area""></div> 
                </div>","null","","","","","","","","","","","","",""
"","","","","","html-button-response","93","309690","0.0-93.0","5A5BF28B8EFE47D9AF7F4ED88DE6290B","019d6663-99bf-74bb-ab87-70561dec4260","019d6630-2071-75cb-8026-6699844a2719","","673","
                <div class=""stimulus-container"">
                    <img src=""images/semantic_sequence/housework_semantic/housework_semantic_7.png"" class=""exp-image"">
                    <div class=""question-area"">
                        <p style=""font-size: 20px; font-weight: bold; margin: 0;"">Is there a person in this image?</p>
                    </div>
                </div>","0","main_experiment_trial","7","housework_semantic","semantic_sequence","chronological","","","","","","","",""
"","","","","","html-keyboard-response","94","314703","0.0-94.0","5A5BF28B8EFE47D9AF7F4ED88DE6290B","019d6663-99bf-74bb-ab87-70561dec4260","019d6630-2071-75cb-8026-6699844a2719","","null","
                <div class=""stimulus-container"">
                    <img src=""images/semantic_sequence/housework_semantic/housework_semantic_8.png"" class=""exp-image"">
                    <div class=""question-area""></div> 
                </div>","null","","","","","","","","","","","","",""
"","","","","","html-button-response","95","315402","0.0-95.0","5A5BF28B8EFE47D9AF7F4ED88DE6290B","019d6663-99bf-74bb-ab87-70561dec4260","019d6630-2071-75cb-8026-6699844a2719","","694","
                <div class=""stimulus-container"">
                    <img src=""images/semantic_sequence/housework_semantic/housework_semantic_8.png"" class=""exp-image"">
                    <div class=""question-area"">
                        <p style=""font-size: 20px; font-weight: bold; margin: 0;"">Is there a person in this image?</p>
                    </div>
                </div>","0","main_experiment_trial","8","housework_semantic","semantic_sequence","chronological","","","","","","","",""
"","","","","","html-keyboard-response","96","320410","0.0-96.0","5A5BF28B8EFE47D9AF7F4ED88DE6290B","019d6663-99bf-74bb-ab87-70561dec4260","019d6630-2071-75cb-8026-6699844a2719","","null","
                <div class=""stimulus-container"">
                    <img src=""images/semantic_sequence/housework_semantic/housework_semantic_9.png"" class=""exp-image"">
                    <div class=""question-area""></div> 
                </div>","null","","","","","","","","","","","","",""
"","","","","","html-button-response","97","321251","0.0-97.0","5A5BF28B8EFE47D9AF7F4ED88DE6290B","019d6663-99bf-74bb-ab87-70561dec4260","019d6630-2071-75cb-8026-6699844a2719","","837","
                <div class=""stimulus-container"">
                    <img src=""images/semantic_sequence/housework_semantic/housework_semantic_9.png"" class=""exp-image"">
                    <div class=""question-area"">
                        <p style=""font-size: 20px; font-weight: bold; margin: 0;"">Is there a person in this image?</p>
                    </div>
                </div>","0","main_experiment_trial","9","housework_semantic","semantic_sequence","chronological","","","","","","","",""
"","","","","","html-keyboard-response","98","326270","0.0-98.0","5A5BF28B8EFE47D9AF7F4ED88DE6290B","019d6663-99bf-74bb-ab87-70561dec4260","019d6630-2071-75cb-8026-6699844a2719","","null","
                <div class=""stimulus-container"">
                    <img src=""images/semantic_sequence/housework_semantic/housework_semantic_ten.png"" class=""exp-image"">
                    <div class=""question-area""></div> 
                </div>","null","","","","","","","","","","","","",""
"","","","","","html-button-response","99","327395","0.0-99.0","5A5BF28B8EFE47D9AF7F4ED88DE6290B","019d6663-99bf-74bb-ab87-70561dec4260","019d6630-2071-75cb-8026-6699844a2719","","1123","
                <div class=""stimulus-container"">
                    <img src=""images/semantic_sequence/housework_semantic/housework_semantic_ten.png"" class=""exp-image"">
                    <div class=""question-area"">
                        <p style=""font-size: 20px; font-weight: bold; margin: 0;"">Is there a person in this image?</p>
                    </div>
                </div>","0","main_experiment_trial","ten","housework_semantic","semantic_sequence","chronological","","","","","","","",""
"","","","","","html-keyboard-response","100","332402","0.0-100.0","5A5BF28B8EFE47D9AF7F4ED88DE6290B","019d6663-99bf-74bb-ab87-70561dec4260","019d6630-2071-75cb-8026-6699844a2719","","null","<div style=""background-color: white; width: 100vw; height: 100vh;""></div>","null","","","","","","","","","","","","",""
"","","","","","html-keyboard-response","101","337413","0.0-101.0","5A5BF28B8EFE47D9AF7F4ED88DE6290B","019d6663-99bf-74bb-ab87-70561dec4260","019d6630-2071-75cb-8026-6699844a2719","","null","
                <div class=""stimulus-container"">
                    <img src=""images/causal_sequence/dog_causal/dog_causal_1.png"" class=""exp-image"">
                    <div class=""question-area""></div> 
                </div>","null","","","","","","","","","","","","",""
"","","","","","html-button-response","102","338638","0.0-102.0","5A5BF28B8EFE47D9AF7F4ED88DE6290B","019d6663-99bf-74bb-ab87-70561dec4260","019d6630-2071-75cb-8026-6699844a2719","","1220","
                <div class=""stimulus-container"">
                    <img src=""images/causal_sequence/dog_causal/dog_causal_1.png"" class=""exp-image"">
                    <div class=""question-area"">
                        <p style=""font-size: 20px; font-weight: bold; margin: 0;"">Is there a person in this image?</p>
                    </div>
                </div>","0","main_experiment_trial","1","dog_causal","causal_sequence","chronological","","","","","","","",""
"","","","","","html-keyboard-response","103","343646","0.0-103.0","5A5BF28B8EFE47D9AF7F4ED88DE6290B","019d6663-99bf-74bb-ab87-70561dec4260","019d6630-2071-75cb-8026-6699844a2719","","null","
                <div class=""stimulus-container"">
                    <img src=""images/causal_sequence/dog_causal/dog_causal_2.png"" class=""exp-image"">
                    <div class=""question-area""></div> 
                </div>","null","","","","","","","","","","","","",""
"","","","","","html-button-response","104","344661","0.0-104.0","5A5BF28B8EFE47D9AF7F4ED88DE6290B","019d6663-99bf-74bb-ab87-70561dec4260","019d6630-2071-75cb-8026-6699844a2719","","1014","
                <div class=""stimulus-container"">
                    <img src=""images/causal_sequence/dog_causal/dog_causal_2.png"" class=""exp-image"">
                    <div class=""question-area"">
                        <p style=""font-size: 20px; font-weight: bold; margin: 0;"">Is there a person in this image?</p>
                    </div>
                </div>","0","main_experiment_trial","2","dog_causal","causal_sequence","chronological","","","","","","","",""
"","","","","","html-keyboard-response","105","349674","0.0-105.0","5A5BF28B8EFE47D9AF7F4ED88DE6290B","019d6663-99bf-74bb-ab87-70561dec4260","019d6630-2071-75cb-8026-6699844a2719","","null","
                <div class=""stimulus-container"">
                    <img src=""images/causal_sequence/dog_causal/dog_causal_3.png"" class=""exp-image"">
                    <div class=""question-area""></div> 
                </div>","null","","","","","","","","","","","","",""
"","","","","","html-button-response","106","350904","0.0-106.0","5A5BF28B8EFE47D9AF7F4ED88DE6290B","019d6663-99bf-74bb-ab87-70561dec4260","019d6630-2071-75cb-8026-6699844a2719","","1227","
                <div class=""stimulus-container"">
                    <img src=""images/causal_sequence/dog_causal/dog_causal_3.png"" class=""exp-image"">
                    <div class=""question-area"">
                        <p style=""font-size: 20px; font-weight: bold; margin: 0;"">Is there a person in this image?</p>
                    </div>
                </div>","0","main_experiment_trial","3","dog_causal","causal_sequence","chronological","","","","","","","",""
"","","","","","html-keyboard-response","107","355916","0.0-107.0","5A5BF28B8EFE47D9AF7F4ED88DE6290B","019d6663-99bf-74bb-ab87-70561dec4260","019d6630-2071-75cb-8026-6699844a2719","","null","
                <div class=""stimulus-container"">
                    <img src=""images/causal_sequence/dog_causal/dog_causal_4.png"" class=""exp-image"">
                    <div class=""question-area""></div> 
                </div>","null","","","","","","","","","","","","",""
"","","","","","html-button-response","108","357396","0.0-108.0","5A5BF28B8EFE47D9AF7F4ED88DE6290B","019d6663-99bf-74bb-ab87-70561dec4260","019d6630-2071-75cb-8026-6699844a2719","","1478","
                <div class=""stimulus-container"">
                    <img src=""images/causal_sequence/dog_causal/dog_causal_4.png"" class=""exp-image"">
                    <div class=""question-area"">
                        <p style=""font-size: 20px; font-weight: bold; margin: 0;"">Is there a person in this image?</p>
                    </div>
                </div>","0","main_experiment_trial","4","dog_causal","causal_sequence","chronological","","","","","","","",""
"","","","","","html-keyboard-response","109","362403","0.0-109.0","5A5BF28B8EFE47D9AF7F4ED88DE6290B","019d6663-99bf-74bb-ab87-70561dec4260","019d6630-2071-75cb-8026-6699844a2719","","null","
                <div class=""stimulus-container"">
                    <img src=""images/causal_sequence/dog_causal/dog_causal_5.png"" class=""exp-image"">
                    <div class=""question-area""></div> 
                </div>","null","","","","","","","","","","","","",""
"","","","","","html-button-response","110","363476","0.0-110.0","5A5BF28B8EFE47D9AF7F4ED88DE6290B","019d6663-99bf-74bb-ab87-70561dec4260","019d6630-2071-75cb-8026-6699844a2719","","1070","
                <div class=""stimulus-container"">
                    <img src=""images/causal_sequence/dog_causal/dog_causal_5.png"" class=""exp-image"">
                    <div class=""question-area"">
                        <p style=""font-size: 20px; font-weight: bold; margin: 0;"">Is there a person in this image?</p>
                    </div>
                </div>","0","main_experiment_trial","5","dog_causal","causal_sequence","chronological","","","","","","","",""
"","","","","","html-keyboard-response","111","368492","0.0-111.0","5A5BF28B8EFE47D9AF7F4ED88DE6290B","019d6663-99bf-74bb-ab87-70561dec4260","019d6630-2071-75cb-8026-6699844a2719","","null","
                <div class=""stimulus-container"">
                    <img src=""images/causal_sequence/dog_causal/dog_causal_6.png"" class=""exp-image"">
                    <div class=""question-area""></div> 
                </div>","null","","","","","","","","","","","","",""
"","","","","","html-button-response","112","371058","0.0-112.0","5A5BF28B8EFE47D9AF7F4ED88DE6290B","019d6663-99bf-74bb-ab87-70561dec4260","019d6630-2071-75cb-8026-6699844a2719","","2562","
                <div class=""stimulus-container"">
                    <img src=""images/causal_sequence/dog_causal/dog_causal_6.png"" class=""exp-image"">
                    <div class=""question-area"">
                        <p style=""font-size: 20px; font-weight: bold; margin: 0;"">Is there a person in this image?</p>
                    </div>
                </div>","0","main_experiment_trial","6","dog_causal","causal_sequence","chronological","","","","","","","",""
"","","","","","html-keyboard-response","113","376073","0.0-113.0","5A5BF28B8EFE47D9AF7F4ED88DE6290B","019d6663-99bf-74bb-ab87-70561dec4260","019d6630-2071-75cb-8026-6699844a2719","","null","
                <div class=""stimulus-container"">
                    <img src=""images/causal_sequence/dog_causal/dog_causal_7.png"" class=""exp-image"">
                    <div class=""question-area""></div> 
                </div>","null","","","","","","","","","","","","",""
"","","","","","html-button-response","114","377076","0.0-114.0","5A5BF28B8EFE47D9AF7F4ED88DE6290B","019d6663-99bf-74bb-ab87-70561dec4260","019d6630-2071-75cb-8026-6699844a2719","","998","
                <div class=""stimulus-container"">
                    <img src=""images/causal_sequence/dog_causal/dog_causal_7.png"" class=""exp-image"">
                    <div class=""question-area"">
                        <p style=""font-size: 20px; font-weight: bold; margin: 0;"">Is there a person in this image?</p>
                    </div>
                </div>","0","main_experiment_trial","7","dog_causal","causal_sequence","chronological","","","","","","","",""
"","","","","","html-keyboard-response","115","382078","0.0-115.0","5A5BF28B8EFE47D9AF7F4ED88DE6290B","019d6663-99bf-74bb-ab87-70561dec4260","019d6630-2071-75cb-8026-6699844a2719","","null","
                <div class=""stimulus-container"">
                    <img src=""images/causal_sequence/dog_causal/dog_causal_8.png"" class=""exp-image"">
                    <div class=""question-area""></div> 
                </div>","null","","","","","","","","","","","","",""
"","","","","","html-button-response","116","382944","0.0-116.0","5A5BF28B8EFE47D9AF7F4ED88DE6290B","019d6663-99bf-74bb-ab87-70561dec4260","019d6630-2071-75cb-8026-6699844a2719","","863","
                <div class=""stimulus-container"">
                    <img src=""images/causal_sequence/dog_causal/dog_causal_8.png"" class=""exp-image"">
                    <div class=""question-area"">
                        <p style=""font-size: 20px; font-weight: bold; margin: 0;"">Is there a person in this image?</p>
                    </div>
                </div>","0","main_experiment_trial","8","dog_causal","causal_sequence","chronological","","","","","","","",""
"","","","","","html-keyboard-response","117","387958","0.0-117.0","5A5BF28B8EFE47D9AF7F4ED88DE6290B","019d6663-99bf-74bb-ab87-70561dec4260","019d6630-2071-75cb-8026-6699844a2719","","null","
                <div class=""stimulus-container"">
                    <img src=""images/causal_sequence/dog_causal/dog_causal_9.png"" class=""exp-image"">
                    <div class=""question-area""></div> 
                </div>","null","","","","","","","","","","","","",""
"","","","","","html-button-response","118","388676","0.0-118.0","5A5BF28B8EFE47D9AF7F4ED88DE6290B","019d6663-99bf-74bb-ab87-70561dec4260","019d6630-2071-75cb-8026-6699844a2719","","714","
                <div class=""stimulus-container"">
                    <img src=""images/causal_sequence/dog_causal/dog_causal_9.png"" class=""exp-image"">
                    <div class=""question-area"">
                        <p style=""font-size: 20px; font-weight: bold; margin: 0;"">Is there a person in this image?</p>
                    </div>
                </div>","0","main_experiment_trial","9","dog_causal","causal_sequence","chronological","","","","","","","",""
"","","","","","html-keyboard-response","119","393683","0.0-119.0","5A5BF28B8EFE47D9AF7F4ED88DE6290B","019d6663-99bf-74bb-ab87-70561dec4260","019d6630-2071-75cb-8026-6699844a2719","","null","
                <div class=""stimulus-container"">
                    <img src=""images/causal_sequence/dog_causal/dog_causal_ten.png"" class=""exp-image"">
                    <div class=""question-area""></div> 
                </div>","null","","","","","","","","","","","","",""
"","","","","","html-button-response","120","394589","0.0-120.0","5A5BF28B8EFE47D9AF7F4ED88DE6290B","019d6663-99bf-74bb-ab87-70561dec4260","019d6630-2071-75cb-8026-6699844a2719","","902","
                <div class=""stimulus-container"">
                    <img src=""images/causal_sequence/dog_causal/dog_causal_ten.png"" class=""exp-image"">
                    <div class=""question-area"">
                        <p style=""font-size: 20px; font-weight: bold; margin: 0;"">Is there a person in this image?</p>
                    </div>
                </div>","0","main_experiment_trial","ten","dog_causal","causal_sequence","chronological","","","","","","","",""
"","","","","","html-keyboard-response","121","399593","0.0-121.0","5A5BF28B8EFE47D9AF7F4ED88DE6290B","019d6663-99bf-74bb-ab87-70561dec4260","019d6630-2071-75cb-8026-6699844a2719","","null","<div style=""background-color: white; width: 100vw; height: 100vh;""></div>","null","","","","","","","","","","","","",""
"","","","","","html-keyboard-response","122","404609","0.0-122.0","5A5BF28B8EFE47D9AF7F4ED88DE6290B","019d6663-99bf-74bb-ab87-70561dec4260","019d6630-2071-75cb-8026-6699844a2719","","null","
                <div class=""stimulus-container"">
                    <img src=""images/schematic_sequence/interview_scheme/interview_scheme_1.png"" class=""exp-image"">
                    <div class=""question-area""></div> 
                </div>","null","","","","","","","","","","","","",""
"","","","","","html-button-response","123","405537","0.0-123.0","5A5BF28B8EFE47D9AF7F4ED88DE6290B","019d6663-99bf-74bb-ab87-70561dec4260","019d6630-2071-75cb-8026-6699844a2719","","926","
                <div class=""stimulus-container"">
                    <img src=""images/schematic_sequence/interview_scheme/interview_scheme_1.png"" class=""exp-image"">
                    <div class=""question-area"">
                        <p style=""font-size: 20px; font-weight: bold; margin: 0;"">Is there a person in this image?</p>
                    </div>
                </div>","1","main_experiment_trial","1","interview_scheme","schematic_sequence","chronological","","","","","","","",""
"","","","","","html-keyboard-response","124","410549","0.0-124.0","5A5BF28B8EFE47D9AF7F4ED88DE6290B","019d6663-99bf-74bb-ab87-70561dec4260","019d6630-2071-75cb-8026-6699844a2719","","null","
                <div class=""stimulus-container"">
                    <img src=""images/schematic_sequence/interview_scheme/interview_scheme_2.png"" class=""exp-image"">
                    <div class=""question-area""></div> 
                </div>","null","","","","","","","","","","","","",""
"","","","","","html-button-response","125","411553","0.0-125.0","5A5BF28B8EFE47D9AF7F4ED88DE6290B","019d6663-99bf-74bb-ab87-70561dec4260","019d6630-2071-75cb-8026-6699844a2719","","1001","
                <div class=""stimulus-container"">
                    <img src=""images/schematic_sequence/interview_scheme/interview_scheme_2.png"" class=""exp-image"">
                    <div class=""question-area"">
                        <p style=""font-size: 20px; font-weight: bold; margin: 0;"">Is there a person in this image?</p>
                    </div>
                </div>","0","main_experiment_trial","2","interview_scheme","schematic_sequence","chronological","","","","","","","",""
"","","","","","html-keyboard-response","126","416564","0.0-126.0","5A5BF28B8EFE47D9AF7F4ED88DE6290B","019d6663-99bf-74bb-ab87-70561dec4260","019d6630-2071-75cb-8026-6699844a2719","","null","
                <div class=""stimulus-container"">
                    <img src=""images/schematic_sequence/interview_scheme/interview_scheme_3.png"" class=""exp-image"">
                    <div class=""question-area""></div> 
                </div>","null","","","","","","","","","","","","",""
"","","","","","html-button-response","127","418136","0.0-127.0","5A5BF28B8EFE47D9AF7F4ED88DE6290B","019d6663-99bf-74bb-ab87-70561dec4260","019d6630-2071-75cb-8026-6699844a2719","","1570","
                <div class=""stimulus-container"">
                    <img src=""images/schematic_sequence/interview_scheme/interview_scheme_3.png"" class=""exp-image"">
                    <div class=""question-area"">
                        <p style=""font-size: 20px; font-weight: bold; margin: 0;"">Is there a person in this image?</p>
                    </div>
                </div>","1","main_experiment_trial","3","interview_scheme","schematic_sequence","chronological","","","","","","","",""
"","","","","","html-keyboard-response","128","423142","0.0-128.0","5A5BF28B8EFE47D9AF7F4ED88DE6290B","019d6663-99bf-74bb-ab87-70561dec4260","019d6630-2071-75cb-8026-6699844a2719","","null","
                <div class=""stimulus-container"">
                    <img src=""images/schematic_sequence/interview_scheme/interview_scheme_4.png"" class=""exp-image"">
                    <div class=""question-area""></div> 
                </div>","null","","","","","","","","","","","","",""
"","","","","","html-button-response","129","423908","0.0-129.0","5A5BF28B8EFE47D9AF7F4ED88DE6290B","019d6663-99bf-74bb-ab87-70561dec4260","019d6630-2071-75cb-8026-6699844a2719","","763","
                <div class=""stimulus-container"">
                    <img src=""images/schematic_sequence/interview_scheme/interview_scheme_4.png"" class=""exp-image"">
                    <div class=""question-area"">
                        <p style=""font-size: 20px; font-weight: bold; margin: 0;"">Is there a person in this image?</p>
                    </div>
                </div>","1","main_experiment_trial","4","interview_scheme","schematic_sequence","chronological","","","","","","","",""
"","","","","","html-keyboard-response","130","428924","0.0-130.0","5A5BF28B8EFE47D9AF7F4ED88DE6290B","019d6663-99bf-74bb-ab87-70561dec4260","019d6630-2071-75cb-8026-6699844a2719","","null","
                <div class=""stimulus-container"">
                    <img src=""images/schematic_sequence/interview_scheme/interview_scheme_5.png"" class=""exp-image"">
                    <div class=""question-area""></div> 
                </div>","null","","","","","","","","","","","","",""
"","","","","","html-button-response","131","429718","0.0-131.0","5A5BF28B8EFE47D9AF7F4ED88DE6290B","019d6663-99bf-74bb-ab87-70561dec4260","019d6630-2071-75cb-8026-6699844a2719","","792","
                <div class=""stimulus-container"">
                    <img src=""images/schematic_sequence/interview_scheme/interview_scheme_5.png"" class=""exp-image"">
                    <div class=""question-area"">
                        <p style=""font-size: 20px; font-weight: bold; margin: 0;"">Is there a person in this image?</p>
                    </div>
                </div>","0","main_experiment_trial","5","interview_scheme","schematic_sequence","chronological","","","","","","","",""
"","","","","","html-keyboard-response","132","434728","0.0-132.0","5A5BF28B8EFE47D9AF7F4ED88DE6290B","019d6663-99bf-74bb-ab87-70561dec4260","019d6630-2071-75cb-8026-6699844a2719","","null","
                <div class=""stimulus-container"">
                    <img src=""images/schematic_sequence/interview_scheme/interview_scheme_6.png"" class=""exp-image"">
                    <div class=""question-area""></div> 
                </div>","null","","","","","","","","","","","","",""
"","","","","","html-button-response","133","435926","0.0-133.0","5A5BF28B8EFE47D9AF7F4ED88DE6290B","019d6663-99bf-74bb-ab87-70561dec4260","019d6630-2071-75cb-8026-6699844a2719","","1196","
                <div class=""stimulus-container"">
                    <img src=""images/schematic_sequence/interview_scheme/interview_scheme_6.png"" class=""exp-image"">
                    <div class=""question-area"">
                        <p style=""font-size: 20px; font-weight: bold; margin: 0;"">Is there a person in this image?</p>
                    </div>
                </div>","0","main_experiment_trial","6","interview_scheme","schematic_sequence","chronological","","","","","","","",""
"","","","","","html-keyboard-response","134","440933","0.0-134.0","5A5BF28B8EFE47D9AF7F4ED88DE6290B","019d6663-99bf-74bb-ab87-70561dec4260","019d6630-2071-75cb-8026-6699844a2719","","null","
                <div class=""stimulus-container"">
                    <img src=""images/schematic_sequence/interview_scheme/interview_scheme_7.png"" class=""exp-image"">
                    <div class=""question-area""></div> 
                </div>","null","","","","","","","","","","","","",""
"","","","","","html-button-response","135","441692","0.0-135.0","5A5BF28B8EFE47D9AF7F4ED88DE6290B","019d6663-99bf-74bb-ab87-70561dec4260","019d6630-2071-75cb-8026-6699844a2719","","755","
                <div class=""stimulus-container"">
                    <img src=""images/schematic_sequence/interview_scheme/interview_scheme_7.png"" class=""exp-image"">
                    <div class=""question-area"">
                        <p style=""font-size: 20px; font-weight: bold; margin: 0;"">Is there a person in this image?</p>
                    </div>
                </div>","0","main_experiment_trial","7","interview_scheme","schematic_sequence","chronological","","","","","","","",""
"","","","","","html-keyboard-response","136","446706","0.0-136.0","5A5BF28B8EFE47D9AF7F4ED88DE6290B","019d6663-99bf-74bb-ab87-70561dec4260","019d6630-2071-75cb-8026-6699844a2719","","null","
                <div class=""stimulus-container"">
                    <img src=""images/schematic_sequence/interview_scheme/interview_scheme_8.png"" class=""exp-image"">
                    <div class=""question-area""></div> 
                </div>","null","","","","","","","","","","","","",""
"","","","","","html-button-response","137","447619","0.0-137.0","5A5BF28B8EFE47D9AF7F4ED88DE6290B","019d6663-99bf-74bb-ab87-70561dec4260","019d6630-2071-75cb-8026-6699844a2719","","909","
                <div class=""stimulus-container"">
                    <img src=""images/schematic_sequence/interview_scheme/interview_scheme_8.png"" class=""exp-image"">
                    <div class=""question-area"">
                        <p style=""font-size: 20px; font-weight: bold; margin: 0;"">Is there a person in this image?</p>
                    </div>
                </div>","0","main_experiment_trial","8","interview_scheme","schematic_sequence","chronological","","","","","","","",""
"","","","","","html-keyboard-response","138","452622","0.0-138.0","5A5BF28B8EFE47D9AF7F4ED88DE6290B","019d6663-99bf-74bb-ab87-70561dec4260","019d6630-2071-75cb-8026-6699844a2719","","null","
                <div class=""stimulus-container"">
                    <img src=""images/schematic_sequence/interview_scheme/interview_scheme_9.png"" class=""exp-image"">
                    <div class=""question-area""></div> 
                </div>","null","","","","","","","","","","","","",""
"","","","","","html-button-response","139","453561","0.0-139.0","5A5BF28B8EFE47D9AF7F4ED88DE6290B","019d6663-99bf-74bb-ab87-70561dec4260","019d6630-2071-75cb-8026-6699844a2719","","936","
                <div class=""stimulus-container"">
                    <img src=""images/schematic_sequence/interview_scheme/interview_scheme_9.png"" class=""exp-image"">
                    <div class=""question-area"">
                        <p style=""font-size: 20px; font-weight: bold; margin: 0;"">Is there a person in this image?</p>
                    </div>
                </div>","0","main_experiment_trial","9","interview_scheme","schematic_sequence","chronological","","","","","","","",""
"","","","","","html-keyboard-response","140","458575","0.0-140.0","5A5BF28B8EFE47D9AF7F4ED88DE6290B","019d6663-99bf-74bb-ab87-70561dec4260","019d6630-2071-75cb-8026-6699844a2719","","null","
                <div class=""stimulus-container"">
                    <img src=""images/schematic_sequence/interview_scheme/interview_scheme_ten.png"" class=""exp-image"">
                    <div class=""question-area""></div> 
                </div>","null","","","","","","","","","","","","",""
"","","","","","html-button-response","141","459301","0.0-141.0","5A5BF28B8EFE47D9AF7F4ED88DE6290B","019d6663-99bf-74bb-ab87-70561dec4260","019d6630-2071-75cb-8026-6699844a2719","","723","
                <div class=""stimulus-container"">
                    <img src=""images/schematic_sequence/interview_scheme/interview_scheme_ten.png"" class=""exp-image"">
                    <div class=""question-area"">
                        <p style=""font-size: 20px; font-weight: bold; margin: 0;"">Is there a person in this image?</p>
                    </div>
                </div>","0","main_experiment_trial","ten","interview_scheme","schematic_sequence","chronological","","","","","","","",""
"","","","","","html-keyboard-response","142","464313","0.0-142.0","5A5BF28B8EFE47D9AF7F4ED88DE6290B","019d6663-99bf-74bb-ab87-70561dec4260","019d6630-2071-75cb-8026-6699844a2719","","null","<div style=""background-color: white; width: 100vw; height: 100vh;""></div>","null","","","","","","","","","","","","",""
"","","","","","html-keyboard-response","143","469316","0.0-143.0","5A5BF28B8EFE47D9AF7F4ED88DE6290B","019d6663-99bf-74bb-ab87-70561dec4260","019d6630-2071-75cb-8026-6699844a2719","","null","
                <div class=""stimulus-container"">
                    <img src=""images/causal_sequence/coin_causal/coin_causal_1.png"" class=""exp-image"">
                    <div class=""question-area""></div> 
                </div>","null","","","","","","","","","","","","",""
"","","","","","html-button-response","144","469976","0.0-144.0","5A5BF28B8EFE47D9AF7F4ED88DE6290B","019d6663-99bf-74bb-ab87-70561dec4260","019d6630-2071-75cb-8026-6699844a2719","","657","
                <div class=""stimulus-container"">
                    <img src=""images/causal_sequence/coin_causal/coin_causal_1.png"" class=""exp-image"">
                    <div class=""question-area"">
                        <p style=""font-size: 20px; font-weight: bold; margin: 0;"">Is there a person in this image?</p>
                    </div>
                </div>","0","main_experiment_trial","1","coin_causal","causal_sequence","chronological","","","","","","","",""
"","","","","","html-keyboard-response","145","474988","0.0-145.0","5A5BF28B8EFE47D9AF7F4ED88DE6290B","019d6663-99bf-74bb-ab87-70561dec4260","019d6630-2071-75cb-8026-6699844a2719","","null","
                <div class=""stimulus-container"">
                    <img src=""images/causal_sequence/coin_causal/coin_causal_2.png"" class=""exp-image"">
                    <div class=""question-area""></div> 
                </div>","null","","","","","","","","","","","","",""
"","","","","","html-button-response","146","475994","0.0-146.0","5A5BF28B8EFE47D9AF7F4ED88DE6290B","019d6663-99bf-74bb-ab87-70561dec4260","019d6630-2071-75cb-8026-6699844a2719","","1000","
                <div class=""stimulus-container"">
                    <img src=""images/causal_sequence/coin_causal/coin_causal_2.png"" class=""exp-image"">
                    <div class=""question-area"">
                        <p style=""font-size: 20px; font-weight: bold; margin: 0;"">Is there a person in this image?</p>
                    </div>
                </div>","0","main_experiment_trial","2","coin_causal","causal_sequence","chronological","","","","","","","",""
"","","","","","html-keyboard-response","147","481012","0.0-147.0","5A5BF28B8EFE47D9AF7F4ED88DE6290B","019d6663-99bf-74bb-ab87-70561dec4260","019d6630-2071-75cb-8026-6699844a2719","","null","
                <div class=""stimulus-container"">
                    <img src=""images/causal_sequence/coin_causal/coin_causal_3.png"" class=""exp-image"">
                    <div class=""question-area""></div> 
                </div>","null","","","","","","","","","","","","",""
"","","","","","html-button-response","148","482617","0.0-148.0","5A5BF28B8EFE47D9AF7F4ED88DE6290B","019d6663-99bf-74bb-ab87-70561dec4260","019d6630-2071-75cb-8026-6699844a2719","","1600","
                <div class=""stimulus-container"">
                    <img src=""images/causal_sequence/coin_causal/coin_causal_3.png"" class=""exp-image"">
                    <div class=""question-area"">
                        <p style=""font-size: 20px; font-weight: bold; margin: 0;"">Is there a person in this image?</p>
                    </div>
                </div>","0","main_experiment_trial","3","coin_causal","causal_sequence","chronological","","","","","","","",""
"","","","","","html-keyboard-response","149","487632","0.0-149.0","5A5BF28B8EFE47D9AF7F4ED88DE6290B","019d6663-99bf-74bb-ab87-70561dec4260","019d6630-2071-75cb-8026-6699844a2719","","null","
                <div class=""stimulus-container"">
                    <img src=""images/causal_sequence/coin_causal/coin_causal_4.png"" class=""exp-image"">
                    <div class=""question-area""></div> 
                </div>","null","","","","","","","","","","","","",""
"","","","","","html-button-response","150","488549","0.0-150.0","5A5BF28B8EFE47D9AF7F4ED88DE6290B","019d6663-99bf-74bb-ab87-70561dec4260","019d6630-2071-75cb-8026-6699844a2719","","914","
                <div class=""stimulus-container"">
                    <img src=""images/causal_sequence/coin_causal/coin_causal_4.png"" class=""exp-image"">
                    <div class=""question-area"">
                        <p style=""font-size: 20px; font-weight: bold; margin: 0;"">Is there a person in this image?</p>
                    </div>
                </div>","0","main_experiment_trial","4","coin_causal","causal_sequence","chronological","","","","","","","",""
"","","","","","html-keyboard-response","151","493550","0.0-151.0","5A5BF28B8EFE47D9AF7F4ED88DE6290B","019d6663-99bf-74bb-ab87-70561dec4260","019d6630-2071-75cb-8026-6699844a2719","","null","
                <div class=""stimulus-container"">
                    <img src=""images/causal_sequence/coin_causal/coin_causal_5.png"" class=""exp-image"">
                    <div class=""question-area""></div> 
                </div>","null","","","","","","","","","","","","",""
"","","","","","html-button-response","152","495705","0.0-152.0","5A5BF28B8EFE47D9AF7F4ED88DE6290B","019d6663-99bf-74bb-ab87-70561dec4260","019d6630-2071-75cb-8026-6699844a2719","","2151","
                <div class=""stimulus-container"">
                    <img src=""images/causal_sequence/coin_causal/coin_causal_5.png"" class=""exp-image"">
                    <div class=""question-area"">
                        <p style=""font-size: 20px; font-weight: bold; margin: 0;"">Is there a person in this image?</p>
                    </div>
                </div>","0","main_experiment_trial","5","coin_causal","causal_sequence","chronological","","","","","","","",""
"","","","","","html-keyboard-response","153","500715","0.0-153.0","5A5BF28B8EFE47D9AF7F4ED88DE6290B","019d6663-99bf-74bb-ab87-70561dec4260","019d6630-2071-75cb-8026-6699844a2719","","null","
                <div class=""stimulus-container"">
                    <img src=""images/causal_sequence/coin_causal/coin_causal_6.png"" class=""exp-image"">
                    <div class=""question-area""></div> 
                </div>","null","","","","","","","","","","","","",""
"","","","","","html-button-response","154","502488","0.0-154.0","5A5BF28B8EFE47D9AF7F4ED88DE6290B","019d6663-99bf-74bb-ab87-70561dec4260","019d6630-2071-75cb-8026-6699844a2719","","1771","
                <div class=""stimulus-container"">
                    <img src=""images/causal_sequence/coin_causal/coin_causal_6.png"" class=""exp-image"">
                    <div class=""question-area"">
                        <p style=""font-size: 20px; font-weight: bold; margin: 0;"">Is there a person in this image?</p>
                    </div>
                </div>","0","main_experiment_trial","6","coin_causal","causal_sequence","chronological","","","","","","","",""
"","","","","","html-keyboard-response","155","507502","0.0-155.0","5A5BF28B8EFE47D9AF7F4ED88DE6290B","019d6663-99bf-74bb-ab87-70561dec4260","019d6630-2071-75cb-8026-6699844a2719","","null","
                <div class=""stimulus-container"">
                    <img src=""images/causal_sequence/coin_causal/coin_causal_7.png"" class=""exp-image"">
                    <div class=""question-area""></div> 
                </div>","null","","","","","","","","","","","","",""
"","","","","","html-button-response","156","510492","0.0-156.0","5A5BF28B8EFE47D9AF7F4ED88DE6290B","019d6663-99bf-74bb-ab87-70561dec4260","019d6630-2071-75cb-8026-6699844a2719","","2986","
                <div class=""stimulus-container"">
                    <img src=""images/causal_sequence/coin_causal/coin_causal_7.png"" class=""exp-image"">
                    <div class=""question-area"">
                        <p style=""font-size: 20px; font-weight: bold; margin: 0;"">Is there a person in this image?</p>
                    </div>
                </div>","0","main_experiment_trial","7","coin_causal","causal_sequence","chronological","","","","","","","",""
"","","","","","html-keyboard-response","157","515509","0.0-157.0","5A5BF28B8EFE47D9AF7F4ED88DE6290B","019d6663-99bf-74bb-ab87-70561dec4260","019d6630-2071-75cb-8026-6699844a2719","","null","
                <div class=""stimulus-container"">
                    <img src=""images/causal_sequence/coin_causal/coin_causal_8.png"" class=""exp-image"">
                    <div class=""question-area""></div> 
                </div>","null","","","","","","","","","","","","",""
"","","","","","html-button-response","158","517299","0.0-158.0","5A5BF28B8EFE47D9AF7F4ED88DE6290B","019d6663-99bf-74bb-ab87-70561dec4260","019d6630-2071-75cb-8026-6699844a2719","","1787","
                <div class=""stimulus-container"">
                    <img src=""images/causal_sequence/coin_causal/coin_causal_8.png"" class=""exp-image"">
                    <div class=""question-area"">
                        <p style=""font-size: 20px; font-weight: bold; margin: 0;"">Is there a person in this image?</p>
                    </div>
                </div>","0","main_experiment_trial","8","coin_causal","causal_sequence","chronological","","","","","","","",""
"","","","","","html-keyboard-response","159","522317","0.0-159.0","5A5BF28B8EFE47D9AF7F4ED88DE6290B","019d6663-99bf-74bb-ab87-70561dec4260","019d6630-2071-75cb-8026-6699844a2719","","null","
                <div class=""stimulus-container"">
                    <img src=""images/causal_sequence/coin_causal/coin_causal_9.png"" class=""exp-image"">
                    <div class=""question-area""></div> 
                </div>","null","","","","","","","","","","","","",""
"","","","","","html-button-response","160","523883","0.0-160.0","5A5BF28B8EFE47D9AF7F4ED88DE6290B","019d6663-99bf-74bb-ab87-70561dec4260","019d6630-2071-75cb-8026-6699844a2719","","1563","
                <div class=""stimulus-container"">
                    <img src=""images/causal_sequence/coin_causal/coin_causal_9.png"" class=""exp-image"">
                    <div class=""question-area"">
                        <p style=""font-size: 20px; font-weight: bold; margin: 0;"">Is there a person in this image?</p>
                    </div>
                </div>","0","main_experiment_trial","9","coin_causal","causal_sequence","chronological","","","","","","","",""
"","","","","","html-keyboard-response","161","528899","0.0-161.0","5A5BF28B8EFE47D9AF7F4ED88DE6290B","019d6663-99bf-74bb-ab87-70561dec4260","019d6630-2071-75cb-8026-6699844a2719","","null","
                <div class=""stimulus-container"">
                    <img src=""images/causal_sequence/coin_causal/coin_causal_ten.png"" class=""exp-image"">
                    <div class=""question-area""></div> 
                </div>","null","","","","","","","","","","","","",""
"","","","","","html-button-response","162","529562","0.0-162.0","5A5BF28B8EFE47D9AF7F4ED88DE6290B","019d6663-99bf-74bb-ab87-70561dec4260","019d6630-2071-75cb-8026-6699844a2719","","661","
                <div class=""stimulus-container"">
                    <img src=""images/causal_sequence/coin_causal/coin_causal_ten.png"" class=""exp-image"">
                    <div class=""question-area"">
                        <p style=""font-size: 20px; font-weight: bold; margin: 0;"">Is there a person in this image?</p>
                    </div>
                </div>","0","main_experiment_trial","ten","coin_causal","causal_sequence","chronological","","","","","","","",""
"","","","","","html-keyboard-response","163","534569","0.0-163.0","5A5BF28B8EFE47D9AF7F4ED88DE6290B","019d6663-99bf-74bb-ab87-70561dec4260","019d6630-2071-75cb-8026-6699844a2719","","null","<div style=""background-color: white; width: 100vw; height: 100vh;""></div>","null","","","","","","","","","","","","",""
"","","","","","html-keyboard-response","164","539579","0.0-164.0","5A5BF28B8EFE47D9AF7F4ED88DE6290B","019d6663-99bf-74bb-ab87-70561dec4260","019d6630-2071-75cb-8026-6699844a2719","","null","
                <div class=""stimulus-container"">
                    <img src=""images/schematic_sequence/flight_scheme/flight_scheme_1.png"" class=""exp-image"">
                    <div class=""question-area""></div> 
                </div>","null","","","","","","","","","","","","",""
"","","","","","html-button-response","165","540473","0.0-165.0","5A5BF28B8EFE47D9AF7F4ED88DE6290B","019d6663-99bf-74bb-ab87-70561dec4260","019d6630-2071-75cb-8026-6699844a2719","","890","
                <div class=""stimulus-container"">
                    <img src=""images/schematic_sequence/flight_scheme/flight_scheme_1.png"" class=""exp-image"">
                    <div class=""question-area"">
                        <p style=""font-size: 20px; font-weight: bold; margin: 0;"">Is there a person in this image?</p>
                    </div>
                </div>","0","main_experiment_trial","1","flight_scheme","schematic_sequence","chronological","","","","","","","",""
"","","","","","html-keyboard-response","166","545474","0.0-166.0","5A5BF28B8EFE47D9AF7F4ED88DE6290B","019d6663-99bf-74bb-ab87-70561dec4260","019d6630-2071-75cb-8026-6699844a2719","","null","
                <div class=""stimulus-container"">
                    <img src=""images/schematic_sequence/flight_scheme/flight_scheme_2.png"" class=""exp-image"">
                    <div class=""question-area""></div> 
                </div>","null","","","","","","","","","","","","",""
"","","","","","html-button-response","167","547658","0.0-167.0","5A5BF28B8EFE47D9AF7F4ED88DE6290B","019d6663-99bf-74bb-ab87-70561dec4260","019d6630-2071-75cb-8026-6699844a2719","","2180","
                <div class=""stimulus-container"">
                    <img src=""images/schematic_sequence/flight_scheme/flight_scheme_2.png"" class=""exp-image"">
                    <div class=""question-area"">
                        <p style=""font-size: 20px; font-weight: bold; margin: 0;"">Is there a person in this image?</p>
                    </div>
                </div>","1","main_experiment_trial","2","flight_scheme","schematic_sequence","chronological","","","","","","","",""
"","","","","","html-keyboard-response","168","552666","0.0-168.0","5A5BF28B8EFE47D9AF7F4ED88DE6290B","019d6663-99bf-74bb-ab87-70561dec4260","019d6630-2071-75cb-8026-6699844a2719","","null","
                <div class=""stimulus-container"">
                    <img src=""images/schematic_sequence/flight_scheme/flight_scheme_3.png"" class=""exp-image"">
                    <div class=""question-area""></div> 
                </div>","null","","","","","","","","","","","","",""
"","","","","","html-button-response","169","553529","0.0-169.0","5A5BF28B8EFE47D9AF7F4ED88DE6290B","019d6663-99bf-74bb-ab87-70561dec4260","019d6630-2071-75cb-8026-6699844a2719","","860","
                <div class=""stimulus-container"">
                    <img src=""images/schematic_sequence/flight_scheme/flight_scheme_3.png"" class=""exp-image"">
                    <div class=""question-area"">
                        <p style=""font-size: 20px; font-weight: bold; margin: 0;"">Is there a person in this image?</p>
                    </div>
                </div>","0","main_experiment_trial","3","flight_scheme","schematic_sequence","chronological","","","","","","","",""
"","","","","","html-keyboard-response","170","558532","0.0-170.0","5A5BF28B8EFE47D9AF7F4ED88DE6290B","019d6663-99bf-74bb-ab87-70561dec4260","019d6630-2071-75cb-8026-6699844a2719","","null","
                <div class=""stimulus-container"">
                    <img src=""images/schematic_sequence/flight_scheme/flight_scheme_4.png"" class=""exp-image"">
                    <div class=""question-area""></div> 
                </div>","null","","","","","","","","","","","","",""
"","","","","","html-button-response","171","559385","0.0-171.0","5A5BF28B8EFE47D9AF7F4ED88DE6290B","019d6663-99bf-74bb-ab87-70561dec4260","019d6630-2071-75cb-8026-6699844a2719","","847","
                <div class=""stimulus-container"">
                    <img src=""images/schematic_sequence/flight_scheme/flight_scheme_4.png"" class=""exp-image"">
                    <div class=""question-area"">
                        <p style=""font-size: 20px; font-weight: bold; margin: 0;"">Is there a person in this image?</p>
                    </div>
                </div>","0","main_experiment_trial","4","flight_scheme","schematic_sequence","chronological","","","","","","","",""
"","","","","","html-keyboard-response","172","564392","0.0-172.0","5A5BF28B8EFE47D9AF7F4ED88DE6290B","019d6663-99bf-74bb-ab87-70561dec4260","019d6630-2071-75cb-8026-6699844a2719","","null","
                <div class=""stimulus-container"">
                    <img src=""images/schematic_sequence/flight_scheme/flight_scheme_5.png"" class=""exp-image"">
                    <div class=""question-area""></div> 
                </div>","null","","","","","","","","","","","","",""
"","","","","","html-button-response","173","565202","0.0-173.0","5A5BF28B8EFE47D9AF7F4ED88DE6290B","019d6663-99bf-74bb-ab87-70561dec4260","019d6630-2071-75cb-8026-6699844a2719","","804","
                <div class=""stimulus-container"">
                    <img src=""images/schematic_sequence/flight_scheme/flight_scheme_5.png"" class=""exp-image"">
                    <div class=""question-area"">
                        <p style=""font-size: 20px; font-weight: bold; margin: 0;"">Is there a person in this image?</p>
                    </div>
                </div>","0","main_experiment_trial","5","flight_scheme","schematic_sequence","chronological","","","","","","","",""
"","","","","","html-keyboard-response","174","570206","0.0-174.0","5A5BF28B8EFE47D9AF7F4ED88DE6290B","019d6663-99bf-74bb-ab87-70561dec4260","019d6630-2071-75cb-8026-6699844a2719","","null","
                <div class=""stimulus-container"">
                    <img src=""images/schematic_sequence/flight_scheme/flight_scheme_6.png"" class=""exp-image"">
                    <div class=""question-area""></div> 
                </div>","null","","","","","","","","","","","","",""
"","","","","","html-button-response","175","571062","0.0-175.0","5A5BF28B8EFE47D9AF7F4ED88DE6290B","019d6663-99bf-74bb-ab87-70561dec4260","019d6630-2071-75cb-8026-6699844a2719","","853","
                <div class=""stimulus-container"">
                    <img src=""images/schematic_sequence/flight_scheme/flight_scheme_6.png"" class=""exp-image"">
                    <div class=""question-area"">
                        <p style=""font-size: 20px; font-weight: bold; margin: 0;"">Is there a person in this image?</p>
                    </div>
                </div>","1","main_experiment_trial","6","flight_scheme","schematic_sequence","chronological","","","","","","","",""
"","","","","","html-keyboard-response","176","576079","0.0-176.0","5A5BF28B8EFE47D9AF7F4ED88DE6290B","019d6663-99bf-74bb-ab87-70561dec4260","019d6630-2071-75cb-8026-6699844a2719","","null","
                <div class=""stimulus-container"">
                    <img src=""images/schematic_sequence/flight_scheme/flight_scheme_7.png"" class=""exp-image"">
                    <div class=""question-area""></div> 
                </div>","null","","","","","","","","","","","","",""
"","","","","","html-button-response","177","576911","0.0-177.0","5A5BF28B8EFE47D9AF7F4ED88DE6290B","019d6663-99bf-74bb-ab87-70561dec4260","019d6630-2071-75cb-8026-6699844a2719","","827","
                <div class=""stimulus-container"">
                    <img src=""images/schematic_sequence/flight_scheme/flight_scheme_7.png"" class=""exp-image"">
