"success","timeout","failed_images","failed_audio","failed_video","trial_type","trial_index","time_elapsed","internal_node_id","subject_id","study_id","session_id","view_history","rt","stimulus","response","task","image_index","folder","valuable_image_index","valuable_X","chosen_image_index","distance_from_X"
"false","false","[]","[]","[]","preload","0","6755","0.0-0.0","0F422D39CFE04D82A0216F6934D5FBDE","019ce691-9175-711f-8d0b-c5d07a8619bb","019ce643-47c6-74a0-b3d2-7bf5651ded46","","","","","","","","","","",""
"","","","","","instructions","1","10191","0.0-1.0","0F422D39CFE04D82A0216F6934D5FBDE","019ce691-9175-711f-8d0b-c5d07a8619bb","019ce643-47c6-74a0-b3d2-7bf5651ded46","[{""page_index"":0,""viewing_time"":3436}]","3436","","","","","","","","",""
"","","","","","instructions","2","32611","0.0-2.0","0F422D39CFE04D82A0216F6934D5FBDE","019ce691-9175-711f-8d0b-c5d07a8619bb","019ce643-47c6-74a0-b3d2-7bf5651ded46","[{""page_index"":0,""viewing_time"":22419}]","22419","","","","","","","","",""
"true","","","","","fullscreen","3","35315","0.0-3.0","0F422D39CFE04D82A0216F6934D5FBDE","019ce691-9175-711f-8d0b-c5d07a8619bb","019ce643-47c6-74a0-b3d2-7bf5651ded46","","1699","","","","","","","","",""
"","","","","","instructions","4","42370","0.0-4.0","0F422D39CFE04D82A0216F6934D5FBDE","019ce691-9175-711f-8d0b-c5d07a8619bb","019ce643-47c6-74a0-b3d2-7bf5651ded46","[{""page_index"":0,""viewing_time"":7054}]","7054","","","","","","","","",""
"","","","","","instructions","5","49878","0.0-5.0","0F422D39CFE04D82A0216F6934D5FBDE","019ce691-9175-711f-8d0b-c5d07a8619bb","019ce643-47c6-74a0-b3d2-7bf5651ded46","[{""page_index"":0,""viewing_time"":7508}]","7508","","","","","","","","",""
"","","","","","html-keyboard-response","6","53891","0.0-6.0","0F422D39CFE04D82A0216F6934D5FBDE","019ce691-9175-711f-8d0b-c5d07a8619bb","019ce643-47c6-74a0-b3d2-7bf5651ded46","","null","
                <div class=""stimulus-container"">
                    <img src=""images/instructions/movie_1.png"" class=""exp-image"">
                    <div class=""question-area""></div> 
                </div>","null","","","","","","",""
"","","","","","html-button-response","7","55442","0.0-7.0","0F422D39CFE04D82A0216F6934D5FBDE","019ce691-9175-711f-8d0b-c5d07a8619bb","019ce643-47c6-74a0-b3d2-7bf5651ded46","","1549","
                <div class=""stimulus-container"">
                    <img src=""images/instructions/movie_1.png"" class=""exp-image"">
                    <div class=""question-area"">
                        <p style=""font-size: 20px; font-weight: bold; margin: 0;"">Was there a person in this image?</p>
                    </div>
                </div>","0","example_question","1","","","","",""
"","","","","","html-keyboard-response","8","59651","0.0-8.0","0F422D39CFE04D82A0216F6934D5FBDE","019ce691-9175-711f-8d0b-c5d07a8619bb","019ce643-47c6-74a0-b3d2-7bf5651ded46","","null","
                <div class=""stimulus-container"">
                    <img src=""images/instructions/movie_2.png"" class=""exp-image"">
                    <div class=""question-area""></div> 
                </div>","null","","","","","","",""
"","","","","","html-button-response","9","60470","0.0-9.0","0F422D39CFE04D82A0216F6934D5FBDE","019ce691-9175-711f-8d0b-c5d07a8619bb","019ce643-47c6-74a0-b3d2-7bf5651ded46","","820","
                <div class=""stimulus-container"">
                    <img src=""images/instructions/movie_2.png"" class=""exp-image"">
                    <div class=""question-area"">
                        <p style=""font-size: 20px; font-weight: bold; margin: 0;"">Was there a person in this image?</p>
                    </div>
                </div>","0","example_question","2","","","","",""
"","","","","","html-keyboard-response","10","64471","0.0-10.0","0F422D39CFE04D82A0216F6934D5FBDE","019ce691-9175-711f-8d0b-c5d07a8619bb","019ce643-47c6-74a0-b3d2-7bf5651ded46","","null","
                <div class=""stimulus-container"">
                    <img src=""images/instructions/movie_3.png"" class=""exp-image"">
                    <div class=""question-area""></div> 
                </div>","null","","","","","","",""
"","","","","","html-button-response","11","65102","0.0-11.0","0F422D39CFE04D82A0216F6934D5FBDE","019ce691-9175-711f-8d0b-c5d07a8619bb","019ce643-47c6-74a0-b3d2-7bf5651ded46","","630","
                <div class=""stimulus-container"">
                    <img src=""images/instructions/movie_3.png"" class=""exp-image"">
                    <div class=""question-area"">
                        <p style=""font-size: 20px; font-weight: bold; margin: 0;"">Was there a person in this image?</p>
                    </div>
                </div>","0","example_question","3","","","","",""
"","","","","","html-keyboard-response","12","69104","0.0-12.0","0F422D39CFE04D82A0216F6934D5FBDE","019ce691-9175-711f-8d0b-c5d07a8619bb","019ce643-47c6-74a0-b3d2-7bf5651ded46","","null","
                <div class=""stimulus-container"">
                    <img src=""images/instructions/movie_4.png"" class=""exp-image"">
                    <div class=""question-area""></div> 
                </div>","null","","","","","","",""
"","","","","","html-button-response","13","69582","0.0-13.0","0F422D39CFE04D82A0216F6934D5FBDE","019ce691-9175-711f-8d0b-c5d07a8619bb","019ce643-47c6-74a0-b3d2-7bf5651ded46","","477","
                <div class=""stimulus-container"">
                    <img src=""images/instructions/movie_4.png"" class=""exp-image"">
                    <div class=""question-area"">
                        <p style=""font-size: 20px; font-weight: bold; margin: 0;"">Was there a person in this image?</p>
                    </div>
                </div>","0","example_question","4","","","","",""
"","","","","","instructions","14","71538","0.0-14.0","0F422D39CFE04D82A0216F6934D5FBDE","019ce691-9175-711f-8d0b-c5d07a8619bb","019ce643-47c6-74a0-b3d2-7bf5651ded46","[{""page_index"":0,""viewing_time"":1956}]","1956","","","","","","","","",""
"","","","","","html-keyboard-response","15","72542","0.0-15.0","0F422D39CFE04D82A0216F6934D5FBDE","019ce691-9175-711f-8d0b-c5d07a8619bb","019ce643-47c6-74a0-b3d2-7bf5651ded46","","null","<div style=""background-color: gray; width: 100vw; height: 100vh;""></div>","null","","","","","","",""
"","","","","","html-keyboard-response","16","77591","0.0-16.0","0F422D39CFE04D82A0216F6934D5FBDE","019ce691-9175-711f-8d0b-c5d07a8619bb","019ce643-47c6-74a0-b3d2-7bf5651ded46","","null","
                    <div class=""stimulus-container"">
                        <img src=""images/causal_sequence/museum_causal/museum_causal_1.png"" class=""exp-image"">
                        <div class=""question-area""></div> 
                    </div>","null","","","","","","",""
"","","","","","html-button-response","17","78553","0.0-17.0","0F422D39CFE04D82A0216F6934D5FBDE","019ce691-9175-711f-8d0b-c5d07a8619bb","019ce643-47c6-74a0-b3d2-7bf5651ded46","","962","
                    <div class=""stimulus-container"">
                        <img src=""images/causal_sequence/museum_causal/museum_causal_1.png"" class=""exp-image"">
                        <div class=""question-area"">
                            <p style=""font-size: 20px; font-weight: bold; margin: 0;"">Is there a person in this image?</p>
                        </div>
                    </div>","0","main_causal_task","1","museum_causal","","","",""
"","","","","","html-keyboard-response","18","83687","0.0-18.0","0F422D39CFE04D82A0216F6934D5FBDE","019ce691-9175-711f-8d0b-c5d07a8619bb","019ce643-47c6-74a0-b3d2-7bf5651ded46","","null","
                    <div class=""stimulus-container"">
                        <img src=""images/causal_sequence/museum_causal/museum_causal_2.png"" class=""exp-image"">
                        <div class=""question-area""></div> 
                    </div>","null","","","","","","",""
"","","","","","html-button-response","19","84541","0.0-19.0","0F422D39CFE04D82A0216F6934D5FBDE","019ce691-9175-711f-8d0b-c5d07a8619bb","019ce643-47c6-74a0-b3d2-7bf5651ded46","","854","
                    <div class=""stimulus-container"">
                        <img src=""images/causal_sequence/museum_causal/museum_causal_2.png"" class=""exp-image"">
                        <div class=""question-area"">
                            <p style=""font-size: 20px; font-weight: bold; margin: 0;"">Is there a person in this image?</p>
                        </div>
                    </div>","0","main_causal_task","2","museum_causal","","","",""
"","","","","","html-keyboard-response","20","89550","0.0-20.0","0F422D39CFE04D82A0216F6934D5FBDE","019ce691-9175-711f-8d0b-c5d07a8619bb","019ce643-47c6-74a0-b3d2-7bf5651ded46","","null","
                    <div class=""stimulus-container"">
                        <img src=""images/causal_sequence/museum_causal/museum_causal_3.png"" class=""exp-image"">
                        <div class=""question-area""></div> 
                    </div>","null","","","","","","",""
"","","","","","html-button-response","21","90009","0.0-21.0","0F422D39CFE04D82A0216F6934D5FBDE","019ce691-9175-711f-8d0b-c5d07a8619bb","019ce643-47c6-74a0-b3d2-7bf5651ded46","","459","
                    <div class=""stimulus-container"">
                        <img src=""images/causal_sequence/museum_causal/museum_causal_3.png"" class=""exp-image"">
                        <div class=""question-area"">
                            <p style=""font-size: 20px; font-weight: bold; margin: 0;"">Is there a person in this image?</p>
                        </div>
                    </div>","0","main_causal_task","3","museum_causal","","","",""
"","","","","","html-keyboard-response","22","95017","0.0-22.0","0F422D39CFE04D82A0216F6934D5FBDE","019ce691-9175-711f-8d0b-c5d07a8619bb","019ce643-47c6-74a0-b3d2-7bf5651ded46","","null","
                    <div class=""stimulus-container"">
                        <img src=""images/causal_sequence/museum_causal/museum_causal_4.png"" class=""exp-image"">
                        <div class=""question-area""></div> 
                    </div>","null","","","","","","",""
"","","","","","html-button-response","23","95853","0.0-23.0","0F422D39CFE04D82A0216F6934D5FBDE","019ce691-9175-711f-8d0b-c5d07a8619bb","019ce643-47c6-74a0-b3d2-7bf5651ded46","","836","
                    <div class=""stimulus-container"">
                        <img src=""images/causal_sequence/museum_causal/museum_causal_4.png"" class=""exp-image"">
                        <div class=""question-area"">
                            <p style=""font-size: 20px; font-weight: bold; margin: 0;"">Is there a person in this image?</p>
                        </div>
                    </div>","1","main_causal_task","4","museum_causal","","","",""
"","","","","","html-keyboard-response","24","101142","0.0-24.0","0F422D39CFE04D82A0216F6934D5FBDE","019ce691-9175-711f-8d0b-c5d07a8619bb","019ce643-47c6-74a0-b3d2-7bf5651ded46","","null","
                    <div class=""stimulus-container"">
                        <img src=""images/causal_sequence/museum_causal/museum_causal_5.png"" class=""exp-image"">
                        <div class=""question-area""></div> 
                    </div>","null","","","","","","",""
"","","","","","html-button-response","25","101845","0.0-25.0","0F422D39CFE04D82A0216F6934D5FBDE","019ce691-9175-711f-8d0b-c5d07a8619bb","019ce643-47c6-74a0-b3d2-7bf5651ded46","","702","
                    <div class=""stimulus-container"">
                        <img src=""images/causal_sequence/museum_causal/museum_causal_5.png"" class=""exp-image"">
                        <div class=""question-area"">
                            <p style=""font-size: 20px; font-weight: bold; margin: 0;"">Is there a person in this image?</p>
                        </div>
                    </div>","0","main_causal_task","5","museum_causal","","","",""
"","","","","","html-keyboard-response","26","107027","0.0-26.0","0F422D39CFE04D82A0216F6934D5FBDE","019ce691-9175-711f-8d0b-c5d07a8619bb","019ce643-47c6-74a0-b3d2-7bf5651ded46","","null","
                    <div class=""stimulus-container"">
                        <img src=""images/causal_sequence/museum_causal/museum_causal_6.png"" class=""exp-image"">
                        <div class=""question-area""></div> 
                    </div>","null","","","","","","",""
"","","","","","html-button-response","27","107497","0.0-27.0","0F422D39CFE04D82A0216F6934D5FBDE","019ce691-9175-711f-8d0b-c5d07a8619bb","019ce643-47c6-74a0-b3d2-7bf5651ded46","","469","
                    <div class=""stimulus-container"">
                        <img src=""images/causal_sequence/museum_causal/museum_causal_6.png"" class=""exp-image"">
                        <div class=""question-area"">
                            <p style=""font-size: 20px; font-weight: bold; margin: 0;"">Is there a person in this image?</p>
                        </div>
                    </div>","0","main_causal_task","6","museum_causal","","","",""
"","","","","","html-keyboard-response","28","112977","0.0-28.0","0F422D39CFE04D82A0216F6934D5FBDE","019ce691-9175-711f-8d0b-c5d07a8619bb","019ce643-47c6-74a0-b3d2-7bf5651ded46","","null","
                    <div class=""stimulus-container"">
                        <img src=""images/causal_sequence/museum_causal/museum_causal_7.png"" class=""exp-image"">
                        <div class=""question-area""></div> 
                    </div>","null","","","","","","",""
"","","","","","html-button-response","29","113633","0.0-29.0","0F422D39CFE04D82A0216F6934D5FBDE","019ce691-9175-711f-8d0b-c5d07a8619bb","019ce643-47c6-74a0-b3d2-7bf5651ded46","","656","
                    <div class=""stimulus-container"">
                        <img src=""images/causal_sequence/museum_causal/museum_causal_7.png"" class=""exp-image"">
                        <div class=""question-area"">
                            <p style=""font-size: 20px; font-weight: bold; margin: 0;"">Is there a person in this image?</p>
                        </div>
                    </div>","1","main_causal_task","7","museum_causal","","","",""
"","","","","","html-keyboard-response","30","118670","0.0-30.0","0F422D39CFE04D82A0216F6934D5FBDE","019ce691-9175-711f-8d0b-c5d07a8619bb","019ce643-47c6-74a0-b3d2-7bf5651ded46","","null","
                    <div class=""stimulus-container"">
                        <img src=""images/causal_sequence/museum_causal/museum_causal_8.png"" class=""exp-image"">
                        <div class=""question-area""></div> 
                    </div>","null","","","","","","",""
"","","","","","html-button-response","31","119401","0.0-31.0","0F422D39CFE04D82A0216F6934D5FBDE","019ce691-9175-711f-8d0b-c5d07a8619bb","019ce643-47c6-74a0-b3d2-7bf5651ded46","","731","
                    <div class=""stimulus-container"">
                        <img src=""images/causal_sequence/museum_causal/museum_causal_8.png"" class=""exp-image"">
                        <div class=""question-area"">
                            <p style=""font-size: 20px; font-weight: bold; margin: 0;"">Is there a person in this image?</p>
                        </div>
                    </div>","0","main_causal_task","8","museum_causal","","","",""
"","","","","","html-keyboard-response","32","124511","0.0-32.0","0F422D39CFE04D82A0216F6934D5FBDE","019ce691-9175-711f-8d0b-c5d07a8619bb","019ce643-47c6-74a0-b3d2-7bf5651ded46","","null","
                    <div class=""stimulus-container"">
                        <img src=""images/causal_sequence/museum_causal/museum_causal_9.png"" class=""exp-image"">
                        <div class=""question-area""></div> 
                    </div>","null","","","","","","",""
"","","","","","html-button-response","33","125532","0.0-33.0","0F422D39CFE04D82A0216F6934D5FBDE","019ce691-9175-711f-8d0b-c5d07a8619bb","019ce643-47c6-74a0-b3d2-7bf5651ded46","","1019","
                    <div class=""stimulus-container"">
                        <img src=""images/causal_sequence/museum_causal/museum_causal_9.png"" class=""exp-image"">
                        <div class=""question-area"">
                            <p style=""font-size: 20px; font-weight: bold; margin: 0;"">Is there a person in this image?</p>
                        </div>
                    </div>","1","main_causal_task","9","museum_causal","","","",""
"","","","","","html-keyboard-response","34","126540","0.0-34.0","0F422D39CFE04D82A0216F6934D5FBDE","019ce691-9175-711f-8d0b-c5d07a8619bb","019ce643-47c6-74a0-b3d2-7bf5651ded46","","null","<div style=""background-color: gray; width: 100vw; height: 100vh;""></div>","null","","","","","","",""
"","","","","","html-keyboard-response","35","131552","0.0-35.0","0F422D39CFE04D82A0216F6934D5FBDE","019ce691-9175-711f-8d0b-c5d07a8619bb","019ce643-47c6-74a0-b3d2-7bf5651ded46","","null","
                    <div class=""stimulus-container"">
                        <img src=""images/causal_sequence/dog_causal/dog_causal_1.png"" class=""exp-image"">
                        <div class=""question-area""></div> 
                    </div>","null","","","","","","",""
"","","","","","html-button-response","36","132472","0.0-36.0","0F422D39CFE04D82A0216F6934D5FBDE","019ce691-9175-711f-8d0b-c5d07a8619bb","019ce643-47c6-74a0-b3d2-7bf5651ded46","","921","
                    <div class=""stimulus-container"">
                        <img src=""images/causal_sequence/dog_causal/dog_causal_1.png"" class=""exp-image"">
                        <div class=""question-area"">
                            <p style=""font-size: 20px; font-weight: bold; margin: 0;"">Is there a person in this image?</p>
                        </div>
                    </div>","0","main_causal_task","1","dog_causal","","","",""
"","","","","","html-keyboard-response","37","137480","0.0-37.0","0F422D39CFE04D82A0216F6934D5FBDE","019ce691-9175-711f-8d0b-c5d07a8619bb","019ce643-47c6-74a0-b3d2-7bf5651ded46","","null","
                    <div class=""stimulus-container"">
                        <img src=""images/causal_sequence/dog_causal/dog_causal_2.png"" class=""exp-image"">
                        <div class=""question-area""></div> 
                    </div>","null","","","","","","",""
"","","","","","html-button-response","38","138048","0.0-38.0","0F422D39CFE04D82A0216F6934D5FBDE","019ce691-9175-711f-8d0b-c5d07a8619bb","019ce643-47c6-74a0-b3d2-7bf5651ded46","","566","
                    <div class=""stimulus-container"">
                        <img src=""images/causal_sequence/dog_causal/dog_causal_2.png"" class=""exp-image"">
                        <div class=""question-area"">
                            <p style=""font-size: 20px; font-weight: bold; margin: 0;"">Is there a person in this image?</p>
                        </div>
                    </div>","0","main_causal_task","2","dog_causal","","","",""
"","","","","","html-keyboard-response","39","143149","0.0-39.0","0F422D39CFE04D82A0216F6934D5FBDE","019ce691-9175-711f-8d0b-c5d07a8619bb","019ce643-47c6-74a0-b3d2-7bf5651ded46","","null","
                    <div class=""stimulus-container"">
                        <img src=""images/causal_sequence/dog_causal/dog_causal_3.png"" class=""exp-image"">
                        <div class=""question-area""></div> 
                    </div>","null","","","","","","",""
"","","","","","html-button-response","40","143636","0.0-40.0","0F422D39CFE04D82A0216F6934D5FBDE","019ce691-9175-711f-8d0b-c5d07a8619bb","019ce643-47c6-74a0-b3d2-7bf5651ded46","","486","
                    <div class=""stimulus-container"">
                        <img src=""images/causal_sequence/dog_causal/dog_causal_3.png"" class=""exp-image"">
                        <div class=""question-area"">
                            <p style=""font-size: 20px; font-weight: bold; margin: 0;"">Is there a person in this image?</p>
                        </div>
                    </div>","0","main_causal_task","3","dog_causal","","","",""
"","","","","","html-keyboard-response","41","148639","0.0-41.0","0F422D39CFE04D82A0216F6934D5FBDE","019ce691-9175-711f-8d0b-c5d07a8619bb","019ce643-47c6-74a0-b3d2-7bf5651ded46","","null","
                    <div class=""stimulus-container"">
                        <img src=""images/causal_sequence/dog_causal/dog_causal_4.png"" class=""exp-image"">
                        <div class=""question-area""></div> 
                    </div>","null","","","","","","",""
"","","","","","html-button-response","42","149111","0.0-42.0","0F422D39CFE04D82A0216F6934D5FBDE","019ce691-9175-711f-8d0b-c5d07a8619bb","019ce643-47c6-74a0-b3d2-7bf5651ded46","","472","
                    <div class=""stimulus-container"">
                        <img src=""images/causal_sequence/dog_causal/dog_causal_4.png"" class=""exp-image"">
                        <div class=""question-area"">
                            <p style=""font-size: 20px; font-weight: bold; margin: 0;"">Is there a person in this image?</p>
                        </div>
                    </div>","0","main_causal_task","4","dog_causal","","","",""
"","","","","","html-keyboard-response","43","154153","0.0-43.0","0F422D39CFE04D82A0216F6934D5FBDE","019ce691-9175-711f-8d0b-c5d07a8619bb","019ce643-47c6-74a0-b3d2-7bf5651ded46","","null","
                    <div class=""stimulus-container"">
                        <img src=""images/causal_sequence/dog_causal/dog_causal_5.png"" class=""exp-image"">
                        <div class=""question-area""></div> 
                    </div>","null","","","","","","",""
"","","","","","html-button-response","44","154676","0.0-44.0","0F422D39CFE04D82A0216F6934D5FBDE","019ce691-9175-711f-8d0b-c5d07a8619bb","019ce643-47c6-74a0-b3d2-7bf5651ded46","","522","
                    <div class=""stimulus-container"">
                        <img src=""images/causal_sequence/dog_causal/dog_causal_5.png"" class=""exp-image"">
                        <div class=""question-area"">
                            <p style=""font-size: 20px; font-weight: bold; margin: 0;"">Is there a person in this image?</p>
                        </div>
                    </div>","0","main_causal_task","5","dog_causal","","","",""
"","","","","","html-keyboard-response","45","159682","0.0-45.0","0F422D39CFE04D82A0216F6934D5FBDE","019ce691-9175-711f-8d0b-c5d07a8619bb","019ce643-47c6-74a0-b3d2-7bf5651ded46","","null","
                    <div class=""stimulus-container"">
                        <img src=""images/causal_sequence/dog_causal/dog_causal_6.png"" class=""exp-image"">
                        <div class=""question-area""></div> 
                    </div>","null","","","","","","",""
"","","","","","html-button-response","46","160796","0.0-46.0","0F422D39CFE04D82A0216F6934D5FBDE","019ce691-9175-711f-8d0b-c5d07a8619bb","019ce643-47c6-74a0-b3d2-7bf5651ded46","","1113","
                    <div class=""stimulus-container"">
                        <img src=""images/causal_sequence/dog_causal/dog_causal_6.png"" class=""exp-image"">
                        <div class=""question-area"">
                            <p style=""font-size: 20px; font-weight: bold; margin: 0;"">Is there a person in this image?</p>
                        </div>
                    </div>","0","main_causal_task","6","dog_causal","","","",""
"","","","","","html-keyboard-response","47","165905","0.0-47.0","0F422D39CFE04D82A0216F6934D5FBDE","019ce691-9175-711f-8d0b-c5d07a8619bb","019ce643-47c6-74a0-b3d2-7bf5651ded46","","null","
                    <div class=""stimulus-container"">
                        <img src=""images/causal_sequence/dog_causal/dog_causal_7.png"" class=""exp-image"">
                        <div class=""question-area""></div> 
                    </div>","null","","","","","","",""
"","","","","","html-button-response","48","167023","0.0-48.0","0F422D39CFE04D82A0216F6934D5FBDE","019ce691-9175-711f-8d0b-c5d07a8619bb","019ce643-47c6-74a0-b3d2-7bf5651ded46","","1118","
                    <div class=""stimulus-container"">
                        <img src=""images/causal_sequence/dog_causal/dog_causal_7.png"" class=""exp-image"">
                        <div class=""question-area"">
                            <p style=""font-size: 20px; font-weight: bold; margin: 0;"">Is there a person in this image?</p>
                        </div>
                    </div>","0","main_causal_task","7","dog_causal","","","",""
"","","","","","html-keyboard-response","49","172026","0.0-49.0","0F422D39CFE04D82A0216F6934D5FBDE","019ce691-9175-711f-8d0b-c5d07a8619bb","019ce643-47c6-74a0-b3d2-7bf5651ded46","","null","
                    <div class=""stimulus-container"">
                        <img src=""images/causal_sequence/dog_causal/dog_causal_8.png"" class=""exp-image"">
                        <div class=""question-area""></div> 
                    </div>","null","","","","","","",""
"","","","","","html-button-response","50","172719","0.0-50.0","0F422D39CFE04D82A0216F6934D5FBDE","019ce691-9175-711f-8d0b-c5d07a8619bb","019ce643-47c6-74a0-b3d2-7bf5651ded46","","693","
                    <div class=""stimulus-container"">
                        <img src=""images/causal_sequence/dog_causal/dog_causal_8.png"" class=""exp-image"">
                        <div class=""question-area"">
                            <p style=""font-size: 20px; font-weight: bold; margin: 0;"">Is there a person in this image?</p>
                        </div>
                    </div>","0","main_causal_task","8","dog_causal","","","",""
"","","","","","html-keyboard-response","51","177731","0.0-51.0","0F422D39CFE04D82A0216F6934D5FBDE","019ce691-9175-711f-8d0b-c5d07a8619bb","019ce643-47c6-74a0-b3d2-7bf5651ded46","","null","
                    <div class=""stimulus-container"">
                        <img src=""images/causal_sequence/dog_causal/dog_causal_9.png"" class=""exp-image"">
                        <div class=""question-area""></div> 
                    </div>","null","","","","","","",""
"","","","","","html-button-response","52","178272","0.0-52.0","0F422D39CFE04D82A0216F6934D5FBDE","019ce691-9175-711f-8d0b-c5d07a8619bb","019ce643-47c6-74a0-b3d2-7bf5651ded46","","540","
                    <div class=""stimulus-container"">
                        <img src=""images/causal_sequence/dog_causal/dog_causal_9.png"" class=""exp-image"">
                        <div class=""question-area"">
                            <p style=""font-size: 20px; font-weight: bold; margin: 0;"">Is there a person in this image?</p>
                        </div>
                    </div>","0","main_causal_task","9","dog_causal","","","",""
"","","","","","html-keyboard-response","53","179274","0.0-53.0","0F422D39CFE04D82A0216F6934D5FBDE","019ce691-9175-711f-8d0b-c5d07a8619bb","019ce643-47c6-74a0-b3d2-7bf5651ded46","","null","<div style=""background-color: gray; width: 100vw; height: 100vh;""></div>","null","","","","","","",""
"","","","","","html-keyboard-response","54","184283","0.0-54.0","0F422D39CFE04D82A0216F6934D5FBDE","019ce691-9175-711f-8d0b-c5d07a8619bb","019ce643-47c6-74a0-b3d2-7bf5651ded46","","null","
                    <div class=""stimulus-container"">
                        <img src=""images/causal_sequence/saving_a_cat_causal/saving_a_cat_causal_1.png"" class=""exp-image"">
                        <div class=""question-area""></div> 
                    </div>","null","","","","","","",""
"","","","","","html-button-response","55","184879","0.0-55.0","0F422D39CFE04D82A0216F6934D5FBDE","019ce691-9175-711f-8d0b-c5d07a8619bb","019ce643-47c6-74a0-b3d2-7bf5651ded46","","597","
                    <div class=""stimulus-container"">
                        <img src=""images/causal_sequence/saving_a_cat_causal/saving_a_cat_causal_1.png"" class=""exp-image"">
                        <div class=""question-area"">
                            <p style=""font-size: 20px; font-weight: bold; margin: 0;"">Is there a person in this image?</p>
                        </div>
                    </div>","0","main_causal_task","1","saving_a_cat_causal","","","",""
"","","","","","html-keyboard-response","56","189892","0.0-56.0","0F422D39CFE04D82A0216F6934D5FBDE","019ce691-9175-711f-8d0b-c5d07a8619bb","019ce643-47c6-74a0-b3d2-7bf5651ded46","","null","
                    <div class=""stimulus-container"">
                        <img src=""images/causal_sequence/saving_a_cat_causal/saving_a_cat_causal_2.png"" class=""exp-image"">
                        <div class=""question-area""></div> 
                    </div>","null","","","","","","",""
"","","","","","html-button-response","57","191018","0.0-57.0","0F422D39CFE04D82A0216F6934D5FBDE","019ce691-9175-711f-8d0b-c5d07a8619bb","019ce643-47c6-74a0-b3d2-7bf5651ded46","","1125","
                    <div class=""stimulus-container"">
                        <img src=""images/causal_sequence/saving_a_cat_causal/saving_a_cat_causal_2.png"" class=""exp-image"">
                        <div class=""question-area"">
                            <p style=""font-size: 20px; font-weight: bold; margin: 0;"">Is there a person in this image?</p>
                        </div>
                    </div>","1","main_causal_task","2","saving_a_cat_causal","","","",""
"","","","","","html-keyboard-response","58","196028","0.0-58.0","0F422D39CFE04D82A0216F6934D5FBDE","019ce691-9175-711f-8d0b-c5d07a8619bb","019ce643-47c6-74a0-b3d2-7bf5651ded46","","null","
                    <div class=""stimulus-container"">
                        <img src=""images/causal_sequence/saving_a_cat_causal/saving_a_cat_causal_3.png"" class=""exp-image"">
                        <div class=""question-area""></div> 
                    </div>","null","","","","","","",""
"","","","","","html-button-response","59","196527","0.0-59.0","0F422D39CFE04D82A0216F6934D5FBDE","019ce691-9175-711f-8d0b-c5d07a8619bb","019ce643-47c6-74a0-b3d2-7bf5651ded46","","499","
                    <div class=""stimulus-container"">
                        <img src=""images/causal_sequence/saving_a_cat_causal/saving_a_cat_causal_3.png"" class=""exp-image"">
                        <div class=""question-area"">
                            <p style=""font-size: 20px; font-weight: bold; margin: 0;"">Is there a person in this image?</p>
                        </div>
                    </div>","1","main_causal_task","3","saving_a_cat_causal","","","",""
"","","","","","html-keyboard-response","60","201923","0.0-60.0","0F422D39CFE04D82A0216F6934D5FBDE","019ce691-9175-711f-8d0b-c5d07a8619bb","019ce643-47c6-74a0-b3d2-7bf5651ded46","","null","
                    <div class=""stimulus-container"">
                        <img src=""images/causal_sequence/saving_a_cat_causal/saving_a_cat_causal_4.png"" class=""exp-image"">
                        <div class=""question-area""></div> 
                    </div>","null","","","","","","",""
"","","","","","html-button-response","61","202439","0.0-61.0","0F422D39CFE04D82A0216F6934D5FBDE","019ce691-9175-711f-8d0b-c5d07a8619bb","019ce643-47c6-74a0-b3d2-7bf5651ded46","","516","
                    <div class=""stimulus-container"">
                        <img src=""images/causal_sequence/saving_a_cat_causal/saving_a_cat_causal_4.png"" class=""exp-image"">
                        <div class=""question-area"">
                            <p style=""font-size: 20px; font-weight: bold; margin: 0;"">Is there a person in this image?</p>
                        </div>
                    </div>","0","main_causal_task","4","saving_a_cat_causal","","","",""
"","","","","","html-keyboard-response","62","207453","0.0-62.0","0F422D39CFE04D82A0216F6934D5FBDE","019ce691-9175-711f-8d0b-c5d07a8619bb","019ce643-47c6-74a0-b3d2-7bf5651ded46","","null","
                    <div class=""stimulus-container"">
                        <img src=""images/causal_sequence/saving_a_cat_causal/saving_a_cat_causal_5.png"" class=""exp-image"">
                        <div class=""question-area""></div> 
                    </div>","null","","","","","","",""
"","","","","","html-button-response","63","208098","0.0-63.0","0F422D39CFE04D82A0216F6934D5FBDE","019ce691-9175-711f-8d0b-c5d07a8619bb","019ce643-47c6-74a0-b3d2-7bf5651ded46","","644","
                    <div class=""stimulus-container"">
                        <img src=""images/causal_sequence/saving_a_cat_causal/saving_a_cat_causal_5.png"" class=""exp-image"">
                        <div class=""question-area"">
                            <p style=""font-size: 20px; font-weight: bold; margin: 0;"">Is there a person in this image?</p>
                        </div>
                    </div>","0","main_causal_task","5","saving_a_cat_causal","","","",""
"","","","","","html-keyboard-response","64","213110","0.0-64.0","0F422D39CFE04D82A0216F6934D5FBDE","019ce691-9175-711f-8d0b-c5d07a8619bb","019ce643-47c6-74a0-b3d2-7bf5651ded46","","null","
                    <div class=""stimulus-container"">
                        <img src=""images/causal_sequence/saving_a_cat_causal/saving_a_cat_causal_6.png"" class=""exp-image"">
                        <div class=""question-area""></div> 
                    </div>","null","","","","","","",""
"","","","","","html-button-response","65","213582","0.0-65.0","0F422D39CFE04D82A0216F6934D5FBDE","019ce691-9175-711f-8d0b-c5d07a8619bb","019ce643-47c6-74a0-b3d2-7bf5651ded46","","472","
                    <div class=""stimulus-container"">
                        <img src=""images/causal_sequence/saving_a_cat_causal/saving_a_cat_causal_6.png"" class=""exp-image"">
                        <div class=""question-area"">
                            <p style=""font-size: 20px; font-weight: bold; margin: 0;"">Is there a person in this image?</p>
                        </div>
                    </div>","0","main_causal_task","6","saving_a_cat_causal","","","",""
"","","","","","html-keyboard-response","66","218588","0.0-66.0","0F422D39CFE04D82A0216F6934D5FBDE","019ce691-9175-711f-8d0b-c5d07a8619bb","019ce643-47c6-74a0-b3d2-7bf5651ded46","","null","
                    <div class=""stimulus-container"">
                        <img src=""images/causal_sequence/saving_a_cat_causal/saving_a_cat_causal_7.png"" class=""exp-image"">
                        <div class=""question-area""></div> 
                    </div>","null","","","","","","",""
"","","","","","html-button-response","67","219851","0.0-67.0","0F422D39CFE04D82A0216F6934D5FBDE","019ce691-9175-711f-8d0b-c5d07a8619bb","019ce643-47c6-74a0-b3d2-7bf5651ded46","","1261","
                    <div class=""stimulus-container"">
                        <img src=""images/causal_sequence/saving_a_cat_causal/saving_a_cat_causal_7.png"" class=""exp-image"">
                        <div class=""question-area"">
                            <p style=""font-size: 20px; font-weight: bold; margin: 0;"">Is there a person in this image?</p>
                        </div>
                    </div>","0","main_causal_task","7","saving_a_cat_causal","","","",""
"","","","","","html-keyboard-response","68","224865","0.0-68.0","0F422D39CFE04D82A0216F6934D5FBDE","019ce691-9175-711f-8d0b-c5d07a8619bb","019ce643-47c6-74a0-b3d2-7bf5651ded46","","null","
                    <div class=""stimulus-container"">
                        <img src=""images/causal_sequence/saving_a_cat_causal/saving_a_cat_causal_8.png"" class=""exp-image"">
                        <div class=""question-area""></div> 
                    </div>","null","","","","","","",""
"","","","","","html-button-response","69","225643","0.0-69.0","0F422D39CFE04D82A0216F6934D5FBDE","019ce691-9175-711f-8d0b-c5d07a8619bb","019ce643-47c6-74a0-b3d2-7bf5651ded46","","778","
                    <div class=""stimulus-container"">
                        <img src=""images/causal_sequence/saving_a_cat_causal/saving_a_cat_causal_8.png"" class=""exp-image"">
                        <div class=""question-area"">
                            <p style=""font-size: 20px; font-weight: bold; margin: 0;"">Is there a person in this image?</p>
                        </div>
                    </div>","0","main_causal_task","8","saving_a_cat_causal","","","",""
"","","","","","html-keyboard-response","70","230652","0.0-70.0","0F422D39CFE04D82A0216F6934D5FBDE","019ce691-9175-711f-8d0b-c5d07a8619bb","019ce643-47c6-74a0-b3d2-7bf5651ded46","","null","
                    <div class=""stimulus-container"">
                        <img src=""images/causal_sequence/saving_a_cat_causal/saving_a_cat_causal_9.png"" class=""exp-image"">
                        <div class=""question-area""></div> 
                    </div>","null","","","","","","",""
"","","","","","html-button-response","71","231294","0.0-71.0","0F422D39CFE04D82A0216F6934D5FBDE","019ce691-9175-711f-8d0b-c5d07a8619bb","019ce643-47c6-74a0-b3d2-7bf5651ded46","","641","
                    <div class=""stimulus-container"">
                        <img src=""images/causal_sequence/saving_a_cat_causal/saving_a_cat_causal_9.png"" class=""exp-image"">
                        <div class=""question-area"">
                            <p style=""font-size: 20px; font-weight: bold; margin: 0;"">Is there a person in this image?</p>
                        </div>
                    </div>","0","main_causal_task","9","saving_a_cat_causal","","","",""
"","","","","","html-keyboard-response","72","232304","0.0-72.0","0F422D39CFE04D82A0216F6934D5FBDE","019ce691-9175-711f-8d0b-c5d07a8619bb","019ce643-47c6-74a0-b3d2-7bf5651ded46","","null","<div style=""background-color: gray; width: 100vw; height: 100vh;""></div>","null","","","","","","",""
"","","","","","html-keyboard-response","73","237307","0.0-73.0","0F422D39CFE04D82A0216F6934D5FBDE","019ce691-9175-711f-8d0b-c5d07a8619bb","019ce643-47c6-74a0-b3d2-7bf5651ded46","","null","
                    <div class=""stimulus-container"">
                        <img src=""images/causal_sequence/package_causal/package_causal_1.png"" class=""exp-image"">
                        <div class=""question-area""></div> 
                    </div>","null","","","","","","",""
"","","","","","html-button-response","74","237874","0.0-74.0","0F422D39CFE04D82A0216F6934D5FBDE","019ce691-9175-711f-8d0b-c5d07a8619bb","019ce643-47c6-74a0-b3d2-7bf5651ded46","","566","
                    <div class=""stimulus-container"">
                        <img src=""images/causal_sequence/package_causal/package_causal_1.png"" class=""exp-image"">
                        <div class=""question-area"">
                            <p style=""font-size: 20px; font-weight: bold; margin: 0;"">Is there a person in this image?</p>
                        </div>
                    </div>","0","main_causal_task","1","package_causal","","","",""
"","","","","","html-keyboard-response","75","242879","0.0-75.0","0F422D39CFE04D82A0216F6934D5FBDE","019ce691-9175-711f-8d0b-c5d07a8619bb","019ce643-47c6-74a0-b3d2-7bf5651ded46","","null","
                    <div class=""stimulus-container"">
                        <img src=""images/causal_sequence/package_causal/package_causal_2.png"" class=""exp-image"">
                        <div class=""question-area""></div> 
                    </div>","null","","","","","","",""
"","","","","","html-button-response","76","243442","0.0-76.0","0F422D39CFE04D82A0216F6934D5FBDE","019ce691-9175-711f-8d0b-c5d07a8619bb","019ce643-47c6-74a0-b3d2-7bf5651ded46","","562","
                    <div class=""stimulus-container"">
                        <img src=""images/causal_sequence/package_causal/package_causal_2.png"" class=""exp-image"">
                        <div class=""question-area"">
                            <p style=""font-size: 20px; font-weight: bold; margin: 0;"">Is there a person in this image?</p>
                        </div>
                    </div>","0","main_causal_task","2","package_causal","","","",""
"","","","","","html-keyboard-response","77","248452","0.0-77.0","0F422D39CFE04D82A0216F6934D5FBDE","019ce691-9175-711f-8d0b-c5d07a8619bb","019ce643-47c6-74a0-b3d2-7bf5651ded46","","null","
                    <div class=""stimulus-container"">
                        <img src=""images/causal_sequence/package_causal/package_causal_3.png"" class=""exp-image"">
                        <div class=""question-area""></div> 
                    </div>","null","","","","","","",""
"","","","","","html-button-response","78","248954","0.0-78.0","0F422D39CFE04D82A0216F6934D5FBDE","019ce691-9175-711f-8d0b-c5d07a8619bb","019ce643-47c6-74a0-b3d2-7bf5651ded46","","501","
                    <div class=""stimulus-container"">
                        <img src=""images/causal_sequence/package_causal/package_causal_3.png"" class=""exp-image"">
                        <div class=""question-area"">
                            <p style=""font-size: 20px; font-weight: bold; margin: 0;"">Is there a person in this image?</p>
                        </div>
                    </div>","0","main_causal_task","3","package_causal","","","",""
"","","","","","html-keyboard-response","79","254235","0.0-79.0","0F422D39CFE04D82A0216F6934D5FBDE","019ce691-9175-711f-8d0b-c5d07a8619bb","019ce643-47c6-74a0-b3d2-7bf5651ded46","","null","
                    <div class=""stimulus-container"">
                        <img src=""images/causal_sequence/package_causal/package_causal_4.png"" class=""exp-image"">
                        <div class=""question-area""></div> 
                    </div>","null","","","","","","",""
"","","","","","html-button-response","80","254822","0.0-80.0","0F422D39CFE04D82A0216F6934D5FBDE","019ce691-9175-711f-8d0b-c5d07a8619bb","019ce643-47c6-74a0-b3d2-7bf5651ded46","","586","
                    <div class=""stimulus-container"">
                        <img src=""images/causal_sequence/package_causal/package_causal_4.png"" class=""exp-image"">
                        <div class=""question-area"">
                            <p style=""font-size: 20px; font-weight: bold; margin: 0;"">Is there a person in this image?</p>
                        </div>
                    </div>","1","main_causal_task","4","package_causal","","","",""
"","","","","","html-keyboard-response","81","259981","0.0-81.0","0F422D39CFE04D82A0216F6934D5FBDE","019ce691-9175-711f-8d0b-c5d07a8619bb","019ce643-47c6-74a0-b3d2-7bf5651ded46","","null","
                    <div class=""stimulus-container"">
                        <img src=""images/causal_sequence/package_causal/package_causal_5.png"" class=""exp-image"">
                        <div class=""question-area""></div> 
                    </div>","null","","","","","","",""
"","","","","","html-button-response","82","260493","0.0-82.0","0F422D39CFE04D82A0216F6934D5FBDE","019ce691-9175-711f-8d0b-c5d07a8619bb","019ce643-47c6-74a0-b3d2-7bf5651ded46","","512","
                    <div class=""stimulus-container"">
                        <img src=""images/causal_sequence/package_causal/package_causal_5.png"" class=""exp-image"">
                        <div class=""question-area"">
                            <p style=""font-size: 20px; font-weight: bold; margin: 0;"">Is there a person in this image?</p>
                        </div>
                    </div>","0","main_causal_task","5","package_causal","","","",""
"","","","","","html-keyboard-response","83","265702","0.0-83.0","0F422D39CFE04D82A0216F6934D5FBDE","019ce691-9175-711f-8d0b-c5d07a8619bb","019ce643-47c6-74a0-b3d2-7bf5651ded46","","null","
                    <div class=""stimulus-container"">
                        <img src=""images/causal_sequence/package_causal/package_causal_6.png"" class=""exp-image"">
                        <div class=""question-area""></div> 
                    </div>","null","","","","","","",""
"","","","","","html-button-response","84","266849","0.0-84.0","0F422D39CFE04D82A0216F6934D5FBDE","019ce691-9175-711f-8d0b-c5d07a8619bb","019ce643-47c6-74a0-b3d2-7bf5651ded46","","1146","
                    <div class=""stimulus-container"">
                        <img src=""images/causal_sequence/package_causal/package_causal_6.png"" class=""exp-image"">
                        <div class=""question-area"">
                            <p style=""font-size: 20px; font-weight: bold; margin: 0;"">Is there a person in this image?</p>
                        </div>
                    </div>","0","main_causal_task","6","package_causal","","","",""
"","","","","","html-keyboard-response","85","271865","0.0-85.0","0F422D39CFE04D82A0216F6934D5FBDE","019ce691-9175-711f-8d0b-c5d07a8619bb","019ce643-47c6-74a0-b3d2-7bf5651ded46","","null","
                    <div class=""stimulus-container"">
                        <img src=""images/causal_sequence/package_causal/package_causal_7.png"" class=""exp-image"">
                        <div class=""question-area""></div> 
                    </div>","null","","","","","","",""
"","","","","","html-button-response","86","272522","0.0-86.0","0F422D39CFE04D82A0216F6934D5FBDE","019ce691-9175-711f-8d0b-c5d07a8619bb","019ce643-47c6-74a0-b3d2-7bf5651ded46","","657","
                    <div class=""stimulus-container"">
                        <img src=""images/causal_sequence/package_causal/package_causal_7.png"" class=""exp-image"">
                        <div class=""question-area"">
                            <p style=""font-size: 20px; font-weight: bold; margin: 0;"">Is there a person in this image?</p>
                        </div>
                    </div>","0","main_causal_task","7","package_causal","","","",""
"","","","","","html-keyboard-response","87","277534","0.0-87.0","0F422D39CFE04D82A0216F6934D5FBDE","019ce691-9175-711f-8d0b-c5d07a8619bb","019ce643-47c6-74a0-b3d2-7bf5651ded46","","null","
                    <div class=""stimulus-container"">
                        <img src=""images/causal_sequence/package_causal/package_causal_8.png"" class=""exp-image"">
                        <div class=""question-area""></div> 
                    </div>","null","","","","","","",""
"","","","","","html-button-response","88","278221","0.0-88.0","0F422D39CFE04D82A0216F6934D5FBDE","019ce691-9175-711f-8d0b-c5d07a8619bb","019ce643-47c6-74a0-b3d2-7bf5651ded46","","686","
                    <div class=""stimulus-container"">
                        <img src=""images/causal_sequence/package_causal/package_causal_8.png"" class=""exp-image"">
                        <div class=""question-area"">
                            <p style=""font-size: 20px; font-weight: bold; margin: 0;"">Is there a person in this image?</p>
                        </div>
                    </div>","0","main_causal_task","8","package_causal","","","",""
"","","","","","html-keyboard-response","89","283232","0.0-89.0","0F422D39CFE04D82A0216F6934D5FBDE","019ce691-9175-711f-8d0b-c5d07a8619bb","019ce643-47c6-74a0-b3d2-7bf5651ded46","","null","
                    <div class=""stimulus-container"">
                        <img src=""images/causal_sequence/package_causal/package_causal_9.png"" class=""exp-image"">
                        <div class=""question-area""></div> 
                    </div>","null","","","","","","",""
"","","","","","html-button-response","90","283789","0.0-90.0","0F422D39CFE04D82A0216F6934D5FBDE","019ce691-9175-711f-8d0b-c5d07a8619bb","019ce643-47c6-74a0-b3d2-7bf5651ded46","","557","
                    <div class=""stimulus-container"">
                        <img src=""images/causal_sequence/package_causal/package_causal_9.png"" class=""exp-image"">
                        <div class=""question-area"">
                            <p style=""font-size: 20px; font-weight: bold; margin: 0;"">Is there a person in this image?</p>
                        </div>
                    </div>","0","main_causal_task","9","package_causal","","","",""
"","","","","","html-keyboard-response","91","284805","0.0-91.0","0F422D39CFE04D82A0216F6934D5FBDE","019ce691-9175-711f-8d0b-c5d07a8619bb","019ce643-47c6-74a0-b3d2-7bf5651ded46","","null","<div style=""background-color: gray; width: 100vw; height: 100vh;""></div>","null","","","","","","",""
"","","","","","html-keyboard-response","92","289819","0.0-92.0","0F422D39CFE04D82A0216F6934D5FBDE","019ce691-9175-711f-8d0b-c5d07a8619bb","019ce643-47c6-74a0-b3d2-7bf5651ded46","","null","
                    <div class=""stimulus-container"">
                        <img src=""images/causal_sequence/the_performance_causal/the_performance_causal_1.png"" class=""exp-image"">
                        <div class=""question-area""></div> 
                    </div>","null","","","","","","",""
"","","","","","html-button-response","93","290357","0.0-93.0","0F422D39CFE04D82A0216F6934D5FBDE","019ce691-9175-711f-8d0b-c5d07a8619bb","019ce643-47c6-74a0-b3d2-7bf5651ded46","","538","
                    <div class=""stimulus-container"">
                        <img src=""images/causal_sequence/the_performance_causal/the_performance_causal_1.png"" class=""exp-image"">
                        <div class=""question-area"">
                            <p style=""font-size: 20px; font-weight: bold; margin: 0;"">Is there a person in this image?</p>
                        </div>
                    </div>","0","main_causal_task","1","the_performance_causal","","","",""
"","","","","","html-keyboard-response","94","295369","0.0-94.0","0F422D39CFE04D82A0216F6934D5FBDE","019ce691-9175-711f-8d0b-c5d07a8619bb","019ce643-47c6-74a0-b3d2-7bf5651ded46","","null","
                    <div class=""stimulus-container"">
                        <img src=""images/causal_sequence/the_performance_causal/the_performance_causal_2.png"" class=""exp-image"">
                        <div class=""question-area""></div> 
                    </div>","null","","","","","","",""
"","","","","","html-button-response","95","296029","0.0-95.0","0F422D39CFE04D82A0216F6934D5FBDE","019ce691-9175-711f-8d0b-c5d07a8619bb","019ce643-47c6-74a0-b3d2-7bf5651ded46","","660","
                    <div class=""stimulus-container"">
                        <img src=""images/causal_sequence/the_performance_causal/the_performance_causal_2.png"" class=""exp-image"">
                        <div class=""question-area"">
                            <p style=""font-size: 20px; font-weight: bold; margin: 0;"">Is there a person in this image?</p>
                        </div>
                    </div>","0","main_causal_task","2","the_performance_causal","","","",""
"","","","","","html-keyboard-response","96","301039","0.0-96.0","0F422D39CFE04D82A0216F6934D5FBDE","019ce691-9175-711f-8d0b-c5d07a8619bb","019ce643-47c6-74a0-b3d2-7bf5651ded46","","null","
                    <div class=""stimulus-container"">
                        <img src=""images/causal_sequence/the_performance_causal/the_performance_causal_3.png"" class=""exp-image"">
                        <div class=""question-area""></div> 
                    </div>","null","","","","","","",""
"","","","","","html-button-response","97","301708","0.0-97.0","0F422D39CFE04D82A0216F6934D5FBDE","019ce691-9175-711f-8d0b-c5d07a8619bb","019ce643-47c6-74a0-b3d2-7bf5651ded46","","669","
                    <div class=""stimulus-container"">
                        <img src=""images/causal_sequence/the_performance_causal/the_performance_causal_3.png"" class=""exp-image"">
                        <div class=""question-area"">
                            <p style=""font-size: 20px; font-weight: bold; margin: 0;"">Is there a person in this image?</p>
                        </div>
                    </div>","0","main_causal_task","3","the_performance_causal","","","",""
"","","","","","html-keyboard-response","98","306709","0.0-98.0","0F422D39CFE04D82A0216F6934D5FBDE","019ce691-9175-711f-8d0b-c5d07a8619bb","019ce643-47c6-74a0-b3d2-7bf5651ded46","","null","
                    <div class=""stimulus-container"">
                        <img src=""images/causal_sequence/the_performance_causal/the_performance_causal_4.png"" class=""exp-image"">
                        <div class=""question-area""></div> 
                    </div>","null","","","","","","",""
"","","","","","html-button-response","99","307641","0.0-99.0","0F422D39CFE04D82A0216F6934D5FBDE","019ce691-9175-711f-8d0b-c5d07a8619bb","019ce643-47c6-74a0-b3d2-7bf5651ded46","","931","
                    <div class=""stimulus-container"">
                        <img src=""images/causal_sequence/the_performance_causal/the_performance_causal_4.png"" class=""exp-image"">
                        <div class=""question-area"">
                            <p style=""font-size: 20px; font-weight: bold; margin: 0;"">Is there a person in this image?</p>
                        </div>
                    </div>","0","main_causal_task","4","the_performance_causal","","","",""
"","","","","","html-keyboard-response","100","312645","0.0-100.0","0F422D39CFE04D82A0216F6934D5FBDE","019ce691-9175-711f-8d0b-c5d07a8619bb","019ce643-47c6-74a0-b3d2-7bf5651ded46","","null","
                    <div class=""stimulus-container"">
                        <img src=""images/causal_sequence/the_performance_causal/the_performance_causal_5.png"" class=""exp-image"">
                        <div class=""question-area""></div> 
                    </div>","null","","","","","","",""
"","","","","","html-button-response","101","313344","0.0-101.0","0F422D39CFE04D82A0216F6934D5FBDE","019ce691-9175-711f-8d0b-c5d07a8619bb","019ce643-47c6-74a0-b3d2-7bf5651ded46","","699","
                    <div class=""stimulus-container"">
                        <img src=""images/causal_sequence/the_performance_causal/the_performance_causal_5.png"" class=""exp-image"">
                        <div class=""question-area"">
                            <p style=""font-size: 20px; font-weight: bold; margin: 0;"">Is there a person in this image?</p>
                        </div>
                    </div>","0","main_causal_task","5","the_performance_causal","","","",""
"","","","","","html-keyboard-response","102","318730","0.0-102.0","0F422D39CFE04D82A0216F6934D5FBDE","019ce691-9175-711f-8d0b-c5d07a8619bb","019ce643-47c6-74a0-b3d2-7bf5651ded46","","null","
                    <div class=""stimulus-container"">
                        <img src=""images/causal_sequence/the_performance_causal/the_performance_causal_6.png"" class=""exp-image"">
                        <div class=""question-area""></div> 
                    </div>","null","","","","","","",""
"","","","","","html-button-response","103","319864","0.0-103.0","0F422D39CFE04D82A0216F6934D5FBDE","019ce691-9175-711f-8d0b-c5d07a8619bb","019ce643-47c6-74a0-b3d2-7bf5651ded46","","1133","
                    <div class=""stimulus-container"">
                        <img src=""images/causal_sequence/the_performance_causal/the_performance_causal_6.png"" class=""exp-image"">
                        <div class=""question-area"">
                            <p style=""font-size: 20px; font-weight: bold; margin: 0;"">Is there a person in this image?</p>
                        </div>
                    </div>","0","main_causal_task","6","the_performance_causal","","","",""
"","","","","","html-keyboard-response","104","324865","0.0-104.0","0F422D39CFE04D82A0216F6934D5FBDE","019ce691-9175-711f-8d0b-c5d07a8619bb","019ce643-47c6-74a0-b3d2-7bf5651ded46","","null","
                    <div class=""stimulus-container"">
                        <img src=""images/causal_sequence/the_performance_causal/the_performance_causal_7.png"" class=""exp-image"">
                        <div class=""question-area""></div> 
                    </div>","null","","","","","","",""
"","","","","","html-button-response","105","325588","0.0-105.0","0F422D39CFE04D82A0216F6934D5FBDE","019ce691-9175-711f-8d0b-c5d07a8619bb","019ce643-47c6-74a0-b3d2-7bf5651ded46","","722","
                    <div class=""stimulus-container"">
                        <img src=""images/causal_sequence/the_performance_causal/the_performance_causal_7.png"" class=""exp-image"">
                        <div class=""question-area"">
                            <p style=""font-size: 20px; font-weight: bold; margin: 0;"">Is there a person in this image?</p>
                        </div>
                    </div>","0","main_causal_task","7","the_performance_causal","","","",""
"","","","","","html-keyboard-response","106","330589","0.0-106.0","0F422D39CFE04D82A0216F6934D5FBDE","019ce691-9175-711f-8d0b-c5d07a8619bb","019ce643-47c6-74a0-b3d2-7bf5651ded46","","null","
                    <div class=""stimulus-container"">
                        <img src=""images/causal_sequence/the_performance_causal/the_performance_causal_8.png"" class=""exp-image"">
                        <div class=""question-area""></div> 
                    </div>","null","","","","","","",""
"","","","","","html-button-response","107","331236","0.0-107.0","0F422D39CFE04D82A0216F6934D5FBDE","019ce691-9175-711f-8d0b-c5d07a8619bb","019ce643-47c6-74a0-b3d2-7bf5651ded46","","647","
                    <div class=""stimulus-container"">
                        <img src=""images/causal_sequence/the_performance_causal/the_performance_causal_8.png"" class=""exp-image"">
                        <div class=""question-area"">
                            <p style=""font-size: 20px; font-weight: bold; margin: 0;"">Is there a person in this image?</p>
                        </div>
                    </div>","0","main_causal_task","8","the_performance_causal","","","",""
"","","","","","html-keyboard-response","108","336238","0.0-108.0","0F422D39CFE04D82A0216F6934D5FBDE","019ce691-9175-711f-8d0b-c5d07a8619bb","019ce643-47c6-74a0-b3d2-7bf5651ded46","","null","
                    <div class=""stimulus-container"">
                        <img src=""images/causal_sequence/the_performance_causal/the_performance_causal_9.png"" class=""exp-image"">
                        <div class=""question-area""></div> 
                    </div>","null","","","","","","",""
"","","","","","html-button-response","109","336792","0.0-109.0","0F422D39CFE04D82A0216F6934D5FBDE","019ce691-9175-711f-8d0b-c5d07a8619bb","019ce643-47c6-74a0-b3d2-7bf5651ded46","","553","
                    <div class=""stimulus-container"">
                        <img src=""images/causal_sequence/the_performance_causal/the_performance_causal_9.png"" class=""exp-image"">
                        <div class=""question-area"">
                            <p style=""font-size: 20px; font-weight: bold; margin: 0;"">Is there a person in this image?</p>
                        </div>
                    </div>","0","main_causal_task","9","the_performance_causal","","","",""
"","","","","","html-keyboard-response","110","337800","0.0-110.0","0F422D39CFE04D82A0216F6934D5FBDE","019ce691-9175-711f-8d0b-c5d07a8619bb","019ce643-47c6-74a0-b3d2-7bf5651ded46","","null","<div style=""background-color: gray; width: 100vw; height: 100vh;""></div>","null","","","","","","",""
"","","","","","html-keyboard-response","111","342812","0.0-111.0","0F422D39CFE04D82A0216F6934D5FBDE","019ce691-9175-711f-8d0b-c5d07a8619bb","019ce643-47c6-74a0-b3d2-7bf5651ded46","","null","
                    <div class=""stimulus-container"">
                        <img src=""images/causal_sequence/coin_causal/coin_causal_1.png"" class=""exp-image"">
                        <div class=""question-area""></div> 
                    </div>","null","","","","","","",""
"","","","","","html-button-response","112","343532","0.0-112.0","0F422D39CFE04D82A0216F6934D5FBDE","019ce691-9175-711f-8d0b-c5d07a8619bb","019ce643-47c6-74a0-b3d2-7bf5651ded46","","719","
                    <div class=""stimulus-container"">
                        <img src=""images/causal_sequence/coin_causal/coin_causal_1.png"" class=""exp-image"">
                        <div class=""question-area"">
                            <p style=""font-size: 20px; font-weight: bold; margin: 0;"">Is there a person in this image?</p>
                        </div>
                    </div>","0","main_causal_task","1","coin_causal","","","",""
"","","","","","html-keyboard-response","113","348912","0.0-113.0","0F422D39CFE04D82A0216F6934D5FBDE","019ce691-9175-711f-8d0b-c5d07a8619bb","019ce643-47c6-74a0-b3d2-7bf5651ded46","","null","
                    <div class=""stimulus-container"">
                        <img src=""images/causal_sequence/coin_causal/coin_causal_2.png"" class=""exp-image"">
                        <div class=""question-area""></div> 
                    </div>","null","","","","","","",""
"","","","","","html-button-response","114","349712","0.0-114.0","0F422D39CFE04D82A0216F6934D5FBDE","019ce691-9175-711f-8d0b-c5d07a8619bb","019ce643-47c6-74a0-b3d2-7bf5651ded46","","801","
                    <div class=""stimulus-container"">
                        <img src=""images/causal_sequence/coin_causal/coin_causal_2.png"" class=""exp-image"">
                        <div class=""question-area"">
                            <p style=""font-size: 20px; font-weight: bold; margin: 0;"">Is there a person in this image?</p>
                        </div>
                    </div>","0","main_causal_task","2","coin_causal","","","",""
"","","","","","html-keyboard-response","115","354725","0.0-115.0","0F422D39CFE04D82A0216F6934D5FBDE","019ce691-9175-711f-8d0b-c5d07a8619bb","019ce643-47c6-74a0-b3d2-7bf5651ded46","","null","
                    <div class=""stimulus-container"">
                        <img src=""images/causal_sequence/coin_causal/coin_causal_3.png"" class=""exp-image"">
                        <div class=""question-area""></div> 
                    </div>","null","","","","","","",""
"","","","","","html-button-response","116","355367","0.0-116.0","0F422D39CFE04D82A0216F6934D5FBDE","019ce691-9175-711f-8d0b-c5d07a8619bb","019ce643-47c6-74a0-b3d2-7bf5651ded46","","643","
                    <div class=""stimulus-container"">
                        <img src=""images/causal_sequence/coin_causal/coin_causal_3.png"" class=""exp-image"">
                        <div class=""question-area"">
                            <p style=""font-size: 20px; font-weight: bold; margin: 0;"">Is there a person in this image?</p>
                        </div>
                    </div>","0","main_causal_task","3","coin_causal","","","",""
"","","","","","html-keyboard-response","117","360371","0.0-117.0","0F422D39CFE04D82A0216F6934D5FBDE","019ce691-9175-711f-8d0b-c5d07a8619bb","019ce643-47c6-74a0-b3d2-7bf5651ded46","","null","
                    <div class=""stimulus-container"">
                        <img src=""images/causal_sequence/coin_causal/coin_causal_4.png"" class=""exp-image"">
                        <div class=""question-area""></div> 
                    </div>","null","","","","","","",""
"","","","","","html-button-response","118","360862","0.0-118.0","0F422D39CFE04D82A0216F6934D5FBDE","019ce691-9175-711f-8d0b-c5d07a8619bb","019ce643-47c6-74a0-b3d2-7bf5651ded46","","491","
                    <div class=""stimulus-container"">
                        <img src=""images/causal_sequence/coin_causal/coin_causal_4.png"" class=""exp-image"">
                        <div class=""question-area"">
                            <p style=""font-size: 20px; font-weight: bold; margin: 0;"">Is there a person in this image?</p>
                        </div>
                    </div>","0","main_causal_task","4","coin_causal","","","",""
"","","","","","html-keyboard-response","119","365863","0.0-119.0","0F422D39CFE04D82A0216F6934D5FBDE","019ce691-9175-711f-8d0b-c5d07a8619bb","019ce643-47c6-74a0-b3d2-7bf5651ded46","","null","
                    <div class=""stimulus-container"">
                        <img src=""images/causal_sequence/coin_causal/coin_causal_5.png"" class=""exp-image"">
                        <div class=""question-area""></div> 
                    </div>","null","","","","","","",""
"","","","","","html-button-response","120","366435","0.0-120.0","0F422D39CFE04D82A0216F6934D5FBDE","019ce691-9175-711f-8d0b-c5d07a8619bb","019ce643-47c6-74a0-b3d2-7bf5651ded46","","571","
                    <div class=""stimulus-container"">
                        <img src=""images/causal_sequence/coin_causal/coin_causal_5.png"" class=""exp-image"">
                        <div class=""question-area"">
                            <p style=""font-size: 20px; font-weight: bold; margin: 0;"">Is there a person in this image?</p>
                        </div>
                    </div>","0","main_causal_task","5","coin_causal","","","",""
"","","","","","html-keyboard-response","121","371442","0.0-121.0","0F422D39CFE04D82A0216F6934D5FBDE","019ce691-9175-711f-8d0b-c5d07a8619bb","019ce643-47c6-74a0-b3d2-7bf5651ded46","","null","
                    <div class=""stimulus-container"">
                        <img src=""images/causal_sequence/coin_causal/coin_causal_6.png"" class=""exp-image"">
                        <div class=""question-area""></div> 
                    </div>","null","","","","","","",""
"","","","","","html-button-response","122","371932","0.0-122.0","0F422D39CFE04D82A0216F6934D5FBDE","019ce691-9175-711f-8d0b-c5d07a8619bb","019ce643-47c6-74a0-b3d2-7bf5651ded46","","489","
                    <div class=""stimulus-container"">
                        <img src=""images/causal_sequence/coin_causal/coin_causal_6.png"" class=""exp-image"">
                        <div class=""question-area"">
                            <p style=""font-size: 20px; font-weight: bold; margin: 0;"">Is there a person in this image?</p>
                        </div>
                    </div>","0","main_causal_task","6","coin_causal","","","",""
"","","","","","html-keyboard-response","123","376941","0.0-123.0","0F422D39CFE04D82A0216F6934D5FBDE","019ce691-9175-711f-8d0b-c5d07a8619bb","019ce643-47c6-74a0-b3d2-7bf5651ded46","","null","
                    <div class=""stimulus-container"">
                        <img src=""images/causal_sequence/coin_causal/coin_causal_7.png"" class=""exp-image"">
                        <div class=""question-area""></div> 
                    </div>","null","","","","","","",""
"","","","","","html-button-response","124","377504","0.0-124.0","0F422D39CFE04D82A0216F6934D5FBDE","019ce691-9175-711f-8d0b-c5d07a8619bb","019ce643-47c6-74a0-b3d2-7bf5651ded46","","562","
                    <div class=""stimulus-container"">
                        <img src=""images/causal_sequence/coin_causal/coin_causal_7.png"" class=""exp-image"">
                        <div class=""question-area"">
                            <p style=""font-size: 20px; font-weight: bold; margin: 0;"">Is there a person in this image?</p>
                        </div>
                    </div>","1","main_causal_task","7","coin_causal","","","",""
"","","","","","html-keyboard-response","125","382508","0.0-125.0","0F422D39CFE04D82A0216F6934D5FBDE","019ce691-9175-711f-8d0b-c5d07a8619bb","019ce643-47c6-74a0-b3d2-7bf5651ded46","","null","
                    <div class=""stimulus-container"">
                        <img src=""images/causal_sequence/coin_causal/coin_causal_8.png"" class=""exp-image"">
                        <div class=""question-area""></div> 
                    </div>","null","","","","","","",""
"","","","","","html-button-response","126","383511","0.0-126.0","0F422D39CFE04D82A0216F6934D5FBDE","019ce691-9175-711f-8d0b-c5d07a8619bb","019ce643-47c6-74a0-b3d2-7bf5651ded46","","1002","
                    <div class=""stimulus-container"">
                        <img src=""images/causal_sequence/coin_causal/coin_causal_8.png"" class=""exp-image"">
                        <div class=""question-area"">
                            <p style=""font-size: 20px; font-weight: bold; margin: 0;"">Is there a person in this image?</p>
                        </div>
                    </div>","0","main_causal_task","8","coin_causal","","","",""
"","","","","","html-keyboard-response","127","388730","0.0-127.0","0F422D39CFE04D82A0216F6934D5FBDE","019ce691-9175-711f-8d0b-c5d07a8619bb","019ce643-47c6-74a0-b3d2-7bf5651ded46","","null","
                    <div class=""stimulus-container"">
                        <img src=""images/causal_sequence/coin_causal/coin_causal_9.png"" class=""exp-image"">
                        <div class=""question-area""></div> 
                    </div>","null","","","","","","",""
"","","","","","html-button-response","128","389187","0.0-128.0","0F422D39CFE04D82A0216F6934D5FBDE","019ce691-9175-711f-8d0b-c5d07a8619bb","019ce643-47c6-74a0-b3d2-7bf5651ded46","","457","
                    <div class=""stimulus-container"">
                        <img src=""images/causal_sequence/coin_causal/coin_causal_9.png"" class=""exp-image"">
                        <div class=""question-area"">
                            <p style=""font-size: 20px; font-weight: bold; margin: 0;"">Is there a person in this image?</p>
                        </div>
                    </div>","0","main_causal_task","9","coin_causal","","","",""
"","","","","","instructions","129","390870","0.0-129.0","0F422D39CFE04D82A0216F6934D5FBDE","019ce691-9175-711f-8d0b-c5d07a8619bb","019ce643-47c6-74a0-b3d2-7bf5651ded46","[{""page_index"":0,""viewing_time"":1683}]","1683","","","","","","","","",""
"","","","","","instructions","130","396862","0.0-130.0","0F422D39CFE04D82A0216F6934D5FBDE","019ce691-9175-711f-8d0b-c5d07a8619bb","019ce643-47c6-74a0-b3d2-7bf5651ded46","[{""page_index"":0,""viewing_time"":5991}]","5991","","","","","","","","",""
"","","","","","html-keyboard-response","131","397878","0.0-131.0","0F422D39CFE04D82A0216F6934D5FBDE","019ce691-9175-711f-8d0b-c5d07a8619bb","019ce643-47c6-74a0-b3d2-7bf5651ded46","","null","
        <div class=""stimulus-container"" style=""display: flex; align-items: center; justify-content: center; gap: 30px;"">
            <img src=""images/instructions/movie_1.png"" class=""exp-image"">
            <div style=""font-size: 40px; font-weight: bold; color: green; border: 5px solid green; padding: 25px; border-radius: 15px; background-color: #f0fff0;"">
                WORTH<br>$1
            </div>
        </div>
        <div class=""question-area""></div>","null","","","","","","",""
"","","","","","html-button-response","132","400887","0.0-132.0","0F422D39CFE04D82A0216F6934D5FBDE","019ce691-9175-711f-8d0b-c5d07a8619bb","019ce643-47c6-74a0-b3d2-7bf5651ded46","","null","
        <div class=""stimulus-container"" style=""display: flex; align-items: center; justify-content: center; gap: 30px;"">
            <img src=""images/instructions/movie_1.png"" class=""exp-image"">
            <div style=""font-size: 40px; font-weight: bold; color: green; border: 5px solid green; padding: 25px; border-radius: 15px; background-color: #f0fff0;"">
                WORTH<br>$1
            </div>
        </div>
        <div class=""question-area"">
            <p style=""font-size: 20px; font-weight: bold; margin: 0;"">Was there a person in this image?</p>
        </div>","null","","","","","","",""
"","","","","","instructions","133","406799","0.0-133.0","0F422D39CFE04D82A0216F6934D5FBDE","019ce691-9175-711f-8d0b-c5d07a8619bb","019ce643-47c6-74a0-b3d2-7bf5651ded46","[{""page_index"":0,""viewing_time"":5911}]","5911","","","","","","","","",""
"","","","","","html-keyboard-response","134","416804","0.0-134.0","0F422D39CFE04D82A0216F6934D5FBDE","019ce691-9175-711f-8d0b-c5d07a8619bb","019ce643-47c6-74a0-b3d2-7bf5651ded46","","null","
            <div class=""stimulus-container"" style=""display: flex; align-items: center; justify-content: center; gap: 30px;"">
                <img src=""images/causal_sequence/coin_causal/coin_causal_7.png"" class=""exp-image"">
                <div style=""font-size: 40px; font-weight: bold; color: green; border: 5px solid green; padding: 25px; border-radius: 15px; background-color: #f0fff0;"">
                    WORTH<br>$1
                </div>
            </div>
            <div class=""question-area""></div>","null","","","","","","",""
"","","","","","html-button-response","135","418199","0.0-135.0","0F422D39CFE04D82A0216F6934D5FBDE","019ce691-9175-711f-8d0b-c5d07a8619bb","019ce643-47c6-74a0-b3d2-7bf5651ded46","","1394","
            <div class=""stimulus-container"" style=""display: flex; align-items: center; justify-content: center; gap: 30px;"">
                <img src=""images/causal_sequence/coin_causal/coin_causal_7.png"" class=""exp-image"">
                <div style=""font-size: 40px; font-weight: bold; color: green; border: 5px solid green; padding: 25px; border-radius: 15px; background-color: #f0fff0;"">
                    WORTH<br>$1
                </div>
            </div>
            <div class=""question-area"">
                <p style=""font-size: 20px; font-weight: bold; margin: 0;"">Was there a person in this image?</p>
            </div>","1","part2_value_learning","","coin_causal","7","","",""
"","","","","","html-keyboard-response","136","428201","0.0-136.0","0F422D39CFE04D82A0216F6934D5FBDE","019ce691-9175-711f-8d0b-c5d07a8619bb","019ce643-47c6-74a0-b3d2-7bf5651ded46","","null","
            <div class=""stimulus-container"" style=""display: flex; align-items: center; justify-content: center; gap: 30px;"">
                <img src=""images/causal_sequence/dog_causal/dog_causal_7.png"" class=""exp-image"">
                <div style=""font-size: 40px; font-weight: bold; color: green; border: 5px solid green; padding: 25px; border-radius: 15px; background-color: #f0fff0;"">
                    WORTH<br>$1
                </div>
            </div>
            <div class=""question-area""></div>","null","","","","","","",""
"","","","","","html-button-response","137","431454","0.0-137.0","0F422D39CFE04D82A0216F6934D5FBDE","019ce691-9175-711f-8d0b-c5d07a8619bb","019ce643-47c6-74a0-b3d2-7bf5651ded46","","null","
            <div class=""stimulus-container"" style=""display: flex; align-items: center; justify-content: center; gap: 30px;"">
                <img src=""images/causal_sequence/dog_causal/dog_causal_7.png"" class=""exp-image"">
                <div style=""font-size: 40px; font-weight: bold; color: green; border: 5px solid green; padding: 25px; border-radius: 15px; background-color: #f0fff0;"">
                    WORTH<br>$1
                </div>
            </div>
            <div class=""question-area"">
                <p style=""font-size: 20px; font-weight: bold; margin: 0;"">Was there a person in this image?</p>
            </div>","null","part2_value_learning","","dog_causal","7","","",""
"","","","","","html-keyboard-response","138","441464","0.0-138.0","0F422D39CFE04D82A0216F6934D5FBDE","019ce691-9175-711f-8d0b-c5d07a8619bb","019ce643-47c6-74a0-b3d2-7bf5651ded46","","null","
            <div class=""stimulus-container"" style=""display: flex; align-items: center; justify-content: center; gap: 30px;"">
                <img src=""images/causal_sequence/the_performance_causal/the_performance_causal_4.png"" class=""exp-image"">
                <div style=""font-size: 40px; font-weight: bold; color: green; border: 5px solid green; padding: 25px; border-radius: 15px; background-color: #f0fff0;"">
                    WORTH<br>$1
                </div>
            </div>
            <div class=""question-area""></div>","null","","","","","","",""
"","","","","","html-button-response","139","444467","0.0-139.0","0F422D39CFE04D82A0216F6934D5FBDE","019ce691-9175-711f-8d0b-c5d07a8619bb","019ce643-47c6-74a0-b3d2-7bf5651ded46","","null","
            <div class=""stimulus-container"" style=""display: flex; align-items: center; justify-content: center; gap: 30px;"">
                <img src=""images/causal_sequence/the_performance_causal/the_performance_causal_4.png"" class=""exp-image"">
                <div style=""font-size: 40px; font-weight: bold; color: green; border: 5px solid green; padding: 25px; border-radius: 15px; background-color: #f0fff0;"">
                    WORTH<br>$1
                </div>
            </div>
            <div class=""question-area"">
                <p style=""font-size: 20px; font-weight: bold; margin: 0;"">Was there a person in this image?</p>
            </div>","null","part2_value_learning","","the_performance_causal","4","","",""
"","","","","","html-keyboard-response","140","454478","0.0-140.0","0F422D39CFE04D82A0216F6934D5FBDE","019ce691-9175-711f-8d0b-c5d07a8619bb","019ce643-47c6-74a0-b3d2-7bf5651ded46","","null","
            <div class=""stimulus-container"" style=""display: flex; align-items: center; justify-content: center; gap: 30px;"">
                <img src=""images/causal_sequence/saving_a_cat_causal/saving_a_cat_causal_7.png"" class=""exp-image"">
                <div style=""font-size: 40px; font-weight: bold; color: green; border: 5px solid green; padding: 25px; border-radius: 15px; background-color: #f0fff0;"">
                    WORTH<br>$1
                </div>
            </div>
            <div class=""question-area""></div>","null","","","","","","",""
"","","","","","html-button-response","141","457503","0.0-141.0","0F422D39CFE04D82A0216F6934D5FBDE","019ce691-9175-711f-8d0b-c5d07a8619bb","019ce643-47c6-74a0-b3d2-7bf5651ded46","","null","
            <div class=""stimulus-container"" style=""display: flex; align-items: center; justify-content: center; gap: 30px;"">
                <img src=""images/causal_sequence/saving_a_cat_causal/saving_a_cat_causal_7.png"" class=""exp-image"">
                <div style=""font-size: 40px; font-weight: bold; color: green; border: 5px solid green; padding: 25px; border-radius: 15px; background-color: #f0fff0;"">
                    WORTH<br>$1
                </div>
            </div>
            <div class=""question-area"">
                <p style=""font-size: 20px; font-weight: bold; margin: 0;"">Was there a person in this image?</p>
            </div>","null","part2_value_learning","","saving_a_cat_causal","7","","",""
"","","","","","html-keyboard-response","142","467565","0.0-142.0","0F422D39CFE04D82A0216F6934D5FBDE","019ce691-9175-711f-8d0b-c5d07a8619bb","019ce643-47c6-74a0-b3d2-7bf5651ded46","","null","
            <div class=""stimulus-container"" style=""display: flex; align-items: center; justify-content: center; gap: 30px;"">
                <img src=""images/causal_sequence/package_causal/package_causal_5.png"" class=""exp-image"">
                <div style=""font-size: 40px; font-weight: bold; color: green; border: 5px solid green; padding: 25px; border-radius: 15px; background-color: #f0fff0;"">
                    WORTH<br>$1
                </div>
            </div>
            <div class=""question-area""></div>","null","","","","","","",""
"","","","","","html-button-response","143","468413","0.0-143.0","0F422D39CFE04D82A0216F6934D5FBDE","019ce691-9175-711f-8d0b-c5d07a8619bb","019ce643-47c6-74a0-b3d2-7bf5651ded46","","847","
            <div class=""stimulus-container"" style=""display: flex; align-items: center; justify-content: center; gap: 30px;"">
                <img src=""images/causal_sequence/package_causal/package_causal_5.png"" class=""exp-image"">
                <div style=""font-size: 40px; font-weight: bold; color: green; border: 5px solid green; padding: 25px; border-radius: 15px; background-color: #f0fff0;"">
                    WORTH<br>$1
                </div>
            </div>
            <div class=""question-area"">
                <p style=""font-size: 20px; font-weight: bold; margin: 0;"">Was there a person in this image?</p>
            </div>","0","part2_value_learning","","package_causal","5","","",""
"","","","","","html-keyboard-response","144","478420","0.0-144.0","0F422D39CFE04D82A0216F6934D5FBDE","019ce691-9175-711f-8d0b-c5d07a8619bb","019ce643-47c6-74a0-b3d2-7bf5651ded46","","null","
            <div class=""stimulus-container"" style=""display: flex; align-items: center; justify-content: center; gap: 30px;"">
                <img src=""images/causal_sequence/museum_causal/museum_causal_6.png"" class=""exp-image"">
                <div style=""font-size: 40px; font-weight: bold; color: green; border: 5px solid green; padding: 25px; border-radius: 15px; background-color: #f0fff0;"">
                    WORTH<br>$1
                </div>
            </div>
            <div class=""question-area""></div>","null","","","","","","",""
"","","","","","html-button-response","145","480118","0.0-145.0","0F422D39CFE04D82A0216F6934D5FBDE","019ce691-9175-711f-8d0b-c5d07a8619bb","019ce643-47c6-74a0-b3d2-7bf5651ded46","","1697","
            <div class=""stimulus-container"" style=""display: flex; align-items: center; justify-content: center; gap: 30px;"">
                <img src=""images/causal_sequence/museum_causal/museum_causal_6.png"" class=""exp-image"">
                <div style=""font-size: 40px; font-weight: bold; color: green; border: 5px solid green; padding: 25px; border-radius: 15px; background-color: #f0fff0;"">
                    WORTH<br>$1
                </div>
            </div>
            <div class=""question-area"">
                <p style=""font-size: 20px; font-weight: bold; margin: 0;"">Was there a person in this image?</p>
            </div>","0","part2_value_learning","","museum_causal","6","","",""
"","","","","","instructions","146","506456","0.0-146.0","0F422D39CFE04D82A0216F6934D5FBDE","019ce691-9175-711f-8d0b-c5d07a8619bb","019ce643-47c6-74a0-b3d2-7bf5651ded46","[{""page_index"":0,""viewing_time"":26339}]","26339","","","","","","","","",""
"","","","","","instructions","147","508057","0.0-147.0","0F422D39CFE04D82A0216F6934D5FBDE","019ce691-9175-711f-8d0b-c5d07a8619bb","019ce643-47c6-74a0-b3d2-7bf5651ded46","[{""page_index"":0,""viewing_time"":1600}]","1600","","","","","","","","",""
"","","","","","html-keyboard-response","148","518181","0.0-148.0-0.0","0F422D39CFE04D82A0216F6934D5FBDE","019ce691-9175-711f-8d0b-c5d07a8619bb","019ce643-47c6-74a0-b3d2-7bf5651ded46","","null","
                        <div style=""font-family: Arial; margin-bottom: 20px;""><h3>Which image is more valuable?</h3></div>
                        <div class=""stimulus-container"" style=""display: flex; width: 1100px; justify-content: center; gap: 50px;"">
                            <img src=""images/causal_sequence/dog_causal/dog_causal_6.png"" class=""exp-image"">
                            <img src=""images/causal_sequence/dog_causal/dog_causal_8.png"" class=""exp-image"">
                        </div>","null","","","","","","",""
"","","","","","html-button-response","149","519557","0.0-148.0-1.0","0F422D39CFE04D82A0216F6934D5FBDE","019ce691-9175-711f-8d0b-c5d07a8619bb","019ce643-47c6-74a0-b3d2-7bf5651ded46","","1376","
                        <div style=""font-family: Arial; margin-bottom: 20px;""><h3>Which image is more valuable?</h3></div>
                        <div class=""stimulus-container"" style=""display: flex; width: 1100px; justify-content: center; gap: 50px;"">
                            <img src=""images/causal_sequence/dog_causal/dog_causal_6.png"" class=""exp-image"">
                            <img src=""images/causal_sequence/dog_causal/dog_causal_8.png"" class=""exp-image"">
                        </div>","0","part3_final_choice","","dog_causal","","7","6","-1"
"","","","","","html-keyboard-response","150","529752","0.0-149.0-0.0","0F422D39CFE04D82A0216F6934D5FBDE","019ce691-9175-711f-8d0b-c5d07a8619bb","019ce643-47c6-74a0-b3d2-7bf5651ded46","","null","
                        <div style=""font-family: Arial; margin-bottom: 20px;""><h3>Which image is more valuable?</h3></div>
                        <div class=""stimulus-container"" style=""display: flex; width: 1100px; justify-content: center; gap: 50px;"">
                            <img src=""images/causal_sequence/the_performance_causal/the_performance_causal_3.png"" class=""exp-image"">
                            <img src=""images/causal_sequence/the_performance_causal/the_performance_causal_5.png"" class=""exp-image"">
                        </div>","null","","","","","","",""
"","","","","","html-button-response","151","530499","0.0-149.0-1.0","0F422D39CFE04D82A0216F6934D5FBDE","019ce691-9175-711f-8d0b-c5d07a8619bb","019ce643-47c6-74a0-b3d2-7bf5651ded46","","747","
                        <div style=""font-family: Arial; margin-bottom: 20px;""><h3>Which image is more valuable?</h3></div>
                        <div class=""stimulus-container"" style=""display: flex; width: 1100px; justify-content: center; gap: 50px;"">
                            <img src=""images/causal_sequence/the_performance_causal/the_performance_causal_3.png"" class=""exp-image"">
                            <img src=""images/causal_sequence/the_performance_causal/the_performance_causal_5.png"" class=""exp-image"">
                        </div>","1","part3_final_choice","","the_performance_causal","","4","5","1"
"","","","","","html-keyboard-response","152","540504","0.0-150.0-0.0","0F422D39CFE04D82A0216F6934D5FBDE","019ce691-9175-711f-8d0b-c5d07a8619bb","019ce643-47c6-74a0-b3d2-7bf5651ded46","","null","
                        <div style=""font-family: Arial; margin-bottom: 20px;""><h3>Which image is more valuable?</h3></div>
                        <div class=""stimulus-container"" style=""display: flex; width: 1100px; justify-content: center; gap: 50px;"">
                            <img src=""images/causal_sequence/saving_a_cat_causal/saving_a_cat_causal_8.png"" class=""exp-image"">
                            <img src=""images/causal_sequence/saving_a_cat_causal/saving_a_cat_causal_6.png"" class=""exp-image"">
                        </div>","null","","","","","","",""
"","","","","","html-button-response","153","541816","0.0-150.0-1.0","0F422D39CFE04D82A0216F6934D5FBDE","019ce691-9175-711f-8d0b-c5d07a8619bb","019ce643-47c6-74a0-b3d2-7bf5651ded46","","1312","
                        <div style=""font-family: Arial; margin-bottom: 20px;""><h3>Which image is more valuable?</h3></div>
                        <div class=""stimulus-container"" style=""display: flex; width: 1100px; justify-content: center; gap: 50px;"">
                            <img src=""images/causal_sequence/saving_a_cat_causal/saving_a_cat_causal_8.png"" class=""exp-image"">
                            <img src=""images/causal_sequence/saving_a_cat_causal/saving_a_cat_causal_6.png"" class=""exp-image"">
                        </div>","1","part3_final_choice","","saving_a_cat_causal","","7","6","-1"
"","","","","","html-keyboard-response","154","552284","0.0-151.0-0.0","0F422D39CFE04D82A0216F6934D5FBDE","019ce691-9175-711f-8d0b-c5d07a8619bb","019ce643-47c6-74a0-b3d2-7bf5651ded46","","null","
                        <div style=""font-family: Arial; margin-bottom: 20px;""><h3>Which image is more valuable?</h3></div>
                        <div class=""stimulus-container"" style=""display: flex; width: 1100px; justify-content: center; gap: 50px;"">
                            <img src=""images/causal_sequence/museum_causal/museum_causal_7.png"" class=""exp-image"">
                            <img src=""images/causal_sequence/museum_causal/museum_causal_5.png"" class=""exp-image"">
                        </div>","null","","","","","","",""
"","","","","","html-button-response","155","553044","0.0-151.0-1.0","0F422D39CFE04D82A0216F6934D5FBDE","019ce691-9175-711f-8d0b-c5d07a8619bb","019ce643-47c6-74a0-b3d2-7bf5651ded46","","758","
                        <div style=""font-family: Arial; margin-bottom: 20px;""><h3>Which image is more valuable?</h3></div>
                        <div class=""stimulus-container"" style=""display: flex; width: 1100px; justify-content: center; gap: 50px;"">
                            <img src=""images/causal_sequence/museum_causal/museum_causal_7.png"" class=""exp-image"">
                            <img src=""images/causal_sequence/museum_causal/museum_causal_5.png"" class=""exp-image"">
                        </div>","0","part3_final_choice","","museum_causal","","6","7","1"
"","","","","","html-keyboard-response","156","563053","0.0-152.0-0.0","0F422D39CFE04D82A0216F6934D5FBDE","019ce691-9175-711f-8d0b-c5d07a8619bb","019ce643-47c6-74a0-b3d2-7bf5651ded46","","null","
                        <div style=""font-family: Arial; margin-bottom: 20px;""><h3>Which image is more valuable?</h3></div>
                        <div class=""stimulus-container"" style=""display: flex; width: 1100px; justify-content: center; gap: 50px;"">
                            <img src=""images/causal_sequence/package_causal/package_causal_4.png"" class=""exp-image"">
                            <img src=""images/causal_sequence/package_causal/package_causal_6.png"" class=""exp-image"">
                        </div>","null","","","","","","",""
"","","","","","html-button-response","157","563739","0.0-152.0-1.0","0F422D39CFE04D82A0216F6934D5FBDE","019ce691-9175-711f-8d0b-c5d07a8619bb","019ce643-47c6-74a0-b3d2-7bf5651ded46","","685","
                        <div style=""font-family: Arial; margin-bottom: 20px;""><h3>Which image is more valuable?</h3></div>
                        <div class=""stimulus-container"" style=""display: flex; width: 1100px; justify-content: center; gap: 50px;"">
                            <img src=""images/causal_sequence/package_causal/package_causal_4.png"" class=""exp-image"">
                            <img src=""images/causal_sequence/package_causal/package_causal_6.png"" class=""exp-image"">
                        </div>","1","part3_final_choice","","package_causal","","5","6","1"
"","","","","","html-keyboard-response","158","574192","0.0-153.0-0.0","0F422D39CFE04D82A0216F6934D5FBDE","019ce691-9175-711f-8d0b-c5d07a8619bb","019ce643-47c6-74a0-b3d2-7bf5651ded46","","null","
                        <div style=""font-family: Arial; margin-bottom: 20px;""><h3>Which image is more valuable?</h3></div>
                        <div class=""stimulus-container"" style=""display: flex; width: 1100px; justify-content: center; gap: 50px;"">
                            <img src=""images/causal_sequence/coin_causal/coin_causal_8.png"" class=""exp-image"">
                            <img src=""images/causal_sequence/coin_causal/coin_causal_6.png"" class=""exp-image"">
                        </div>","null","","","","","","",""
"","","","","","html-button-response","159","575171","0.0-153.0-1.0","0F422D39CFE04D82A0216F6934D5FBDE","019ce691-9175-711f-8d0b-c5d07a8619bb","019ce643-47c6-74a0-b3d2-7bf5651ded46","","978","
                        <div style=""font-family: Arial; margin-bottom: 20px;""><h3>Which image is more valuable?</h3></div>
                        <div class=""stimulus-container"" style=""display: flex; width: 1100px; justify-content: center; gap: 50px;"">
                            <img src=""images/causal_sequence/coin_causal/coin_causal_8.png"" class=""exp-image"">
                            <img src=""images/causal_sequence/coin_causal/coin_causal_6.png"" class=""exp-image"">
                        </div>","1","part3_final_choice","","coin_causal","","7","6","-1"
"","","","","","survey-text","160","679454","0.0-154.0","0F422D39CFE04D82A0216F6934D5FBDE","019ce691-9175-711f-8d0b-c5d07a8619bb","019ce643-47c6-74a0-b3d2-7bf5651ded46","","104257","","{""gender"":""Male"",""age"":""31"",""decision_strategy"":""Simularities to the image which was deemed valuable. Ie, one valuable image was the letter to the boy about the coin so between the two images I chose the one that featured the letter more promimently "",""consistency_check"":""Similar context to the images deemed valuable, ie valuable image involved a woman looking up at a tree or a couple at the beach""}","demographics_and_strategy","","","","","",""
"","","","","","instructions","161","683828","0.0-155.0","0F422D39CFE04D82A0216F6934D5FBDE","019ce691-9175-711f-8d0b-c5d07a8619bb","019ce643-47c6-74a0-b3d2-7bf5651ded46","[{""page_index"":0,""viewing_time"":4374}]","4374","","","","","","","","",""
