"success","timeout","failed_images","failed_audio","failed_video","trial_type","trial_index","time_elapsed","internal_node_id","subject_id","study_id","session_id","view_history","rt","stimulus","response","task","image_index","folder","sequence_type","valuable_image_index","reward_type","correct_choice","chosen_image_index","target_X"
"true","false","[]","[]","[]","preload","0","6305","0.0-0.0","160F3210920D4FA183BBBDB1324B866C","019cf734-7264-7f32-9786-a2a8d0e09ab4","019cf72b-10ed-72e0-84f6-c0a47968aa70","","","","","","","","","","","","",""
"","","","","","instructions","1","13734","0.0-1.0","160F3210920D4FA183BBBDB1324B866C","019cf734-7264-7f32-9786-a2a8d0e09ab4","019cf72b-10ed-72e0-84f6-c0a47968aa70","[{""page_index"":0,""viewing_time"":7424}]","7425","","","","","","","","","","",""
"","","","","","instructions","2","17129","0.0-2.0","160F3210920D4FA183BBBDB1324B866C","019cf734-7264-7f32-9786-a2a8d0e09ab4","019cf72b-10ed-72e0-84f6-c0a47968aa70","[{""page_index"":0,""viewing_time"":3393}]","3394","","","","","","","","","","",""
"true","","","","","fullscreen","3","19542","0.0-3.0","160F3210920D4FA183BBBDB1324B866C","019cf734-7264-7f32-9786-a2a8d0e09ab4","019cf72b-10ed-72e0-84f6-c0a47968aa70","","1409","","","","","","","","","","",""
"","","","","","instructions","4","40875","0.0-4.0","160F3210920D4FA183BBBDB1324B866C","019cf734-7264-7f32-9786-a2a8d0e09ab4","019cf72b-10ed-72e0-84f6-c0a47968aa70","[{""page_index"":0,""viewing_time"":21331}]","21331","","","","","","","","","","",""
"","","","","","instructions","5","42669","0.0-5.0","160F3210920D4FA183BBBDB1324B866C","019cf734-7264-7f32-9786-a2a8d0e09ab4","019cf72b-10ed-72e0-84f6-c0a47968aa70","[{""page_index"":0,""viewing_time"":1793}]","1793","","","","","","","","","","",""
"","","","","","html-keyboard-response","6","46674","0.0-6.0","160F3210920D4FA183BBBDB1324B866C","019cf734-7264-7f32-9786-a2a8d0e09ab4","019cf72b-10ed-72e0-84f6-c0a47968aa70","","null","
                <div class=""stimulus-container"">
                    <img src=""images/instructions/movie_1.png"" class=""exp-image"">
                    <div class=""question-area""></div> 
                </div>","null","","","","","","","","",""
"","","","","","html-button-response","7","48860","0.0-7.0","160F3210920D4FA183BBBDB1324B866C","019cf734-7264-7f32-9786-a2a8d0e09ab4","019cf72b-10ed-72e0-84f6-c0a47968aa70","","2180","
                <div class=""stimulus-container"">
                    <img src=""images/instructions/movie_1.png"" class=""exp-image"">
                    <div class=""question-area"">
                        <p style=""font-size: 20px; font-weight: bold; margin: 0;"">Was there a person in this image?</p>
                    </div>
                </div>","0","example_question","1","","","","","","",""
"","","","","","html-keyboard-response","8","52863","0.0-8.0","160F3210920D4FA183BBBDB1324B866C","019cf734-7264-7f32-9786-a2a8d0e09ab4","019cf72b-10ed-72e0-84f6-c0a47968aa70","","null","
                <div class=""stimulus-container"">
                    <img src=""images/instructions/movie_2.png"" class=""exp-image"">
                    <div class=""question-area""></div> 
                </div>","null","","","","","","","","",""
"","","","","","html-button-response","9","53840","0.0-9.0","160F3210920D4FA183BBBDB1324B866C","019cf734-7264-7f32-9786-a2a8d0e09ab4","019cf72b-10ed-72e0-84f6-c0a47968aa70","","974","
                <div class=""stimulus-container"">
                    <img src=""images/instructions/movie_2.png"" class=""exp-image"">
                    <div class=""question-area"">
                        <p style=""font-size: 20px; font-weight: bold; margin: 0;"">Was there a person in this image?</p>
                    </div>
                </div>","0","example_question","2","","","","","","",""
"","","","","","html-keyboard-response","10","57843","0.0-10.0","160F3210920D4FA183BBBDB1324B866C","019cf734-7264-7f32-9786-a2a8d0e09ab4","019cf72b-10ed-72e0-84f6-c0a47968aa70","","null","
                <div class=""stimulus-container"">
                    <img src=""images/instructions/movie_3.png"" class=""exp-image"">
                    <div class=""question-area""></div> 
                </div>","null","","","","","","","","",""
"","","","","","html-button-response","11","58840","0.0-11.0","160F3210920D4FA183BBBDB1324B866C","019cf734-7264-7f32-9786-a2a8d0e09ab4","019cf72b-10ed-72e0-84f6-c0a47968aa70","","993","
                <div class=""stimulus-container"">
                    <img src=""images/instructions/movie_3.png"" class=""exp-image"">
                    <div class=""question-area"">
                        <p style=""font-size: 20px; font-weight: bold; margin: 0;"">Was there a person in this image?</p>
                    </div>
                </div>","0","example_question","3","","","","","","",""
"","","","","","html-keyboard-response","12","62845","0.0-12.0","160F3210920D4FA183BBBDB1324B866C","019cf734-7264-7f32-9786-a2a8d0e09ab4","019cf72b-10ed-72e0-84f6-c0a47968aa70","","null","
                <div class=""stimulus-container"">
                    <img src=""images/instructions/movie_4.png"" class=""exp-image"">
                    <div class=""question-area""></div> 
                </div>","null","","","","","","","","",""
"","","","","","html-button-response","13","64090","0.0-13.0","160F3210920D4FA183BBBDB1324B866C","019cf734-7264-7f32-9786-a2a8d0e09ab4","019cf72b-10ed-72e0-84f6-c0a47968aa70","","1239","
                <div class=""stimulus-container"">
                    <img src=""images/instructions/movie_4.png"" class=""exp-image"">
                    <div class=""question-area"">
                        <p style=""font-size: 20px; font-weight: bold; margin: 0;"">Was there a person in this image?</p>
                    </div>
                </div>","0","example_question","4","","","","","","",""
"","","","","","instructions","14","66080","0.0-14.0","160F3210920D4FA183BBBDB1324B866C","019cf734-7264-7f32-9786-a2a8d0e09ab4","019cf72b-10ed-72e0-84f6-c0a47968aa70","[{""page_index"":0,""viewing_time"":1988}]","1988","","","","","","","","","","",""
"","","","","","instructions","15","70610","0.0-15.0","160F3210920D4FA183BBBDB1324B866C","019cf734-7264-7f32-9786-a2a8d0e09ab4","019cf72b-10ed-72e0-84f6-c0a47968aa70","[{""page_index"":0,""viewing_time"":4528}]","4529","","","","","","","","","","",""
"","","","","","html-keyboard-response","16","71612","0.0-16.0","160F3210920D4FA183BBBDB1324B866C","019cf734-7264-7f32-9786-a2a8d0e09ab4","019cf72b-10ed-72e0-84f6-c0a47968aa70","","null","<div style=""background-color: white; width: 100vw; height: 100vh;""></div>","null","","","","","","","","",""
"","","","","","html-keyboard-response","17","76614","0.0-17.0","160F3210920D4FA183BBBDB1324B866C","019cf734-7264-7f32-9786-a2a8d0e09ab4","019cf72b-10ed-72e0-84f6-c0a47968aa70","","null","
                <div class=""stimulus-container"">
                    <img src=""images/causal_sequence/museum_causal/museum_causal_1.png"" class=""exp-image"">
                    <div class=""question-area""></div> 
                </div>","null","","","","","","","","",""
"","","","","","html-button-response","18","77787","0.0-18.0","160F3210920D4FA183BBBDB1324B866C","019cf734-7264-7f32-9786-a2a8d0e09ab4","019cf72b-10ed-72e0-84f6-c0a47968aa70","","1170","
                <div class=""stimulus-container"">
                    <img src=""images/causal_sequence/museum_causal/museum_causal_1.png"" class=""exp-image"">
                    <div class=""question-area"">
                        <p style=""font-size: 20px; font-weight: bold; margin: 0;"">Is there a person in this image?</p>
                    </div>
                </div>","0","main_experiment_trial","1","museum_causal","causal_sequence","","","","",""
"","","","","","html-keyboard-response","19","82790","0.0-19.0","160F3210920D4FA183BBBDB1324B866C","019cf734-7264-7f32-9786-a2a8d0e09ab4","019cf72b-10ed-72e0-84f6-c0a47968aa70","","null","
                <div class=""stimulus-container"">
                    <img src=""images/causal_sequence/museum_causal/museum_causal_2.png"" class=""exp-image"">
                    <div class=""question-area""></div> 
                </div>","null","","","","","","","","",""
"","","","","","html-button-response","20","83642","0.0-20.0","160F3210920D4FA183BBBDB1324B866C","019cf734-7264-7f32-9786-a2a8d0e09ab4","019cf72b-10ed-72e0-84f6-c0a47968aa70","","849","
                <div class=""stimulus-container"">
                    <img src=""images/causal_sequence/museum_causal/museum_causal_2.png"" class=""exp-image"">
                    <div class=""question-area"">
                        <p style=""font-size: 20px; font-weight: bold; margin: 0;"">Is there a person in this image?</p>
                    </div>
                </div>","0","main_experiment_trial","2","museum_causal","causal_sequence","","","","",""
"","","","","","html-keyboard-response","21","88644","0.0-21.0","160F3210920D4FA183BBBDB1324B866C","019cf734-7264-7f32-9786-a2a8d0e09ab4","019cf72b-10ed-72e0-84f6-c0a47968aa70","","null","
                <div class=""stimulus-container"">
                    <img src=""images/causal_sequence/museum_causal/museum_causal_3.png"" class=""exp-image"">
                    <div class=""question-area""></div> 
                </div>","null","","","","","","","","",""
"","","","","","html-button-response","22","89607","0.0-22.0","160F3210920D4FA183BBBDB1324B866C","019cf734-7264-7f32-9786-a2a8d0e09ab4","019cf72b-10ed-72e0-84f6-c0a47968aa70","","960","
                <div class=""stimulus-container"">
                    <img src=""images/causal_sequence/museum_causal/museum_causal_3.png"" class=""exp-image"">
                    <div class=""question-area"">
                        <p style=""font-size: 20px; font-weight: bold; margin: 0;"">Is there a person in this image?</p>
                    </div>
                </div>","0","main_experiment_trial","3","museum_causal","causal_sequence","","","","",""
"","","","","","html-keyboard-response","23","94611","0.0-23.0","160F3210920D4FA183BBBDB1324B866C","019cf734-7264-7f32-9786-a2a8d0e09ab4","019cf72b-10ed-72e0-84f6-c0a47968aa70","","null","
                <div class=""stimulus-container"">
                    <img src=""images/causal_sequence/museum_causal/museum_causal_4.png"" class=""exp-image"">
                    <div class=""question-area""></div> 
                </div>","null","","","","","","","","",""
"","","","","","html-button-response","24","95803","0.0-24.0","160F3210920D4FA183BBBDB1324B866C","019cf734-7264-7f32-9786-a2a8d0e09ab4","019cf72b-10ed-72e0-84f6-c0a47968aa70","","1189","
                <div class=""stimulus-container"">
                    <img src=""images/causal_sequence/museum_causal/museum_causal_4.png"" class=""exp-image"">
                    <div class=""question-area"">
                        <p style=""font-size: 20px; font-weight: bold; margin: 0;"">Is there a person in this image?</p>
                    </div>
                </div>","1","main_experiment_trial","4","museum_causal","causal_sequence","","","","",""
"","","","","","html-keyboard-response","25","100805","0.0-25.0","160F3210920D4FA183BBBDB1324B866C","019cf734-7264-7f32-9786-a2a8d0e09ab4","019cf72b-10ed-72e0-84f6-c0a47968aa70","","null","
                <div class=""stimulus-container"">
                    <img src=""images/causal_sequence/museum_causal/museum_causal_5.png"" class=""exp-image"">
                    <div class=""question-area""></div> 
                </div>","null","","","","","","","","",""
"","","","","","html-button-response","26","101382","0.0-26.0","160F3210920D4FA183BBBDB1324B866C","019cf734-7264-7f32-9786-a2a8d0e09ab4","019cf72b-10ed-72e0-84f6-c0a47968aa70","","574","
                <div class=""stimulus-container"">
                    <img src=""images/causal_sequence/museum_causal/museum_causal_5.png"" class=""exp-image"">
                    <div class=""question-area"">
                        <p style=""font-size: 20px; font-weight: bold; margin: 0;"">Is there a person in this image?</p>
                    </div>
                </div>","0","main_experiment_trial","5","museum_causal","causal_sequence","","","","",""
"","","","","","html-keyboard-response","27","106385","0.0-27.0","160F3210920D4FA183BBBDB1324B866C","019cf734-7264-7f32-9786-a2a8d0e09ab4","019cf72b-10ed-72e0-84f6-c0a47968aa70","","null","
                <div class=""stimulus-container"">
                    <img src=""images/causal_sequence/museum_causal/museum_causal_6.png"" class=""exp-image"">
                    <div class=""question-area""></div> 
                </div>","null","","","","","","","","",""
"","","","","","html-button-response","28","107358","0.0-28.0","160F3210920D4FA183BBBDB1324B866C","019cf734-7264-7f32-9786-a2a8d0e09ab4","019cf72b-10ed-72e0-84f6-c0a47968aa70","","971","
                <div class=""stimulus-container"">
                    <img src=""images/causal_sequence/museum_causal/museum_causal_6.png"" class=""exp-image"">
                    <div class=""question-area"">
                        <p style=""font-size: 20px; font-weight: bold; margin: 0;"">Is there a person in this image?</p>
                    </div>
                </div>","0","main_experiment_trial","6","museum_causal","causal_sequence","","","","",""
"","","","","","html-keyboard-response","29","112360","0.0-29.0","160F3210920D4FA183BBBDB1324B866C","019cf734-7264-7f32-9786-a2a8d0e09ab4","019cf72b-10ed-72e0-84f6-c0a47968aa70","","null","
                <div class=""stimulus-container"">
                    <img src=""images/causal_sequence/museum_causal/museum_causal_7.png"" class=""exp-image"">
                    <div class=""question-area""></div> 
                </div>","null","","","","","","","","",""
"","","","","","html-button-response","30","113044","0.0-30.0","160F3210920D4FA183BBBDB1324B866C","019cf734-7264-7f32-9786-a2a8d0e09ab4","019cf72b-10ed-72e0-84f6-c0a47968aa70","","682","
                <div class=""stimulus-container"">
                    <img src=""images/causal_sequence/museum_causal/museum_causal_7.png"" class=""exp-image"">
                    <div class=""question-area"">
                        <p style=""font-size: 20px; font-weight: bold; margin: 0;"">Is there a person in this image?</p>
                    </div>
                </div>","1","main_experiment_trial","7","museum_causal","causal_sequence","","","","",""
"","","","","","html-keyboard-response","31","118046","0.0-31.0","160F3210920D4FA183BBBDB1324B866C","019cf734-7264-7f32-9786-a2a8d0e09ab4","019cf72b-10ed-72e0-84f6-c0a47968aa70","","null","
                <div class=""stimulus-container"">
                    <img src=""images/causal_sequence/museum_causal/museum_causal_8.png"" class=""exp-image"">
                    <div class=""question-area""></div> 
                </div>","null","","","","","","","","",""
"","","","","","html-button-response","32","119076","0.0-32.0","160F3210920D4FA183BBBDB1324B866C","019cf734-7264-7f32-9786-a2a8d0e09ab4","019cf72b-10ed-72e0-84f6-c0a47968aa70","","1029","
                <div class=""stimulus-container"">
                    <img src=""images/causal_sequence/museum_causal/museum_causal_8.png"" class=""exp-image"">
                    <div class=""question-area"">
                        <p style=""font-size: 20px; font-weight: bold; margin: 0;"">Is there a person in this image?</p>
                    </div>
                </div>","0","main_experiment_trial","8","museum_causal","causal_sequence","","","","",""
"","","","","","html-keyboard-response","33","124078","0.0-33.0","160F3210920D4FA183BBBDB1324B866C","019cf734-7264-7f32-9786-a2a8d0e09ab4","019cf72b-10ed-72e0-84f6-c0a47968aa70","","null","
                <div class=""stimulus-container"">
                    <img src=""images/causal_sequence/museum_causal/museum_causal_9.png"" class=""exp-image"">
                    <div class=""question-area""></div> 
                </div>","null","","","","","","","","",""
"","","","","","html-button-response","34","124817","0.0-34.0","160F3210920D4FA183BBBDB1324B866C","019cf734-7264-7f32-9786-a2a8d0e09ab4","019cf72b-10ed-72e0-84f6-c0a47968aa70","","738","
                <div class=""stimulus-container"">
                    <img src=""images/causal_sequence/museum_causal/museum_causal_9.png"" class=""exp-image"">
                    <div class=""question-area"">
                        <p style=""font-size: 20px; font-weight: bold; margin: 0;"">Is there a person in this image?</p>
                    </div>
                </div>","1","main_experiment_trial","9","museum_causal","causal_sequence","","","","",""
"","","","","","html-keyboard-response","35","129819","0.0-35.0","160F3210920D4FA183BBBDB1324B866C","019cf734-7264-7f32-9786-a2a8d0e09ab4","019cf72b-10ed-72e0-84f6-c0a47968aa70","","null","
                <div class=""stimulus-container"">
                    <img src=""images/causal_sequence/museum_causal/museum_causal_ten.png"" class=""exp-image"">
                    <div class=""question-area""></div> 
                </div>","null","","","","","","","","",""
"","","","","","html-button-response","36","130797","0.0-36.0","160F3210920D4FA183BBBDB1324B866C","019cf734-7264-7f32-9786-a2a8d0e09ab4","019cf72b-10ed-72e0-84f6-c0a47968aa70","","976","
                <div class=""stimulus-container"">
                    <img src=""images/causal_sequence/museum_causal/museum_causal_ten.png"" class=""exp-image"">
                    <div class=""question-area"">
                        <p style=""font-size: 20px; font-weight: bold; margin: 0;"">Is there a person in this image?</p>
                    </div>
                </div>","0","main_experiment_trial","ten","museum_causal","causal_sequence","","","","",""
"","","","","","html-keyboard-response","37","131799","0.0-37.0","160F3210920D4FA183BBBDB1324B866C","019cf734-7264-7f32-9786-a2a8d0e09ab4","019cf72b-10ed-72e0-84f6-c0a47968aa70","","null","<div style=""background-color: white; width: 100vw; height: 100vh;""></div>","null","","","","","","","","",""
"","","","","","html-keyboard-response","38","136801","0.0-38.0","160F3210920D4FA183BBBDB1324B866C","019cf734-7264-7f32-9786-a2a8d0e09ab4","019cf72b-10ed-72e0-84f6-c0a47968aa70","","null","
                <div class=""stimulus-container"">
                    <img src=""images/causal_sequence/the_performance_causal/the_performance_causal_1.png"" class=""exp-image"">
                    <div class=""question-area""></div> 
                </div>","null","","","","","","","","",""
"","","","","","html-button-response","39","137508","0.0-39.0","160F3210920D4FA183BBBDB1324B866C","019cf734-7264-7f32-9786-a2a8d0e09ab4","019cf72b-10ed-72e0-84f6-c0a47968aa70","","704","
                <div class=""stimulus-container"">
                    <img src=""images/causal_sequence/the_performance_causal/the_performance_causal_1.png"" class=""exp-image"">
                    <div class=""question-area"">
                        <p style=""font-size: 20px; font-weight: bold; margin: 0;"">Is there a person in this image?</p>
                    </div>
                </div>","0","main_experiment_trial","1","the_performance_causal","causal_sequence","","","","",""
"","","","","","html-keyboard-response","40","142510","0.0-40.0","160F3210920D4FA183BBBDB1324B866C","019cf734-7264-7f32-9786-a2a8d0e09ab4","019cf72b-10ed-72e0-84f6-c0a47968aa70","","null","
                <div class=""stimulus-container"">
                    <img src=""images/causal_sequence/the_performance_causal/the_performance_causal_2.png"" class=""exp-image"">
                    <div class=""question-area""></div> 
                </div>","null","","","","","","","","",""
"","","","","","html-button-response","41","143260","0.0-41.0","160F3210920D4FA183BBBDB1324B866C","019cf734-7264-7f32-9786-a2a8d0e09ab4","019cf72b-10ed-72e0-84f6-c0a47968aa70","","747","
                <div class=""stimulus-container"">
                    <img src=""images/causal_sequence/the_performance_causal/the_performance_causal_2.png"" class=""exp-image"">
                    <div class=""question-area"">
                        <p style=""font-size: 20px; font-weight: bold; margin: 0;"">Is there a person in this image?</p>
                    </div>
                </div>","0","main_experiment_trial","2","the_performance_causal","causal_sequence","","","","",""
"","","","","","html-keyboard-response","42","148262","0.0-42.0","160F3210920D4FA183BBBDB1324B866C","019cf734-7264-7f32-9786-a2a8d0e09ab4","019cf72b-10ed-72e0-84f6-c0a47968aa70","","null","
                <div class=""stimulus-container"">
                    <img src=""images/causal_sequence/the_performance_causal/the_performance_causal_3.png"" class=""exp-image"">
                    <div class=""question-area""></div> 
                </div>","null","","","","","","","","",""
"","","","","","html-button-response","43","148853","0.0-43.0","160F3210920D4FA183BBBDB1324B866C","019cf734-7264-7f32-9786-a2a8d0e09ab4","019cf72b-10ed-72e0-84f6-c0a47968aa70","","588","
                <div class=""stimulus-container"">
                    <img src=""images/causal_sequence/the_performance_causal/the_performance_causal_3.png"" class=""exp-image"">
                    <div class=""question-area"">
                        <p style=""font-size: 20px; font-weight: bold; margin: 0;"">Is there a person in this image?</p>
                    </div>
                </div>","0","main_experiment_trial","3","the_performance_causal","causal_sequence","","","","",""
"","","","","","html-keyboard-response","44","153856","0.0-44.0","160F3210920D4FA183BBBDB1324B866C","019cf734-7264-7f32-9786-a2a8d0e09ab4","019cf72b-10ed-72e0-84f6-c0a47968aa70","","null","
                <div class=""stimulus-container"">
                    <img src=""images/causal_sequence/the_performance_causal/the_performance_causal_4.png"" class=""exp-image"">
                    <div class=""question-area""></div> 
                </div>","null","","","","","","","","",""
"","","","","","html-button-response","45","154425","0.0-45.0","160F3210920D4FA183BBBDB1324B866C","019cf734-7264-7f32-9786-a2a8d0e09ab4","019cf72b-10ed-72e0-84f6-c0a47968aa70","","567","
                <div class=""stimulus-container"">
                    <img src=""images/causal_sequence/the_performance_causal/the_performance_causal_4.png"" class=""exp-image"">
                    <div class=""question-area"">
                        <p style=""font-size: 20px; font-weight: bold; margin: 0;"">Is there a person in this image?</p>
                    </div>
                </div>","0","main_experiment_trial","4","the_performance_causal","causal_sequence","","","","",""
"","","","","","html-keyboard-response","46","159428","0.0-46.0","160F3210920D4FA183BBBDB1324B866C","019cf734-7264-7f32-9786-a2a8d0e09ab4","019cf72b-10ed-72e0-84f6-c0a47968aa70","","null","
                <div class=""stimulus-container"">
                    <img src=""images/causal_sequence/the_performance_causal/the_performance_causal_5.png"" class=""exp-image"">
                    <div class=""question-area""></div> 
                </div>","null","","","","","","","","",""
"","","","","","html-button-response","47","159934","0.0-47.0","160F3210920D4FA183BBBDB1324B866C","019cf734-7264-7f32-9786-a2a8d0e09ab4","019cf72b-10ed-72e0-84f6-c0a47968aa70","","504","
                <div class=""stimulus-container"">
                    <img src=""images/causal_sequence/the_performance_causal/the_performance_causal_5.png"" class=""exp-image"">
                    <div class=""question-area"">
                        <p style=""font-size: 20px; font-weight: bold; margin: 0;"">Is there a person in this image?</p>
                    </div>
                </div>","0","main_experiment_trial","5","the_performance_causal","causal_sequence","","","","",""
"","","","","","html-keyboard-response","48","164937","0.0-48.0","160F3210920D4FA183BBBDB1324B866C","019cf734-7264-7f32-9786-a2a8d0e09ab4","019cf72b-10ed-72e0-84f6-c0a47968aa70","","null","
                <div class=""stimulus-container"">
                    <img src=""images/causal_sequence/the_performance_causal/the_performance_causal_6.png"" class=""exp-image"">
                    <div class=""question-area""></div> 
                </div>","null","","","","","","","","",""
"","","","","","html-button-response","49","165481","0.0-49.0","160F3210920D4FA183BBBDB1324B866C","019cf734-7264-7f32-9786-a2a8d0e09ab4","019cf72b-10ed-72e0-84f6-c0a47968aa70","","542","
                <div class=""stimulus-container"">
                    <img src=""images/causal_sequence/the_performance_causal/the_performance_causal_6.png"" class=""exp-image"">
                    <div class=""question-area"">
                        <p style=""font-size: 20px; font-weight: bold; margin: 0;"">Is there a person in this image?</p>
                    </div>
                </div>","0","main_experiment_trial","6","the_performance_causal","causal_sequence","","","","",""
"","","","","","html-keyboard-response","50","170483","0.0-50.0","160F3210920D4FA183BBBDB1324B866C","019cf734-7264-7f32-9786-a2a8d0e09ab4","019cf72b-10ed-72e0-84f6-c0a47968aa70","","null","
                <div class=""stimulus-container"">
                    <img src=""images/causal_sequence/the_performance_causal/the_performance_causal_7.png"" class=""exp-image"">
                    <div class=""question-area""></div> 
                </div>","null","","","","","","","","",""
"","","","","","html-button-response","51","171339","0.0-51.0","160F3210920D4FA183BBBDB1324B866C","019cf734-7264-7f32-9786-a2a8d0e09ab4","019cf72b-10ed-72e0-84f6-c0a47968aa70","","853","
                <div class=""stimulus-container"">
                    <img src=""images/causal_sequence/the_performance_causal/the_performance_causal_7.png"" class=""exp-image"">
                    <div class=""question-area"">
                        <p style=""font-size: 20px; font-weight: bold; margin: 0;"">Is there a person in this image?</p>
                    </div>
                </div>","0","main_experiment_trial","7","the_performance_causal","causal_sequence","","","","",""
"","","","","","html-keyboard-response","52","176342","0.0-52.0","160F3210920D4FA183BBBDB1324B866C","019cf734-7264-7f32-9786-a2a8d0e09ab4","019cf72b-10ed-72e0-84f6-c0a47968aa70","","null","
                <div class=""stimulus-container"">
                    <img src=""images/causal_sequence/the_performance_causal/the_performance_causal_8.png"" class=""exp-image"">
                    <div class=""question-area""></div> 
                </div>","null","","","","","","","","",""
"","","","","","html-button-response","53","177142","0.0-53.0","160F3210920D4FA183BBBDB1324B866C","019cf734-7264-7f32-9786-a2a8d0e09ab4","019cf72b-10ed-72e0-84f6-c0a47968aa70","","798","
                <div class=""stimulus-container"">
                    <img src=""images/causal_sequence/the_performance_causal/the_performance_causal_8.png"" class=""exp-image"">
                    <div class=""question-area"">
                        <p style=""font-size: 20px; font-weight: bold; margin: 0;"">Is there a person in this image?</p>
                    </div>
                </div>","0","main_experiment_trial","8","the_performance_causal","causal_sequence","","","","",""
"","","","","","html-keyboard-response","54","182144","0.0-54.0","160F3210920D4FA183BBBDB1324B866C","019cf734-7264-7f32-9786-a2a8d0e09ab4","019cf72b-10ed-72e0-84f6-c0a47968aa70","","null","
                <div class=""stimulus-container"">
                    <img src=""images/causal_sequence/the_performance_causal/the_performance_causal_9.png"" class=""exp-image"">
                    <div class=""question-area""></div> 
                </div>","null","","","","","","","","",""
"","","","","","html-button-response","55","182800","0.0-55.0","160F3210920D4FA183BBBDB1324B866C","019cf734-7264-7f32-9786-a2a8d0e09ab4","019cf72b-10ed-72e0-84f6-c0a47968aa70","","653","
                <div class=""stimulus-container"">
                    <img src=""images/causal_sequence/the_performance_causal/the_performance_causal_9.png"" class=""exp-image"">
                    <div class=""question-area"">
                        <p style=""font-size: 20px; font-weight: bold; margin: 0;"">Is there a person in this image?</p>
                    </div>
                </div>","0","main_experiment_trial","9","the_performance_causal","causal_sequence","","","","",""
"","","","","","html-keyboard-response","56","187802","0.0-56.0","160F3210920D4FA183BBBDB1324B866C","019cf734-7264-7f32-9786-a2a8d0e09ab4","019cf72b-10ed-72e0-84f6-c0a47968aa70","","null","
                <div class=""stimulus-container"">
                    <img src=""images/causal_sequence/the_performance_causal/the_performance_causal_ten.png"" class=""exp-image"">
                    <div class=""question-area""></div> 
                </div>","null","","","","","","","","",""
"","","","","","html-button-response","57","188483","0.0-57.0","160F3210920D4FA183BBBDB1324B866C","019cf734-7264-7f32-9786-a2a8d0e09ab4","019cf72b-10ed-72e0-84f6-c0a47968aa70","","678","
                <div class=""stimulus-container"">
                    <img src=""images/causal_sequence/the_performance_causal/the_performance_causal_ten.png"" class=""exp-image"">
                    <div class=""question-area"">
                        <p style=""font-size: 20px; font-weight: bold; margin: 0;"">Is there a person in this image?</p>
                    </div>
                </div>","0","main_experiment_trial","ten","the_performance_causal","causal_sequence","","","","",""
"","","","","","html-keyboard-response","58","189485","0.0-58.0","160F3210920D4FA183BBBDB1324B866C","019cf734-7264-7f32-9786-a2a8d0e09ab4","019cf72b-10ed-72e0-84f6-c0a47968aa70","","null","<div style=""background-color: white; width: 100vw; height: 100vh;""></div>","null","","","","","","","","",""
"","","","","","html-keyboard-response","59","194487","0.0-59.0","160F3210920D4FA183BBBDB1324B866C","019cf734-7264-7f32-9786-a2a8d0e09ab4","019cf72b-10ed-72e0-84f6-c0a47968aa70","","null","
                <div class=""stimulus-container"">
                    <img src=""images/causal_sequence/coin_causal/coin_causal_1.png"" class=""exp-image"">
                    <div class=""question-area""></div> 
                </div>","null","","","","","","","","",""
"","","","","","html-button-response","60","195242","0.0-60.0","160F3210920D4FA183BBBDB1324B866C","019cf734-7264-7f32-9786-a2a8d0e09ab4","019cf72b-10ed-72e0-84f6-c0a47968aa70","","752","
                <div class=""stimulus-container"">
                    <img src=""images/causal_sequence/coin_causal/coin_causal_1.png"" class=""exp-image"">
                    <div class=""question-area"">
                        <p style=""font-size: 20px; font-weight: bold; margin: 0;"">Is there a person in this image?</p>
                    </div>
                </div>","0","main_experiment_trial","1","coin_causal","causal_sequence","","","","",""
"","","","","","html-keyboard-response","61","200244","0.0-61.0","160F3210920D4FA183BBBDB1324B866C","019cf734-7264-7f32-9786-a2a8d0e09ab4","019cf72b-10ed-72e0-84f6-c0a47968aa70","","null","
                <div class=""stimulus-container"">
                    <img src=""images/causal_sequence/coin_causal/coin_causal_2.png"" class=""exp-image"">
                    <div class=""question-area""></div> 
                </div>","null","","","","","","","","",""
"","","","","","html-button-response","62","201479","0.0-62.0","160F3210920D4FA183BBBDB1324B866C","019cf734-7264-7f32-9786-a2a8d0e09ab4","019cf72b-10ed-72e0-84f6-c0a47968aa70","","1233","
                <div class=""stimulus-container"">
                    <img src=""images/causal_sequence/coin_causal/coin_causal_2.png"" class=""exp-image"">
                    <div class=""question-area"">
                        <p style=""font-size: 20px; font-weight: bold; margin: 0;"">Is there a person in this image?</p>
                    </div>
                </div>","0","main_experiment_trial","2","coin_causal","causal_sequence","","","","",""
"","","","","","html-keyboard-response","63","206481","0.0-63.0","160F3210920D4FA183BBBDB1324B866C","019cf734-7264-7f32-9786-a2a8d0e09ab4","019cf72b-10ed-72e0-84f6-c0a47968aa70","","null","
                <div class=""stimulus-container"">
                    <img src=""images/causal_sequence/coin_causal/coin_causal_3.png"" class=""exp-image"">
                    <div class=""question-area""></div> 
                </div>","null","","","","","","","","",""
"","","","","","html-button-response","64","207653","0.0-64.0","160F3210920D4FA183BBBDB1324B866C","019cf734-7264-7f32-9786-a2a8d0e09ab4","019cf72b-10ed-72e0-84f6-c0a47968aa70","","1169","
                <div class=""stimulus-container"">
                    <img src=""images/causal_sequence/coin_causal/coin_causal_3.png"" class=""exp-image"">
                    <div class=""question-area"">
                        <p style=""font-size: 20px; font-weight: bold; margin: 0;"">Is there a person in this image?</p>
                    </div>
                </div>","0","main_experiment_trial","3","coin_causal","causal_sequence","","","","",""
"","","","","","html-keyboard-response","65","212655","0.0-65.0","160F3210920D4FA183BBBDB1324B866C","019cf734-7264-7f32-9786-a2a8d0e09ab4","019cf72b-10ed-72e0-84f6-c0a47968aa70","","null","
                <div class=""stimulus-container"">
                    <img src=""images/causal_sequence/coin_causal/coin_causal_4.png"" class=""exp-image"">
                    <div class=""question-area""></div> 
                </div>","null","","","","","","","","",""
"","","","","","html-button-response","66","213358","0.0-66.0","160F3210920D4FA183BBBDB1324B866C","019cf734-7264-7f32-9786-a2a8d0e09ab4","019cf72b-10ed-72e0-84f6-c0a47968aa70","","700","
                <div class=""stimulus-container"">
                    <img src=""images/causal_sequence/coin_causal/coin_causal_4.png"" class=""exp-image"">
                    <div class=""question-area"">
                        <p style=""font-size: 20px; font-weight: bold; margin: 0;"">Is there a person in this image?</p>
                    </div>
                </div>","0","main_experiment_trial","4","coin_causal","causal_sequence","","","","",""
"","","","","","html-keyboard-response","67","218360","0.0-67.0","160F3210920D4FA183BBBDB1324B866C","019cf734-7264-7f32-9786-a2a8d0e09ab4","019cf72b-10ed-72e0-84f6-c0a47968aa70","","null","
                <div class=""stimulus-container"">
                    <img src=""images/causal_sequence/coin_causal/coin_causal_5.png"" class=""exp-image"">
                    <div class=""question-area""></div> 
                </div>","null","","","","","","","","",""
"","","","","","html-button-response","68","219131","0.0-68.0","160F3210920D4FA183BBBDB1324B866C","019cf734-7264-7f32-9786-a2a8d0e09ab4","019cf72b-10ed-72e0-84f6-c0a47968aa70","","768","
                <div class=""stimulus-container"">
                    <img src=""images/causal_sequence/coin_causal/coin_causal_5.png"" class=""exp-image"">
                    <div class=""question-area"">
                        <p style=""font-size: 20px; font-weight: bold; margin: 0;"">Is there a person in this image?</p>
                    </div>
                </div>","0","main_experiment_trial","5","coin_causal","causal_sequence","","","","",""
"","","","","","html-keyboard-response","69","224133","0.0-69.0","160F3210920D4FA183BBBDB1324B866C","019cf734-7264-7f32-9786-a2a8d0e09ab4","019cf72b-10ed-72e0-84f6-c0a47968aa70","","null","
                <div class=""stimulus-container"">
                    <img src=""images/causal_sequence/coin_causal/coin_causal_6.png"" class=""exp-image"">
                    <div class=""question-area""></div> 
                </div>","null","","","","","","","","",""
"","","","","","html-button-response","70","224863","0.0-70.0","160F3210920D4FA183BBBDB1324B866C","019cf734-7264-7f32-9786-a2a8d0e09ab4","019cf72b-10ed-72e0-84f6-c0a47968aa70","","728","
                <div class=""stimulus-container"">
                    <img src=""images/causal_sequence/coin_causal/coin_causal_6.png"" class=""exp-image"">
                    <div class=""question-area"">
                        <p style=""font-size: 20px; font-weight: bold; margin: 0;"">Is there a person in this image?</p>
                    </div>
                </div>","0","main_experiment_trial","6","coin_causal","causal_sequence","","","","",""
"","","","","","html-keyboard-response","71","229865","0.0-71.0","160F3210920D4FA183BBBDB1324B866C","019cf734-7264-7f32-9786-a2a8d0e09ab4","019cf72b-10ed-72e0-84f6-c0a47968aa70","","null","
                <div class=""stimulus-container"">
                    <img src=""images/causal_sequence/coin_causal/coin_causal_7.png"" class=""exp-image"">
                    <div class=""question-area""></div> 
                </div>","null","","","","","","","","",""
"","","","","","html-button-response","72","230937","0.0-72.0","160F3210920D4FA183BBBDB1324B866C","019cf734-7264-7f32-9786-a2a8d0e09ab4","019cf72b-10ed-72e0-84f6-c0a47968aa70","","1069","
                <div class=""stimulus-container"">
                    <img src=""images/causal_sequence/coin_causal/coin_causal_7.png"" class=""exp-image"">
                    <div class=""question-area"">
                        <p style=""font-size: 20px; font-weight: bold; margin: 0;"">Is there a person in this image?</p>
                    </div>
                </div>","1","main_experiment_trial","7","coin_causal","causal_sequence","","","","",""
"","","","","","html-keyboard-response","73","235939","0.0-73.0","160F3210920D4FA183BBBDB1324B866C","019cf734-7264-7f32-9786-a2a8d0e09ab4","019cf72b-10ed-72e0-84f6-c0a47968aa70","","null","
                <div class=""stimulus-container"">
                    <img src=""images/causal_sequence/coin_causal/coin_causal_8.png"" class=""exp-image"">
                    <div class=""question-area""></div> 
                </div>","null","","","","","","","","",""
"","","","","","html-button-response","74","237088","0.0-74.0","160F3210920D4FA183BBBDB1324B866C","019cf734-7264-7f32-9786-a2a8d0e09ab4","019cf72b-10ed-72e0-84f6-c0a47968aa70","","1146","
                <div class=""stimulus-container"">
                    <img src=""images/causal_sequence/coin_causal/coin_causal_8.png"" class=""exp-image"">
                    <div class=""question-area"">
                        <p style=""font-size: 20px; font-weight: bold; margin: 0;"">Is there a person in this image?</p>
                    </div>
                </div>","0","main_experiment_trial","8","coin_causal","causal_sequence","","","","",""
"","","","","","html-keyboard-response","75","242090","0.0-75.0","160F3210920D4FA183BBBDB1324B866C","019cf734-7264-7f32-9786-a2a8d0e09ab4","019cf72b-10ed-72e0-84f6-c0a47968aa70","","null","
                <div class=""stimulus-container"">
                    <img src=""images/causal_sequence/coin_causal/coin_causal_9.png"" class=""exp-image"">
                    <div class=""question-area""></div> 
                </div>","null","","","","","","","","",""
"","","","","","html-button-response","76","243286","0.0-76.0","160F3210920D4FA183BBBDB1324B866C","019cf734-7264-7f32-9786-a2a8d0e09ab4","019cf72b-10ed-72e0-84f6-c0a47968aa70","","1193","
                <div class=""stimulus-container"">
                    <img src=""images/causal_sequence/coin_causal/coin_causal_9.png"" class=""exp-image"">
                    <div class=""question-area"">
                        <p style=""font-size: 20px; font-weight: bold; margin: 0;"">Is there a person in this image?</p>
                    </div>
                </div>","0","main_experiment_trial","9","coin_causal","causal_sequence","","","","",""
"","","","","","html-keyboard-response","77","248289","0.0-77.0","160F3210920D4FA183BBBDB1324B866C","019cf734-7264-7f32-9786-a2a8d0e09ab4","019cf72b-10ed-72e0-84f6-c0a47968aa70","","null","
                <div class=""stimulus-container"">
                    <img src=""images/causal_sequence/coin_causal/coin_causal_ten.png"" class=""exp-image"">
                    <div class=""question-area""></div> 
                </div>","null","","","","","","","","",""
"","","","","","html-button-response","78","248976","0.0-78.0","160F3210920D4FA183BBBDB1324B866C","019cf734-7264-7f32-9786-a2a8d0e09ab4","019cf72b-10ed-72e0-84f6-c0a47968aa70","","684","
                <div class=""stimulus-container"">
                    <img src=""images/causal_sequence/coin_causal/coin_causal_ten.png"" class=""exp-image"">
                    <div class=""question-area"">
                        <p style=""font-size: 20px; font-weight: bold; margin: 0;"">Is there a person in this image?</p>
                    </div>
                </div>","0","main_experiment_trial","ten","coin_causal","causal_sequence","","","","",""
"","","","","","html-keyboard-response","79","249978","0.0-79.0","160F3210920D4FA183BBBDB1324B866C","019cf734-7264-7f32-9786-a2a8d0e09ab4","019cf72b-10ed-72e0-84f6-c0a47968aa70","","null","<div style=""background-color: white; width: 100vw; height: 100vh;""></div>","null","","","","","","","","",""
"","","","","","html-keyboard-response","80","254980","0.0-80.0","160F3210920D4FA183BBBDB1324B866C","019cf734-7264-7f32-9786-a2a8d0e09ab4","019cf72b-10ed-72e0-84f6-c0a47968aa70","","null","
                <div class=""stimulus-container"">
                    <img src=""images/schematic_sequence/supermarket_scheme/supermarket_scheme_1.png"" class=""exp-image"">
                    <div class=""question-area""></div> 
                </div>","null","","","","","","","","",""
"","","","","","html-button-response","81","255882","0.0-81.0","160F3210920D4FA183BBBDB1324B866C","019cf734-7264-7f32-9786-a2a8d0e09ab4","019cf72b-10ed-72e0-84f6-c0a47968aa70","","899","
                <div class=""stimulus-container"">
                    <img src=""images/schematic_sequence/supermarket_scheme/supermarket_scheme_1.png"" class=""exp-image"">
                    <div class=""question-area"">
                        <p style=""font-size: 20px; font-weight: bold; margin: 0;"">Is there a person in this image?</p>
                    </div>
                </div>","1","main_experiment_trial","1","supermarket_scheme","schematic_sequence","","","","",""
"","","","","","html-keyboard-response","82","260884","0.0-82.0","160F3210920D4FA183BBBDB1324B866C","019cf734-7264-7f32-9786-a2a8d0e09ab4","019cf72b-10ed-72e0-84f6-c0a47968aa70","","null","
                <div class=""stimulus-container"">
                    <img src=""images/schematic_sequence/supermarket_scheme/supermarket_scheme_2.png"" class=""exp-image"">
                    <div class=""question-area""></div> 
                </div>","null","","","","","","","","",""
"","","","","","html-button-response","83","261683","0.0-83.0","160F3210920D4FA183BBBDB1324B866C","019cf734-7264-7f32-9786-a2a8d0e09ab4","019cf72b-10ed-72e0-84f6-c0a47968aa70","","797","
                <div class=""stimulus-container"">
                    <img src=""images/schematic_sequence/supermarket_scheme/supermarket_scheme_2.png"" class=""exp-image"">
                    <div class=""question-area"">
                        <p style=""font-size: 20px; font-weight: bold; margin: 0;"">Is there a person in this image?</p>
                    </div>
                </div>","1","main_experiment_trial","2","supermarket_scheme","schematic_sequence","","","","",""
"","","","","","html-keyboard-response","84","266686","0.0-84.0","160F3210920D4FA183BBBDB1324B866C","019cf734-7264-7f32-9786-a2a8d0e09ab4","019cf72b-10ed-72e0-84f6-c0a47968aa70","","null","
                <div class=""stimulus-container"">
                    <img src=""images/schematic_sequence/supermarket_scheme/supermarket_scheme_3.png"" class=""exp-image"">
                    <div class=""question-area""></div> 
                </div>","null","","","","","","","","",""
"","","","","","html-button-response","85","267350","0.0-85.0","160F3210920D4FA183BBBDB1324B866C","019cf734-7264-7f32-9786-a2a8d0e09ab4","019cf72b-10ed-72e0-84f6-c0a47968aa70","","662","
                <div class=""stimulus-container"">
                    <img src=""images/schematic_sequence/supermarket_scheme/supermarket_scheme_3.png"" class=""exp-image"">
                    <div class=""question-area"">
                        <p style=""font-size: 20px; font-weight: bold; margin: 0;"">Is there a person in this image?</p>
                    </div>
                </div>","1","main_experiment_trial","3","supermarket_scheme","schematic_sequence","","","","",""
"","","","","","html-keyboard-response","86","272352","0.0-86.0","160F3210920D4FA183BBBDB1324B866C","019cf734-7264-7f32-9786-a2a8d0e09ab4","019cf72b-10ed-72e0-84f6-c0a47968aa70","","null","
                <div class=""stimulus-container"">
                    <img src=""images/schematic_sequence/supermarket_scheme/supermarket_scheme_4.png"" class=""exp-image"">
                    <div class=""question-area""></div> 
                </div>","null","","","","","","","","",""
"","","","","","html-button-response","87","273280","0.0-87.0","160F3210920D4FA183BBBDB1324B866C","019cf734-7264-7f32-9786-a2a8d0e09ab4","019cf72b-10ed-72e0-84f6-c0a47968aa70","","926","
                <div class=""stimulus-container"">
                    <img src=""images/schematic_sequence/supermarket_scheme/supermarket_scheme_4.png"" class=""exp-image"">
                    <div class=""question-area"">
                        <p style=""font-size: 20px; font-weight: bold; margin: 0;"">Is there a person in this image?</p>
                    </div>
                </div>","0","main_experiment_trial","4","supermarket_scheme","schematic_sequence","","","","",""
"","","","","","html-keyboard-response","88","278282","0.0-88.0","160F3210920D4FA183BBBDB1324B866C","019cf734-7264-7f32-9786-a2a8d0e09ab4","019cf72b-10ed-72e0-84f6-c0a47968aa70","","null","
                <div class=""stimulus-container"">
                    <img src=""images/schematic_sequence/supermarket_scheme/supermarket_scheme_5.png"" class=""exp-image"">
                    <div class=""question-area""></div> 
                </div>","null","","","","","","","","",""
"","","","","","html-button-response","89","279114","0.0-89.0","160F3210920D4FA183BBBDB1324B866C","019cf734-7264-7f32-9786-a2a8d0e09ab4","019cf72b-10ed-72e0-84f6-c0a47968aa70","","829","
                <div class=""stimulus-container"">
                    <img src=""images/schematic_sequence/supermarket_scheme/supermarket_scheme_5.png"" class=""exp-image"">
                    <div class=""question-area"">
                        <p style=""font-size: 20px; font-weight: bold; margin: 0;"">Is there a person in this image?</p>
                    </div>
                </div>","1","main_experiment_trial","5","supermarket_scheme","schematic_sequence","","","","",""
"","","","","","html-keyboard-response","90","284115","0.0-90.0","160F3210920D4FA183BBBDB1324B866C","019cf734-7264-7f32-9786-a2a8d0e09ab4","019cf72b-10ed-72e0-84f6-c0a47968aa70","","null","
                <div class=""stimulus-container"">
                    <img src=""images/schematic_sequence/supermarket_scheme/supermarket_scheme_6.png"" class=""exp-image"">
                    <div class=""question-area""></div> 
                </div>","null","","","","","","","","",""
"","","","","","html-button-response","91","285011","0.0-91.0","160F3210920D4FA183BBBDB1324B866C","019cf734-7264-7f32-9786-a2a8d0e09ab4","019cf72b-10ed-72e0-84f6-c0a47968aa70","","894","
                <div class=""stimulus-container"">
                    <img src=""images/schematic_sequence/supermarket_scheme/supermarket_scheme_6.png"" class=""exp-image"">
                    <div class=""question-area"">
                        <p style=""font-size: 20px; font-weight: bold; margin: 0;"">Is there a person in this image?</p>
                    </div>
                </div>","0","main_experiment_trial","6","supermarket_scheme","schematic_sequence","","","","",""
"","","","","","html-keyboard-response","92","290014","0.0-92.0","160F3210920D4FA183BBBDB1324B866C","019cf734-7264-7f32-9786-a2a8d0e09ab4","019cf72b-10ed-72e0-84f6-c0a47968aa70","","null","
                <div class=""stimulus-container"">
                    <img src=""images/schematic_sequence/supermarket_scheme/supermarket_scheme_7.png"" class=""exp-image"">
                    <div class=""question-area""></div> 
                </div>","null","","","","","","","","",""
"","","","","","html-button-response","93","291111","0.0-93.0","160F3210920D4FA183BBBDB1324B866C","019cf734-7264-7f32-9786-a2a8d0e09ab4","019cf72b-10ed-72e0-84f6-c0a47968aa70","","1095","
                <div class=""stimulus-container"">
                    <img src=""images/schematic_sequence/supermarket_scheme/supermarket_scheme_7.png"" class=""exp-image"">
                    <div class=""question-area"">
                        <p style=""font-size: 20px; font-weight: bold; margin: 0;"">Is there a person in this image?</p>
                    </div>
                </div>","0","main_experiment_trial","7","supermarket_scheme","schematic_sequence","","","","",""
"","","","","","html-keyboard-response","94","296113","0.0-94.0","160F3210920D4FA183BBBDB1324B866C","019cf734-7264-7f32-9786-a2a8d0e09ab4","019cf72b-10ed-72e0-84f6-c0a47968aa70","","null","
                <div class=""stimulus-container"">
                    <img src=""images/schematic_sequence/supermarket_scheme/supermarket_scheme_8.png"" class=""exp-image"">
                    <div class=""question-area""></div> 
                </div>","null","","","","","","","","",""
"","","","","","html-button-response","95","296750","0.0-95.0","160F3210920D4FA183BBBDB1324B866C","019cf734-7264-7f32-9786-a2a8d0e09ab4","019cf72b-10ed-72e0-84f6-c0a47968aa70","","635","
                <div class=""stimulus-container"">
                    <img src=""images/schematic_sequence/supermarket_scheme/supermarket_scheme_8.png"" class=""exp-image"">
                    <div class=""question-area"">
                        <p style=""font-size: 20px; font-weight: bold; margin: 0;"">Is there a person in this image?</p>
                    </div>
                </div>","0","main_experiment_trial","8","supermarket_scheme","schematic_sequence","","","","",""
"","","","","","html-keyboard-response","96","301753","0.0-96.0","160F3210920D4FA183BBBDB1324B866C","019cf734-7264-7f32-9786-a2a8d0e09ab4","019cf72b-10ed-72e0-84f6-c0a47968aa70","","null","
                <div class=""stimulus-container"">
                    <img src=""images/schematic_sequence/supermarket_scheme/supermarket_scheme_9.png"" class=""exp-image"">
                    <div class=""question-area""></div> 
                </div>","null","","","","","","","","",""
"","","","","","html-button-response","97","302528","0.0-97.0","160F3210920D4FA183BBBDB1324B866C","019cf734-7264-7f32-9786-a2a8d0e09ab4","019cf72b-10ed-72e0-84f6-c0a47968aa70","","773","
                <div class=""stimulus-container"">
                    <img src=""images/schematic_sequence/supermarket_scheme/supermarket_scheme_9.png"" class=""exp-image"">
                    <div class=""question-area"">
                        <p style=""font-size: 20px; font-weight: bold; margin: 0;"">Is there a person in this image?</p>
                    </div>
                </div>","0","main_experiment_trial","9","supermarket_scheme","schematic_sequence","","","","",""
"","","","","","html-keyboard-response","98","307530","0.0-98.0","160F3210920D4FA183BBBDB1324B866C","019cf734-7264-7f32-9786-a2a8d0e09ab4","019cf72b-10ed-72e0-84f6-c0a47968aa70","","null","
                <div class=""stimulus-container"">
                    <img src=""images/schematic_sequence/supermarket_scheme/supermarket_scheme_ten.png"" class=""exp-image"">
                    <div class=""question-area""></div> 
                </div>","null","","","","","","","","",""
"","","","","","html-button-response","99","309055","0.0-99.0","160F3210920D4FA183BBBDB1324B866C","019cf734-7264-7f32-9786-a2a8d0e09ab4","019cf72b-10ed-72e0-84f6-c0a47968aa70","","1523","
                <div class=""stimulus-container"">
                    <img src=""images/schematic_sequence/supermarket_scheme/supermarket_scheme_ten.png"" class=""exp-image"">
                    <div class=""question-area"">
                        <p style=""font-size: 20px; font-weight: bold; margin: 0;"">Is there a person in this image?</p>
                    </div>
                </div>","1","main_experiment_trial","ten","supermarket_scheme","schematic_sequence","","","","",""
"","","","","","html-keyboard-response","100","310056","0.0-100.0","160F3210920D4FA183BBBDB1324B866C","019cf734-7264-7f32-9786-a2a8d0e09ab4","019cf72b-10ed-72e0-84f6-c0a47968aa70","","null","<div style=""background-color: white; width: 100vw; height: 100vh;""></div>","null","","","","","","","","",""
"","","","","","html-keyboard-response","101","315058","0.0-101.0","160F3210920D4FA183BBBDB1324B866C","019cf734-7264-7f32-9786-a2a8d0e09ab4","019cf72b-10ed-72e0-84f6-c0a47968aa70","","null","
                <div class=""stimulus-container"">
                    <img src=""images/causal_sequence/dog_causal/dog_causal_1.png"" class=""exp-image"">
                    <div class=""question-area""></div> 
                </div>","null","","","","","","","","",""
"","","","","","html-button-response","102","315954","0.0-102.0","160F3210920D4FA183BBBDB1324B866C","019cf734-7264-7f32-9786-a2a8d0e09ab4","019cf72b-10ed-72e0-84f6-c0a47968aa70","","894","
                <div class=""stimulus-container"">
                    <img src=""images/causal_sequence/dog_causal/dog_causal_1.png"" class=""exp-image"">
                    <div class=""question-area"">
                        <p style=""font-size: 20px; font-weight: bold; margin: 0;"">Is there a person in this image?</p>
                    </div>
                </div>","0","main_experiment_trial","1","dog_causal","causal_sequence","","","","",""
"","","","","","html-keyboard-response","103","320956","0.0-103.0","160F3210920D4FA183BBBDB1324B866C","019cf734-7264-7f32-9786-a2a8d0e09ab4","019cf72b-10ed-72e0-84f6-c0a47968aa70","","null","
                <div class=""stimulus-container"">
                    <img src=""images/causal_sequence/dog_causal/dog_causal_2.png"" class=""exp-image"">
                    <div class=""question-area""></div> 
                </div>","null","","","","","","","","",""
"","","","","","html-button-response","104","321820","0.0-104.0","160F3210920D4FA183BBBDB1324B866C","019cf734-7264-7f32-9786-a2a8d0e09ab4","019cf72b-10ed-72e0-84f6-c0a47968aa70","","861","
                <div class=""stimulus-container"">
                    <img src=""images/causal_sequence/dog_causal/dog_causal_2.png"" class=""exp-image"">
                    <div class=""question-area"">
                        <p style=""font-size: 20px; font-weight: bold; margin: 0;"">Is there a person in this image?</p>
                    </div>
                </div>","0","main_experiment_trial","2","dog_causal","causal_sequence","","","","",""
"","","","","","html-keyboard-response","105","326822","0.0-105.0","160F3210920D4FA183BBBDB1324B866C","019cf734-7264-7f32-9786-a2a8d0e09ab4","019cf72b-10ed-72e0-84f6-c0a47968aa70","","null","
                <div class=""stimulus-container"">
                    <img src=""images/causal_sequence/dog_causal/dog_causal_3.png"" class=""exp-image"">
                    <div class=""question-area""></div> 
                </div>","null","","","","","","","","",""
"","","","","","html-button-response","106","327589","0.0-106.0","160F3210920D4FA183BBBDB1324B866C","019cf734-7264-7f32-9786-a2a8d0e09ab4","019cf72b-10ed-72e0-84f6-c0a47968aa70","","765","
                <div class=""stimulus-container"">
                    <img src=""images/causal_sequence/dog_causal/dog_causal_3.png"" class=""exp-image"">
                    <div class=""question-area"">
                        <p style=""font-size: 20px; font-weight: bold; margin: 0;"">Is there a person in this image?</p>
                    </div>
                </div>","0","main_experiment_trial","3","dog_causal","causal_sequence","","","","",""
"","","","","","html-keyboard-response","107","332591","0.0-107.0","160F3210920D4FA183BBBDB1324B866C","019cf734-7264-7f32-9786-a2a8d0e09ab4","019cf72b-10ed-72e0-84f6-c0a47968aa70","","null","
                <div class=""stimulus-container"">
                    <img src=""images/causal_sequence/dog_causal/dog_causal_4.png"" class=""exp-image"">
                    <div class=""question-area""></div> 
                </div>","null","","","","","","","","",""
"","","","","","html-button-response","108","333169","0.0-108.0","160F3210920D4FA183BBBDB1324B866C","019cf734-7264-7f32-9786-a2a8d0e09ab4","019cf72b-10ed-72e0-84f6-c0a47968aa70","","576","
                <div class=""stimulus-container"">
                    <img src=""images/causal_sequence/dog_causal/dog_causal_4.png"" class=""exp-image"">
                    <div class=""question-area"">
                        <p style=""font-size: 20px; font-weight: bold; margin: 0;"">Is there a person in this image?</p>
                    </div>
                </div>","0","main_experiment_trial","4","dog_causal","causal_sequence","","","","",""
"","","","","","html-keyboard-response","109","338171","0.0-109.0","160F3210920D4FA183BBBDB1324B866C","019cf734-7264-7f32-9786-a2a8d0e09ab4","019cf72b-10ed-72e0-84f6-c0a47968aa70","","null","
                <div class=""stimulus-container"">
                    <img src=""images/causal_sequence/dog_causal/dog_causal_5.png"" class=""exp-image"">
                    <div class=""question-area""></div> 
                </div>","null","","","","","","","","",""
"","","","","","html-button-response","110","339036","0.0-110.0","160F3210920D4FA183BBBDB1324B866C","019cf734-7264-7f32-9786-a2a8d0e09ab4","019cf72b-10ed-72e0-84f6-c0a47968aa70","","862","
                <div class=""stimulus-container"">
                    <img src=""images/causal_sequence/dog_causal/dog_causal_5.png"" class=""exp-image"">
                    <div class=""question-area"">
                        <p style=""font-size: 20px; font-weight: bold; margin: 0;"">Is there a person in this image?</p>
                    </div>
                </div>","0","main_experiment_trial","5","dog_causal","causal_sequence","","","","",""
"","","","","","html-keyboard-response","111","344040","0.0-111.0","160F3210920D4FA183BBBDB1324B866C","019cf734-7264-7f32-9786-a2a8d0e09ab4","019cf72b-10ed-72e0-84f6-c0a47968aa70","","null","
                <div class=""stimulus-container"">
                    <img src=""images/causal_sequence/dog_causal/dog_causal_6.png"" class=""exp-image"">
                    <div class=""question-area""></div> 
                </div>","null","","","","","","","","",""
"","","","","","html-button-response","112","344674","0.0-112.0","160F3210920D4FA183BBBDB1324B866C","019cf734-7264-7f32-9786-a2a8d0e09ab4","019cf72b-10ed-72e0-84f6-c0a47968aa70","","631","
                <div class=""stimulus-container"">
                    <img src=""images/causal_sequence/dog_causal/dog_causal_6.png"" class=""exp-image"">
                    <div class=""question-area"">
                        <p style=""font-size: 20px; font-weight: bold; margin: 0;"">Is there a person in this image?</p>
                    </div>
                </div>","0","main_experiment_trial","6","dog_causal","causal_sequence","","","","",""
"","","","","","html-keyboard-response","113","349676","0.0-113.0","160F3210920D4FA183BBBDB1324B866C","019cf734-7264-7f32-9786-a2a8d0e09ab4","019cf72b-10ed-72e0-84f6-c0a47968aa70","","null","
                <div class=""stimulus-container"">
                    <img src=""images/causal_sequence/dog_causal/dog_causal_7.png"" class=""exp-image"">
                    <div class=""question-area""></div> 
                </div>","null","","","","","","","","",""
"","","","","","html-button-response","114","350336","0.0-114.0","160F3210920D4FA183BBBDB1324B866C","019cf734-7264-7f32-9786-a2a8d0e09ab4","019cf72b-10ed-72e0-84f6-c0a47968aa70","","658","
                <div class=""stimulus-container"">
                    <img src=""images/causal_sequence/dog_causal/dog_causal_7.png"" class=""exp-image"">
                    <div class=""question-area"">
                        <p style=""font-size: 20px; font-weight: bold; margin: 0;"">Is there a person in this image?</p>
                    </div>
                </div>","0","main_experiment_trial","7","dog_causal","causal_sequence","","","","",""
"","","","","","html-keyboard-response","115","355338","0.0-115.0","160F3210920D4FA183BBBDB1324B866C","019cf734-7264-7f32-9786-a2a8d0e09ab4","019cf72b-10ed-72e0-84f6-c0a47968aa70","","null","
                <div class=""stimulus-container"">
                    <img src=""images/causal_sequence/dog_causal/dog_causal_8.png"" class=""exp-image"">
                    <div class=""question-area""></div> 
                </div>","null","","","","","","","","",""
"","","","","","html-button-response","116","355882","0.0-116.0","160F3210920D4FA183BBBDB1324B866C","019cf734-7264-7f32-9786-a2a8d0e09ab4","019cf72b-10ed-72e0-84f6-c0a47968aa70","","543","
                <div class=""stimulus-container"">
                    <img src=""images/causal_sequence/dog_causal/dog_causal_8.png"" class=""exp-image"">
                    <div class=""question-area"">
                        <p style=""font-size: 20px; font-weight: bold; margin: 0;"">Is there a person in this image?</p>
                    </div>
                </div>","0","main_experiment_trial","8","dog_causal","causal_sequence","","","","",""
"","","","","","html-keyboard-response","117","360884","0.0-117.0","160F3210920D4FA183BBBDB1324B866C","019cf734-7264-7f32-9786-a2a8d0e09ab4","019cf72b-10ed-72e0-84f6-c0a47968aa70","","null","
                <div class=""stimulus-container"">
                    <img src=""images/causal_sequence/dog_causal/dog_causal_9.png"" class=""exp-image"">
                    <div class=""question-area""></div> 
                </div>","null","","","","","","","","",""
"","","","","","html-button-response","118","361590","0.0-118.0","160F3210920D4FA183BBBDB1324B866C","019cf734-7264-7f32-9786-a2a8d0e09ab4","019cf72b-10ed-72e0-84f6-c0a47968aa70","","703","
                <div class=""stimulus-container"">
                    <img src=""images/causal_sequence/dog_causal/dog_causal_9.png"" class=""exp-image"">
                    <div class=""question-area"">
                        <p style=""font-size: 20px; font-weight: bold; margin: 0;"">Is there a person in this image?</p>
                    </div>
                </div>","0","main_experiment_trial","9","dog_causal","causal_sequence","","","","",""
"","","","","","html-keyboard-response","119","366592","0.0-119.0","160F3210920D4FA183BBBDB1324B866C","019cf734-7264-7f32-9786-a2a8d0e09ab4","019cf72b-10ed-72e0-84f6-c0a47968aa70","","null","
                <div class=""stimulus-container"">
                    <img src=""images/causal_sequence/dog_causal/dog_causal_ten.png"" class=""exp-image"">
                    <div class=""question-area""></div> 
                </div>","null","","","","","","","","",""
"","","","","","html-button-response","120","367484","0.0-120.0","160F3210920D4FA183BBBDB1324B866C","019cf734-7264-7f32-9786-a2a8d0e09ab4","019cf72b-10ed-72e0-84f6-c0a47968aa70","","890","
                <div class=""stimulus-container"">
                    <img src=""images/causal_sequence/dog_causal/dog_causal_ten.png"" class=""exp-image"">
                    <div class=""question-area"">
                        <p style=""font-size: 20px; font-weight: bold; margin: 0;"">Is there a person in this image?</p>
                    </div>
                </div>","0","main_experiment_trial","ten","dog_causal","causal_sequence","","","","",""
"","","","","","html-keyboard-response","121","368485","0.0-121.0","160F3210920D4FA183BBBDB1324B866C","019cf734-7264-7f32-9786-a2a8d0e09ab4","019cf72b-10ed-72e0-84f6-c0a47968aa70","","null","<div style=""background-color: white; width: 100vw; height: 100vh;""></div>","null","","","","","","","","",""
"","","","","","html-keyboard-response","122","373487","0.0-122.0","160F3210920D4FA183BBBDB1324B866C","019cf734-7264-7f32-9786-a2a8d0e09ab4","019cf72b-10ed-72e0-84f6-c0a47968aa70","","null","
                <div class=""stimulus-container"">
                    <img src=""images/schematic_sequence/dinner_party_scheme/dinner_party_scheme_1.png"" class=""exp-image"">
                    <div class=""question-area""></div> 
                </div>","null","","","","","","","","",""
"","","","","","html-button-response","123","374152","0.0-123.0","160F3210920D4FA183BBBDB1324B866C","019cf734-7264-7f32-9786-a2a8d0e09ab4","019cf72b-10ed-72e0-84f6-c0a47968aa70","","662","
                <div class=""stimulus-container"">
                    <img src=""images/schematic_sequence/dinner_party_scheme/dinner_party_scheme_1.png"" class=""exp-image"">
                    <div class=""question-area"">
                        <p style=""font-size: 20px; font-weight: bold; margin: 0;"">Is there a person in this image?</p>
                    </div>
                </div>","0","main_experiment_trial","1","dinner_party_scheme","schematic_sequence","","","","",""
"","","","","","html-keyboard-response","124","379154","0.0-124.0","160F3210920D4FA183BBBDB1324B866C","019cf734-7264-7f32-9786-a2a8d0e09ab4","019cf72b-10ed-72e0-84f6-c0a47968aa70","","null","
                <div class=""stimulus-container"">
                    <img src=""images/schematic_sequence/dinner_party_scheme/dinner_party_scheme_2.png"" class=""exp-image"">
                    <div class=""question-area""></div> 
                </div>","null","","","","","","","","",""
"","","","","","html-button-response","125","379876","0.0-125.0","160F3210920D4FA183BBBDB1324B866C","019cf734-7264-7f32-9786-a2a8d0e09ab4","019cf72b-10ed-72e0-84f6-c0a47968aa70","","720","
                <div class=""stimulus-container"">
                    <img src=""images/schematic_sequence/dinner_party_scheme/dinner_party_scheme_2.png"" class=""exp-image"">
                    <div class=""question-area"">
                        <p style=""font-size: 20px; font-weight: bold; margin: 0;"">Is there a person in this image?</p>
                    </div>
                </div>","0","main_experiment_trial","2","dinner_party_scheme","schematic_sequence","","","","",""
"","","","","","html-keyboard-response","126","384878","0.0-126.0","160F3210920D4FA183BBBDB1324B866C","019cf734-7264-7f32-9786-a2a8d0e09ab4","019cf72b-10ed-72e0-84f6-c0a47968aa70","","null","
                <div class=""stimulus-container"">
                    <img src=""images/schematic_sequence/dinner_party_scheme/dinner_party_scheme_3.png"" class=""exp-image"">
                    <div class=""question-area""></div> 
                </div>","null","","","","","","","","",""
"","","","","","html-button-response","127","385453","0.0-127.0","160F3210920D4FA183BBBDB1324B866C","019cf734-7264-7f32-9786-a2a8d0e09ab4","019cf72b-10ed-72e0-84f6-c0a47968aa70","","572","
                <div class=""stimulus-container"">
                    <img src=""images/schematic_sequence/dinner_party_scheme/dinner_party_scheme_3.png"" class=""exp-image"">
                    <div class=""question-area"">
                        <p style=""font-size: 20px; font-weight: bold; margin: 0;"">Is there a person in this image?</p>
                    </div>
                </div>","0","main_experiment_trial","3","dinner_party_scheme","schematic_sequence","","","","",""
"","","","","","html-keyboard-response","128","390455","0.0-128.0","160F3210920D4FA183BBBDB1324B866C","019cf734-7264-7f32-9786-a2a8d0e09ab4","019cf72b-10ed-72e0-84f6-c0a47968aa70","","null","
                <div class=""stimulus-container"">
                    <img src=""images/schematic_sequence/dinner_party_scheme/dinner_party_scheme_4.png"" class=""exp-image"">
                    <div class=""question-area""></div> 
                </div>","null","","","","","","","","",""
"","","","","","html-button-response","129","391016","0.0-129.0","160F3210920D4FA183BBBDB1324B866C","019cf734-7264-7f32-9786-a2a8d0e09ab4","019cf72b-10ed-72e0-84f6-c0a47968aa70","","558","
                <div class=""stimulus-container"">
                    <img src=""images/schematic_sequence/dinner_party_scheme/dinner_party_scheme_4.png"" class=""exp-image"">
                    <div class=""question-area"">
                        <p style=""font-size: 20px; font-weight: bold; margin: 0;"">Is there a person in this image?</p>
                    </div>
                </div>","0","main_experiment_trial","4","dinner_party_scheme","schematic_sequence","","","","",""
"","","","","","html-keyboard-response","130","396018","0.0-130.0","160F3210920D4FA183BBBDB1324B866C","019cf734-7264-7f32-9786-a2a8d0e09ab4","019cf72b-10ed-72e0-84f6-c0a47968aa70","","null","
                <div class=""stimulus-container"">
                    <img src=""images/schematic_sequence/dinner_party_scheme/dinner_party_scheme_5.png"" class=""exp-image"">
                    <div class=""question-area""></div> 
                </div>","null","","","","","","","","",""
"","","","","","html-button-response","131","396649","0.0-131.0","160F3210920D4FA183BBBDB1324B866C","019cf734-7264-7f32-9786-a2a8d0e09ab4","019cf72b-10ed-72e0-84f6-c0a47968aa70","","629","
                <div class=""stimulus-container"">
                    <img src=""images/schematic_sequence/dinner_party_scheme/dinner_party_scheme_5.png"" class=""exp-image"">
                    <div class=""question-area"">
                        <p style=""font-size: 20px; font-weight: bold; margin: 0;"">Is there a person in this image?</p>
                    </div>
                </div>","0","main_experiment_trial","5","dinner_party_scheme","schematic_sequence","","","","",""
"","","","","","html-keyboard-response","132","401654","0.0-132.0","160F3210920D4FA183BBBDB1324B866C","019cf734-7264-7f32-9786-a2a8d0e09ab4","019cf72b-10ed-72e0-84f6-c0a47968aa70","","null","
                <div class=""stimulus-container"">
                    <img src=""images/schematic_sequence/dinner_party_scheme/dinner_party_scheme_6.png"" class=""exp-image"">
                    <div class=""question-area""></div> 
                </div>","null","","","","","","","","",""
"","","","","","html-button-response","133","402466","0.0-133.0","160F3210920D4FA183BBBDB1324B866C","019cf734-7264-7f32-9786-a2a8d0e09ab4","019cf72b-10ed-72e0-84f6-c0a47968aa70","","809","
                <div class=""stimulus-container"">
                    <img src=""images/schematic_sequence/dinner_party_scheme/dinner_party_scheme_6.png"" class=""exp-image"">
                    <div class=""question-area"">
                        <p style=""font-size: 20px; font-weight: bold; margin: 0;"">Is there a person in this image?</p>
                    </div>
                </div>","0","main_experiment_trial","6","dinner_party_scheme","schematic_sequence","","","","",""
"","","","","","html-keyboard-response","134","407468","0.0-134.0","160F3210920D4FA183BBBDB1324B866C","019cf734-7264-7f32-9786-a2a8d0e09ab4","019cf72b-10ed-72e0-84f6-c0a47968aa70","","null","
                <div class=""stimulus-container"">
                    <img src=""images/schematic_sequence/dinner_party_scheme/dinner_party_scheme_7.png"" class=""exp-image"">
                    <div class=""question-area""></div> 
                </div>","null","","","","","","","","",""
"","","","","","html-button-response","135","408142","0.0-135.0","160F3210920D4FA183BBBDB1324B866C","019cf734-7264-7f32-9786-a2a8d0e09ab4","019cf72b-10ed-72e0-84f6-c0a47968aa70","","671","
                <div class=""stimulus-container"">
                    <img src=""images/schematic_sequence/dinner_party_scheme/dinner_party_scheme_7.png"" class=""exp-image"">
                    <div class=""question-area"">
                        <p style=""font-size: 20px; font-weight: bold; margin: 0;"">Is there a person in this image?</p>
                    </div>
                </div>","0","main_experiment_trial","7","dinner_party_scheme","schematic_sequence","","","","",""
"","","","","","html-keyboard-response","136","413146","0.0-136.0","160F3210920D4FA183BBBDB1324B866C","019cf734-7264-7f32-9786-a2a8d0e09ab4","019cf72b-10ed-72e0-84f6-c0a47968aa70","","null","
                <div class=""stimulus-container"">
                    <img src=""images/schematic_sequence/dinner_party_scheme/dinner_party_scheme_8.png"" class=""exp-image"">
                    <div class=""question-area""></div> 
                </div>","null","","","","","","","","",""
"","","","","","html-button-response","137","413694","0.0-137.0","160F3210920D4FA183BBBDB1324B866C","019cf734-7264-7f32-9786-a2a8d0e09ab4","019cf72b-10ed-72e0-84f6-c0a47968aa70","","546","
                <div class=""stimulus-container"">
                    <img src=""images/schematic_sequence/dinner_party_scheme/dinner_party_scheme_8.png"" class=""exp-image"">
                    <div class=""question-area"">
                        <p style=""font-size: 20px; font-weight: bold; margin: 0;"">Is there a person in this image?</p>
                    </div>
                </div>","0","main_experiment_trial","8","dinner_party_scheme","schematic_sequence","","","","",""
"","","","","","html-keyboard-response","138","418697","0.0-138.0","160F3210920D4FA183BBBDB1324B866C","019cf734-7264-7f32-9786-a2a8d0e09ab4","019cf72b-10ed-72e0-84f6-c0a47968aa70","","null","
                <div class=""stimulus-container"">
                    <img src=""images/schematic_sequence/dinner_party_scheme/dinner_party_scheme_9.png"" class=""exp-image"">
                    <div class=""question-area""></div> 
                </div>","null","","","","","","","","",""
"","","","","","html-button-response","139","419264","0.0-139.0","160F3210920D4FA183BBBDB1324B866C","019cf734-7264-7f32-9786-a2a8d0e09ab4","019cf72b-10ed-72e0-84f6-c0a47968aa70","","566","
                <div class=""stimulus-container"">
                    <img src=""images/schematic_sequence/dinner_party_scheme/dinner_party_scheme_9.png"" class=""exp-image"">
                    <div class=""question-area"">
                        <p style=""font-size: 20px; font-weight: bold; margin: 0;"">Is there a person in this image?</p>
                    </div>
                </div>","0","main_experiment_trial","9","dinner_party_scheme","schematic_sequence","","","","",""
"","","","","","html-keyboard-response","140","424266","0.0-140.0","160F3210920D4FA183BBBDB1324B866C","019cf734-7264-7f32-9786-a2a8d0e09ab4","019cf72b-10ed-72e0-84f6-c0a47968aa70","","null","
                <div class=""stimulus-container"">
                    <img src=""images/schematic_sequence/dinner_party_scheme/dinner_party_scheme_ten.png"" class=""exp-image"">
                    <div class=""question-area""></div> 
                </div>","null","","","","","","","","",""
"","","","","","html-button-response","141","424957","0.0-141.0","160F3210920D4FA183BBBDB1324B866C","019cf734-7264-7f32-9786-a2a8d0e09ab4","019cf72b-10ed-72e0-84f6-c0a47968aa70","","688","
                <div class=""stimulus-container"">
                    <img src=""images/schematic_sequence/dinner_party_scheme/dinner_party_scheme_ten.png"" class=""exp-image"">
                    <div class=""question-area"">
                        <p style=""font-size: 20px; font-weight: bold; margin: 0;"">Is there a person in this image?</p>
                    </div>
                </div>","0","main_experiment_trial","ten","dinner_party_scheme","schematic_sequence","","","","",""
"","","","","","html-keyboard-response","142","425959","0.0-142.0","160F3210920D4FA183BBBDB1324B866C","019cf734-7264-7f32-9786-a2a8d0e09ab4","019cf72b-10ed-72e0-84f6-c0a47968aa70","","null","<div style=""background-color: white; width: 100vw; height: 100vh;""></div>","null","","","","","","","","",""
"","","","","","html-keyboard-response","143","430961","0.0-143.0","160F3210920D4FA183BBBDB1324B866C","019cf734-7264-7f32-9786-a2a8d0e09ab4","019cf72b-10ed-72e0-84f6-c0a47968aa70","","null","
                <div class=""stimulus-container"">
                    <img src=""images/schematic_sequence/flight_scheme/flight_scheme_1.png"" class=""exp-image"">
                    <div class=""question-area""></div> 
                </div>","null","","","","","","","","",""
"","","","","","html-button-response","144","431888","0.0-144.0","160F3210920D4FA183BBBDB1324B866C","019cf734-7264-7f32-9786-a2a8d0e09ab4","019cf72b-10ed-72e0-84f6-c0a47968aa70","","925","
                <div class=""stimulus-container"">
                    <img src=""images/schematic_sequence/flight_scheme/flight_scheme_1.png"" class=""exp-image"">
                    <div class=""question-area"">
                        <p style=""font-size: 20px; font-weight: bold; margin: 0;"">Is there a person in this image?</p>
                    </div>
                </div>","0","main_experiment_trial","1","flight_scheme","schematic_sequence","","","","",""
"","","","","","html-keyboard-response","145","436891","0.0-145.0","160F3210920D4FA183BBBDB1324B866C","019cf734-7264-7f32-9786-a2a8d0e09ab4","019cf72b-10ed-72e0-84f6-c0a47968aa70","","null","
                <div class=""stimulus-container"">
                    <img src=""images/schematic_sequence/flight_scheme/flight_scheme_2.png"" class=""exp-image"">
                    <div class=""question-area""></div> 
                </div>","null","","","","","","","","",""
"","","","","","html-button-response","146","437523","0.0-146.0","160F3210920D4FA183BBBDB1324B866C","019cf734-7264-7f32-9786-a2a8d0e09ab4","019cf72b-10ed-72e0-84f6-c0a47968aa70","","629","
                <div class=""stimulus-container"">
                    <img src=""images/schematic_sequence/flight_scheme/flight_scheme_2.png"" class=""exp-image"">
                    <div class=""question-area"">
                        <p style=""font-size: 20px; font-weight: bold; margin: 0;"">Is there a person in this image?</p>
                    </div>
                </div>","1","main_experiment_trial","2","flight_scheme","schematic_sequence","","","","",""
"","","","","","html-keyboard-response","147","442526","0.0-147.0","160F3210920D4FA183BBBDB1324B866C","019cf734-7264-7f32-9786-a2a8d0e09ab4","019cf72b-10ed-72e0-84f6-c0a47968aa70","","null","
                <div class=""stimulus-container"">
                    <img src=""images/schematic_sequence/flight_scheme/flight_scheme_3.png"" class=""exp-image"">
                    <div class=""question-area""></div> 
                </div>","null","","","","","","","","",""
"","","","","","html-button-response","148","443111","0.0-148.0","160F3210920D4FA183BBBDB1324B866C","019cf734-7264-7f32-9786-a2a8d0e09ab4","019cf72b-10ed-72e0-84f6-c0a47968aa70","","584","
                <div class=""stimulus-container"">
                    <img src=""images/schematic_sequence/flight_scheme/flight_scheme_3.png"" class=""exp-image"">
                    <div class=""question-area"">
                        <p style=""font-size: 20px; font-weight: bold; margin: 0;"">Is there a person in this image?</p>
                    </div>
                </div>","0","main_experiment_trial","3","flight_scheme","schematic_sequence","","","","",""
"","","","","","html-keyboard-response","149","448114","0.0-149.0","160F3210920D4FA183BBBDB1324B866C","019cf734-7264-7f32-9786-a2a8d0e09ab4","019cf72b-10ed-72e0-84f6-c0a47968aa70","","null","
                <div class=""stimulus-container"">
                    <img src=""images/schematic_sequence/flight_scheme/flight_scheme_4.png"" class=""exp-image"">
                    <div class=""question-area""></div> 
                </div>","null","","","","","","","","",""
"","","","","","html-button-response","150","448694","0.0-150.0","160F3210920D4FA183BBBDB1324B866C","019cf734-7264-7f32-9786-a2a8d0e09ab4","019cf72b-10ed-72e0-84f6-c0a47968aa70","","578","
                <div class=""stimulus-container"">
                    <img src=""images/schematic_sequence/flight_scheme/flight_scheme_4.png"" class=""exp-image"">
                    <div class=""question-area"">
                        <p style=""font-size: 20px; font-weight: bold; margin: 0;"">Is there a person in this image?</p>
                    </div>
                </div>","0","main_experiment_trial","4","flight_scheme","schematic_sequence","","","","",""
"","","","","","html-keyboard-response","151","453697","0.0-151.0","160F3210920D4FA183BBBDB1324B866C","019cf734-7264-7f32-9786-a2a8d0e09ab4","019cf72b-10ed-72e0-84f6-c0a47968aa70","","null","
                <div class=""stimulus-container"">
                    <img src=""images/schematic_sequence/flight_scheme/flight_scheme_5.png"" class=""exp-image"">
                    <div class=""question-area""></div> 
                </div>","null","","","","","","","","",""
"","","","","","html-button-response","152","454311","0.0-152.0","160F3210920D4FA183BBBDB1324B866C","019cf734-7264-7f32-9786-a2a8d0e09ab4","019cf72b-10ed-72e0-84f6-c0a47968aa70","","611","
                <div class=""stimulus-container"">
                    <img src=""images/schematic_sequence/flight_scheme/flight_scheme_5.png"" class=""exp-image"">
                    <div class=""question-area"">
                        <p style=""font-size: 20px; font-weight: bold; margin: 0;"">Is there a person in this image?</p>
                    </div>
                </div>","0","main_experiment_trial","5","flight_scheme","schematic_sequence","","","","",""
"","","","","","html-keyboard-response","153","459313","0.0-153.0","160F3210920D4FA183BBBDB1324B866C","019cf734-7264-7f32-9786-a2a8d0e09ab4","019cf72b-10ed-72e0-84f6-c0a47968aa70","","null","
                <div class=""stimulus-container"">
                    <img src=""images/schematic_sequence/flight_scheme/flight_scheme_6.png"" class=""exp-image"">
                    <div class=""question-area""></div> 
                </div>","null","","","","","","","","",""
"","","","","","html-button-response","154","460053","0.0-154.0","160F3210920D4FA183BBBDB1324B866C","019cf734-7264-7f32-9786-a2a8d0e09ab4","019cf72b-10ed-72e0-84f6-c0a47968aa70","","738","
                <div class=""stimulus-container"">
                    <img src=""images/schematic_sequence/flight_scheme/flight_scheme_6.png"" class=""exp-image"">
                    <div class=""question-area"">
                        <p style=""font-size: 20px; font-weight: bold; margin: 0;"">Is there a person in this image?</p>
                    </div>
                </div>","1","main_experiment_trial","6","flight_scheme","schematic_sequence","","","","",""
"","","","","","html-keyboard-response","155","465056","0.0-155.0","160F3210920D4FA183BBBDB1324B866C","019cf734-7264-7f32-9786-a2a8d0e09ab4","019cf72b-10ed-72e0-84f6-c0a47968aa70","","null","
                <div class=""stimulus-container"">
                    <img src=""images/schematic_sequence/flight_scheme/flight_scheme_7.png"" class=""exp-image"">
                    <div class=""question-area""></div> 
                </div>","null","","","","","","","","",""
"","","","","","html-button-response","156","465748","0.0-156.0","160F3210920D4FA183BBBDB1324B866C","019cf734-7264-7f32-9786-a2a8d0e09ab4","019cf72b-10ed-72e0-84f6-c0a47968aa70","","690","
                <div class=""stimulus-container"">
                    <img src=""images/schematic_sequence/flight_scheme/flight_scheme_7.png"" class=""exp-image"">
                    <div class=""question-area"">
                        <p style=""font-size: 20px; font-weight: bold; margin: 0;"">Is there a person in this image?</p>
                    </div>
                </div>","1","main_experiment_trial","7","flight_scheme","schematic_sequence","","","","",""
"","","","","","html-keyboard-response","157","470751","0.0-157.0","160F3210920D4FA183BBBDB1324B866C","019cf734-7264-7f32-9786-a2a8d0e09ab4","019cf72b-10ed-72e0-84f6-c0a47968aa70","","null","
                <div class=""stimulus-container"">
                    <img src=""images/schematic_sequence/flight_scheme/flight_scheme_8.png"" class=""exp-image"">
                    <div class=""question-area""></div> 
                </div>","null","","","","","","","","",""
"","","","","","html-button-response","158","471574","0.0-158.0","160F3210920D4FA183BBBDB1324B866C","019cf734-7264-7f32-9786-a2a8d0e09ab4","019cf72b-10ed-72e0-84f6-c0a47968aa70","","820","
                <div class=""stimulus-container"">
                    <img src=""images/schematic_sequence/flight_scheme/flight_scheme_8.png"" class=""exp-image"">
                    <div class=""question-area"">
                        <p style=""font-size: 20px; font-weight: bold; margin: 0;"">Is there a person in this image?</p>
                    </div>
                </div>","1","main_experiment_trial","8","flight_scheme","schematic_sequence","","","","",""
"","","","","","html-keyboard-response","159","476576","0.0-159.0","160F3210920D4FA183BBBDB1324B866C","019cf734-7264-7f32-9786-a2a8d0e09ab4","019cf72b-10ed-72e0-84f6-c0a47968aa70","","null","
                <div class=""stimulus-container"">
                    <img src=""images/schematic_sequence/flight_scheme/flight_scheme_9.png"" class=""exp-image"">
                    <div class=""question-area""></div> 
                </div>","null","","","","","","","","",""
"","","","","","html-button-response","160","477227","0.0-160.0","160F3210920D4FA183BBBDB1324B866C","019cf734-7264-7f32-9786-a2a8d0e09ab4","019cf72b-10ed-72e0-84f6-c0a47968aa70","","649","
                <div class=""stimulus-container"">
                    <img src=""images/schematic_sequence/flight_scheme/flight_scheme_9.png"" class=""exp-image"">
                    <div class=""question-area"">
                        <p style=""font-size: 20px; font-weight: bold; margin: 0;"">Is there a person in this image?</p>
                    </div>
                </div>","0","main_experiment_trial","9","flight_scheme","schematic_sequence","","","","",""
"","","","","","html-keyboard-response","161","482229","0.0-161.0","160F3210920D4FA183BBBDB1324B866C","019cf734-7264-7f32-9786-a2a8d0e09ab4","019cf72b-10ed-72e0-84f6-c0a47968aa70","","null","
                <div class=""stimulus-container"">
                    <img src=""images/schematic_sequence/flight_scheme/flight_scheme_ten.png"" class=""exp-image"">
                    <div class=""question-area""></div> 
                </div>","null","","","","","","","","",""
"","","","","","html-button-response","162","482775","0.0-162.0","160F3210920D4FA183BBBDB1324B866C","019cf734-7264-7f32-9786-a2a8d0e09ab4","019cf72b-10ed-72e0-84f6-c0a47968aa70","","543","
                <div class=""stimulus-container"">
                    <img src=""images/schematic_sequence/flight_scheme/flight_scheme_ten.png"" class=""exp-image"">
                    <div class=""question-area"">
                        <p style=""font-size: 20px; font-weight: bold; margin: 0;"">Is there a person in this image?</p>
                    </div>
                </div>","0","main_experiment_trial","ten","flight_scheme","schematic_sequence","","","","",""
"","","","","","html-keyboard-response","163","483777","0.0-163.0","160F3210920D4FA183BBBDB1324B866C","019cf734-7264-7f32-9786-a2a8d0e09ab4","019cf72b-10ed-72e0-84f6-c0a47968aa70","","null","<div style=""background-color: white; width: 100vw; height: 100vh;""></div>","null","","","","","","","","",""
"","","","","","html-keyboard-response","164","488779","0.0-164.0","160F3210920D4FA183BBBDB1324B866C","019cf734-7264-7f32-9786-a2a8d0e09ab4","019cf72b-10ed-72e0-84f6-c0a47968aa70","","null","
                <div class=""stimulus-container"">
                    <img src=""images/causal_sequence/saving_a_cat_causal/saving_a_cat_causal_1.png"" class=""exp-image"">
                    <div class=""question-area""></div> 
                </div>","null","","","","","","","","",""
"","","","","","html-button-response","165","489415","0.0-165.0","160F3210920D4FA183BBBDB1324B866C","019cf734-7264-7f32-9786-a2a8d0e09ab4","019cf72b-10ed-72e0-84f6-c0a47968aa70","","634","
                <div class=""stimulus-container"">
                    <img src=""images/causal_sequence/saving_a_cat_causal/saving_a_cat_causal_1.png"" class=""exp-image"">
                    <div class=""question-area"">
                        <p style=""font-size: 20px; font-weight: bold; margin: 0;"">Is there a person in this image?</p>
                    </div>
                </div>","0","main_experiment_trial","1","saving_a_cat_causal","causal_sequence","","","","",""
"","","","","","html-keyboard-response","166","494417","0.0-166.0","160F3210920D4FA183BBBDB1324B866C","019cf734-7264-7f32-9786-a2a8d0e09ab4","019cf72b-10ed-72e0-84f6-c0a47968aa70","","null","
                <div class=""stimulus-container"">
                    <img src=""images/causal_sequence/saving_a_cat_causal/saving_a_cat_causal_2.png"" class=""exp-image"">
                    <div class=""question-area""></div> 
                </div>","null","","","","","","","","",""
"","","","","","html-button-response","167","495231","0.0-167.0","160F3210920D4FA183BBBDB1324B866C","019cf734-7264-7f32-9786-a2a8d0e09ab4","019cf72b-10ed-72e0-84f6-c0a47968aa70","","812","
                <div class=""stimulus-container"">
                    <img src=""images/causal_sequence/saving_a_cat_causal/saving_a_cat_causal_2.png"" class=""exp-image"">
                    <div class=""question-area"">
                        <p style=""font-size: 20px; font-weight: bold; margin: 0;"">Is there a person in this image?</p>
                    </div>
                </div>","1","main_experiment_trial","2","saving_a_cat_causal","causal_sequence","","","","",""
"","","","","","html-keyboard-response","168","500234","0.0-168.0","160F3210920D4FA183BBBDB1324B866C","019cf734-7264-7f32-9786-a2a8d0e09ab4","019cf72b-10ed-72e0-84f6-c0a47968aa70","","null","
                <div class=""stimulus-container"">
                    <img src=""images/causal_sequence/saving_a_cat_causal/saving_a_cat_causal_3.png"" class=""exp-image"">
                    <div class=""question-area""></div> 
                </div>","null","","","","","","","","",""
"","","","","","html-button-response","169","500847","0.0-169.0","160F3210920D4FA183BBBDB1324B866C","019cf734-7264-7f32-9786-a2a8d0e09ab4","019cf72b-10ed-72e0-84f6-c0a47968aa70","","609","
                <div class=""stimulus-container"">
                    <img src=""images/causal_sequence/saving_a_cat_causal/saving_a_cat_causal_3.png"" class=""exp-image"">
                    <div class=""question-area"">
                        <p style=""font-size: 20px; font-weight: bold; margin: 0;"">Is there a person in this image?</p>
                    </div>
                </div>","1","main_experiment_trial","3","saving_a_cat_causal","causal_sequence","","","","",""
"","","","","","html-keyboard-response","170","505849","0.0-170.0","160F3210920D4FA183BBBDB1324B866C","019cf734-7264-7f32-9786-a2a8d0e09ab4","019cf72b-10ed-72e0-84f6-c0a47968aa70","","null","
                <div class=""stimulus-container"">
                    <img src=""images/causal_sequence/saving_a_cat_causal/saving_a_cat_causal_4.png"" class=""exp-image"">
                    <div class=""question-area""></div> 
                </div>","null","","","","","","","","",""
"","","","","","html-button-response","171","506716","0.0-171.0","160F3210920D4FA183BBBDB1324B866C","019cf734-7264-7f32-9786-a2a8d0e09ab4","019cf72b-10ed-72e0-84f6-c0a47968aa70","","864","
                <div class=""stimulus-container"">
                    <img src=""images/causal_sequence/saving_a_cat_causal/saving_a_cat_causal_4.png"" class=""exp-image"">
                    <div class=""question-area"">
                        <p style=""font-size: 20px; font-weight: bold; margin: 0;"">Is there a person in this image?</p>
                    </div>
                </div>","0","main_experiment_trial","4","saving_a_cat_causal","causal_sequence","","","","",""
"","","","","","html-keyboard-response","172","511718","0.0-172.0","160F3210920D4FA183BBBDB1324B866C","019cf734-7264-7f32-9786-a2a8d0e09ab4","019cf72b-10ed-72e0-84f6-c0a47968aa70","","null","
                <div class=""stimulus-container"">
                    <img src=""images/causal_sequence/saving_a_cat_causal/saving_a_cat_causal_5.png"" class=""exp-image"">
                    <div class=""question-area""></div> 
                </div>","null","","","","","","","","",""
"","","","","","html-button-response","173","512237","0.0-173.0","160F3210920D4FA183BBBDB1324B866C","019cf734-7264-7f32-9786-a2a8d0e09ab4","019cf72b-10ed-72e0-84f6-c0a47968aa70","","516","
                <div class=""stimulus-container"">
                    <img src=""images/causal_sequence/saving_a_cat_causal/saving_a_cat_causal_5.png"" class=""exp-image"">
                    <div class=""question-area"">
                        <p style=""font-size: 20px; font-weight: bold; margin: 0;"">Is there a person in this image?</p>
                    </div>
                </div>","0","main_experiment_trial","5","saving_a_cat_causal","causal_sequence","","","","",""
"","","","","","html-keyboard-response","174","517240","0.0-174.0","160F3210920D4FA183BBBDB1324B866C","019cf734-7264-7f32-9786-a2a8d0e09ab4","019cf72b-10ed-72e0-84f6-c0a47968aa70","","null","
                <div class=""stimulus-container"">
                    <img src=""images/causal_sequence/saving_a_cat_causal/saving_a_cat_causal_6.png"" class=""exp-image"">
                    <div class=""question-area""></div> 
                </div>","null","","","","","","","","",""
"","","","","","html-button-response","175","517829","0.0-175.0","160F3210920D4FA183BBBDB1324B866C","019cf734-7264-7f32-9786-a2a8d0e09ab4","019cf72b-10ed-72e0-84f6-c0a47968aa70","","587","
                <div class=""stimulus-container"">
                    <img src=""images/causal_sequence/saving_a_cat_causal/saving_a_cat_causal_6.png"" class=""exp-image"">
                    <div class=""question-area"">
                        <p style=""font-size: 20px; font-weight: bold; margin: 0;"">Is there a person in this image?</p>
                    </div>
                </div>","0","main_experiment_trial","6","saving_a_cat_causal","causal_sequence","","","","",""
"","","","","","html-keyboard-response","176","522832","0.0-176.0","160F3210920D4FA183BBBDB1324B866C","019cf734-7264-7f32-9786-a2a8d0e09ab4","019cf72b-10ed-72e0-84f6-c0a47968aa70","","null","
                <div class=""stimulus-container"">
                    <img src=""images/causal_sequence/saving_a_cat_causal/saving_a_cat_causal_7.png"" class=""exp-image"">
                    <div class=""question-area""></div> 
                </div>","null","","","","","","","","",""
"","","","","","html-button-response","177","523511","0.0-177.0","160F3210920D4FA183BBBDB1324B866C","019cf734-7264-7f32-9786-a2a8d0e09ab4","019cf72b-10ed-72e0-84f6-c0a47968aa70","","676","
                <div class=""stimulus-container"">
                    <img src=""images/causal_sequence/saving_a_cat_causal/saving_a_cat_causal_7.png"" class=""exp-image"">
                    <div class=""question-area"">
                        <p style=""font-size: 20px; font-weight: bold; margin: 0;"">Is there a person in this image?</p>
                    </div>
                </div>","0","main_experiment_trial","7","saving_a_cat_causal","causal_sequence","","","","",""
"","","","","","html-keyboard-response","178","528514","0.0-178.0","160F3210920D4FA183BBBDB1324B866C","019cf734-7264-7f32-9786-a2a8d0e09ab4","019cf72b-10ed-72e0-84f6-c0a47968aa70","","null","
                <div class=""stimulus-container"">
                    <img src=""images/causal_sequence/saving_a_cat_causal/saving_a_cat_causal_8.png"" class=""exp-image"">
                    <div class=""question-area""></div> 
                </div>","null","","","","","","","","",""
"","","","","","html-button-response","179","529238","0.0-179.0","160F3210920D4FA183BBBDB1324B866C","019cf734-7264-7f32-9786-a2a8d0e09ab4","019cf72b-10ed-72e0-84f6-c0a47968aa70","","722","
                <div class=""stimulus-container"">
                    <img src=""images/causal_sequence/saving_a_cat_causal/saving_a_cat_causal_8.png"" class=""exp-image"">
                    <div class=""question-area"">
                        <p style=""font-size: 20px; font-weight: bold; margin: 0;"">Is there a person in this image?</p>
                    </div>
                </div>","0","main_experiment_trial","8","saving_a_cat_causal","causal_sequence","","","","",""
"","","","","","html-keyboard-response","180","534241","0.0-180.0","160F3210920D4FA183BBBDB1324B866C","019cf734-7264-7f32-9786-a2a8d0e09ab4","019cf72b-10ed-72e0-84f6-c0a47968aa70","","null","
                <div class=""stimulus-container"">
                    <img src=""images/causal_sequence/saving_a_cat_causal/saving_a_cat_causal_9.png"" class=""exp-image"">
                    <div class=""question-area""></div> 
                </div>","null","","","","","","","","",""
"","","","","","html-button-response","181","534808","0.0-181.0","160F3210920D4FA183BBBDB1324B866C","019cf734-7264-7f32-9786-a2a8d0e09ab4","019cf72b-10ed-72e0-84f6-c0a47968aa70","","565","
                <div class=""stimulus-container"">
                    <img src=""images/causal_sequence/saving_a_cat_causal/saving_a_cat_causal_9.png"" class=""exp-image"">
                    <div class=""question-area"">
                        <p style=""font-size: 20px; font-weight: bold; margin: 0;"">Is there a person in this image?</p>
                    </div>
                </div>","0","main_experiment_trial","9","saving_a_cat_causal","causal_sequence","","","","",""
"","","","","","html-keyboard-response","182","539810","0.0-182.0","160F3210920D4FA183BBBDB1324B866C","019cf734-7264-7f32-9786-a2a8d0e09ab4","019cf72b-10ed-72e0-84f6-c0a47968aa70","","null","
                <div class=""stimulus-container"">
                    <img src=""images/causal_sequence/saving_a_cat_causal/saving_a_cat_causal_ten.png"" class=""exp-image"">
                    <div class=""question-area""></div> 
                </div>","null","","","","","","","","",""
"","","","","","html-button-response","183","540355","0.0-183.0","160F3210920D4FA183BBBDB1324B866C","019cf734-7264-7f32-9786-a2a8d0e09ab4","019cf72b-10ed-72e0-84f6-c0a47968aa70","","543","
                <div class=""stimulus-container"">
                    <img src=""images/causal_sequence/saving_a_cat_causal/saving_a_cat_causal_ten.png"" class=""exp-image"">
                    <div class=""question-area"">
                        <p style=""font-size: 20px; font-weight: bold; margin: 0;"">Is there a person in this image?</p>
                    </div>
