"success","timeout","failed_images","failed_audio","failed_video","trial_type","trial_index","time_elapsed","internal_node_id","subject_id","study_id","session_id","view_history","rt","stimulus","response","task","image_index","folder","sequence_type","presentation_order","valuable_image_index","reward_type","correct_choice","distance_from_x","target_X","chosen_image_index","is_x_plus_dist"
"true","false","[]","[]","[]","preload","0","11491","0.0-0.0","94F584C90D2A48CDA5DDD462E19FDE6B","019d6b21-26f8-78ab-a483-3e3eabf6994c","019d6ae6-5d89-74c6-b581-3918d1816346","","","","","","","","","","","","","","","",""
"","","","","","instructions","1","442393","0.0-1.0","94F584C90D2A48CDA5DDD462E19FDE6B","019d6b21-26f8-78ab-a483-3e3eabf6994c","019d6ae6-5d89-74c6-b581-3918d1816346","[{""page_index"":0,""viewing_time"":430900}]","430901","","","","","","","","","","","","","",""
"","","","","","instructions","2","445474","0.0-2.0","94F584C90D2A48CDA5DDD462E19FDE6B","019d6b21-26f8-78ab-a483-3e3eabf6994c","019d6ae6-5d89-74c6-b581-3918d1816346","[{""page_index"":0,""viewing_time"":3081}]","3081","","","","","","","","","","","","","",""
"true","","","","","fullscreen","3","447766","0.0-3.0","94F584C90D2A48CDA5DDD462E19FDE6B","019d6b21-26f8-78ab-a483-3e3eabf6994c","019d6ae6-5d89-74c6-b581-3918d1816346","","1281","","","","","","","","","","","","","",""
"","","","","","instructions","4","1164759","0.0-4.0","94F584C90D2A48CDA5DDD462E19FDE6B","019d6b21-26f8-78ab-a483-3e3eabf6994c","019d6ae6-5d89-74c6-b581-3918d1816346","[{""page_index"":0,""viewing_time"":716992}]","716992","","","","","","","","","","","","","",""
"","","","","","instructions","5","1168559","0.0-5.0","94F584C90D2A48CDA5DDD462E19FDE6B","019d6b21-26f8-78ab-a483-3e3eabf6994c","019d6ae6-5d89-74c6-b581-3918d1816346","[{""page_index"":0,""viewing_time"":3799}]","3800","","","","","","","","","","","","","",""
"","","","","","html-keyboard-response","6","1172574","0.0-6.0","94F584C90D2A48CDA5DDD462E19FDE6B","019d6b21-26f8-78ab-a483-3e3eabf6994c","019d6ae6-5d89-74c6-b581-3918d1816346","","null","
            <div class=""stimulus-container"">
                <img src=""images/instructions/movie_1.png"" class=""exp-image"">
                <div class=""question-area""></div> 
            </div>","null","","","","","","","","","","","",""
"","","","","","html-button-response","7","1175001","0.0-7.0","94F584C90D2A48CDA5DDD462E19FDE6B","019d6b21-26f8-78ab-a483-3e3eabf6994c","019d6ae6-5d89-74c6-b581-3918d1816346","","2424","
            <div class=""stimulus-container"">
                <img src=""images/instructions/movie_1.png"" class=""exp-image"">
                <div class=""question-area"">
                    <p style=""font-size: 20px; font-weight: bold; margin: 0;"">Was there a person in this image?</p>
                </div>
            </div>","0","example_question","1","","","","","","","","","",""
"","","","","","html-keyboard-response","8","1179011","0.0-8.0","94F584C90D2A48CDA5DDD462E19FDE6B","019d6b21-26f8-78ab-a483-3e3eabf6994c","019d6ae6-5d89-74c6-b581-3918d1816346","","null","
            <div class=""stimulus-container"">
                <img src=""images/instructions/movie_2.png"" class=""exp-image"">
                <div class=""question-area""></div> 
            </div>","null","","","","","","","","","","","",""
"","","","","","html-button-response","9","1180171","0.0-9.0","94F584C90D2A48CDA5DDD462E19FDE6B","019d6b21-26f8-78ab-a483-3e3eabf6994c","019d6ae6-5d89-74c6-b581-3918d1816346","","1158","
            <div class=""stimulus-container"">
                <img src=""images/instructions/movie_2.png"" class=""exp-image"">
                <div class=""question-area"">
                    <p style=""font-size: 20px; font-weight: bold; margin: 0;"">Was there a person in this image?</p>
                </div>
            </div>","1","example_question","2","","","","","","","","","",""
"","","","","","html-keyboard-response","10","1184179","0.0-10.0","94F584C90D2A48CDA5DDD462E19FDE6B","019d6b21-26f8-78ab-a483-3e3eabf6994c","019d6ae6-5d89-74c6-b581-3918d1816346","","null","
            <div class=""stimulus-container"">
                <img src=""images/instructions/movie_3.png"" class=""exp-image"">
                <div class=""question-area""></div> 
            </div>","null","","","","","","","","","","","",""
"","","","","","html-button-response","11","1187193","0.0-11.0","94F584C90D2A48CDA5DDD462E19FDE6B","019d6b21-26f8-78ab-a483-3e3eabf6994c","019d6ae6-5d89-74c6-b581-3918d1816346","","null","
            <div class=""stimulus-container"">
                <img src=""images/instructions/movie_3.png"" class=""exp-image"">
                <div class=""question-area"">
                    <p style=""font-size: 20px; font-weight: bold; margin: 0;"">Was there a person in this image?</p>
                </div>
            </div>","null","example_question","3","","","","","","","","","",""
"","","","","","html-keyboard-response","12","1191208","0.0-12.0","94F584C90D2A48CDA5DDD462E19FDE6B","019d6b21-26f8-78ab-a483-3e3eabf6994c","019d6ae6-5d89-74c6-b581-3918d1816346","","null","
            <div class=""stimulus-container"">
                <img src=""images/instructions/movie_4.png"" class=""exp-image"">
                <div class=""question-area""></div> 
            </div>","null","","","","","","","","","","","",""
"","","","","","html-button-response","13","1194221","0.0-13.0","94F584C90D2A48CDA5DDD462E19FDE6B","019d6b21-26f8-78ab-a483-3e3eabf6994c","019d6ae6-5d89-74c6-b581-3918d1816346","","null","
            <div class=""stimulus-container"">
                <img src=""images/instructions/movie_4.png"" class=""exp-image"">
                <div class=""question-area"">
                    <p style=""font-size: 20px; font-weight: bold; margin: 0;"">Was there a person in this image?</p>
                </div>
            </div>","null","example_question","4","","","","","","","","","",""
"","","","","","instructions","14","1276919","0.0-14.0","94F584C90D2A48CDA5DDD462E19FDE6B","019d6b21-26f8-78ab-a483-3e3eabf6994c","019d6ae6-5d89-74c6-b581-3918d1816346","[{""page_index"":0,""viewing_time"":82697}]","82697","","","","","","","","","","","","","",""
"","","","","","instructions","15","1295032","0.0-15.0","94F584C90D2A48CDA5DDD462E19FDE6B","019d6b21-26f8-78ab-a483-3e3eabf6994c","019d6ae6-5d89-74c6-b581-3918d1816346","[{""page_index"":0,""viewing_time"":18112}]","18112","","","","","","","","","","","","","",""
"","","","","","html-keyboard-response","16","1300036","0.0-16.0","94F584C90D2A48CDA5DDD462E19FDE6B","019d6b21-26f8-78ab-a483-3e3eabf6994c","019d6ae6-5d89-74c6-b581-3918d1816346","","null","<div style=""background-color: white; width: 100vw; height: 100vh;""></div>","null","","","","","","","","","","","",""
"","","","","","html-keyboard-response","17","1305044","0.0-17.0","94F584C90D2A48CDA5DDD462E19FDE6B","019d6b21-26f8-78ab-a483-3e3eabf6994c","019d6ae6-5d89-74c6-b581-3918d1816346","","null","
                <div class=""stimulus-container"">
                    <img src=""semantic_sequence_notimeline/animals_semantic/animals_semantic_1.png"" class=""exp-image"">
                    <div class=""question-area""></div> 
                </div>","null","","","","","","","","","","","",""
"","","","","","html-button-response","18","1306379","0.0-18.0","94F584C90D2A48CDA5DDD462E19FDE6B","019d6b21-26f8-78ab-a483-3e3eabf6994c","019d6ae6-5d89-74c6-b581-3918d1816346","","1334","
                <div class=""stimulus-container"">
                    <img src=""semantic_sequence_notimeline/animals_semantic/animals_semantic_1.png"" class=""exp-image"">
                    <div class=""question-area"">
                        <p style=""font-size: 20px; font-weight: bold; margin: 0;"">Is there a person in this image?</p>
                    </div>
                </div>","1","main_experiment_trial","1","animals_semantic","semantic_sequence_notimeline","chronological","","","","","","",""
"","","","","","html-keyboard-response","19","1311380","0.0-19.0","94F584C90D2A48CDA5DDD462E19FDE6B","019d6b21-26f8-78ab-a483-3e3eabf6994c","019d6ae6-5d89-74c6-b581-3918d1816346","","null","
                <div class=""stimulus-container"">
                    <img src=""semantic_sequence_notimeline/animals_semantic/animals_semantic_2.png"" class=""exp-image"">
                    <div class=""question-area""></div> 
                </div>","null","","","","","","","","","","","",""
"","","","","","html-button-response","20","1313721","0.0-20.0","94F584C90D2A48CDA5DDD462E19FDE6B","019d6b21-26f8-78ab-a483-3e3eabf6994c","019d6ae6-5d89-74c6-b581-3918d1816346","","2339","
                <div class=""stimulus-container"">
                    <img src=""semantic_sequence_notimeline/animals_semantic/animals_semantic_2.png"" class=""exp-image"">
                    <div class=""question-area"">
                        <p style=""font-size: 20px; font-weight: bold; margin: 0;"">Is there a person in this image?</p>
                    </div>
                </div>","1","main_experiment_trial","2","animals_semantic","semantic_sequence_notimeline","chronological","","","","","","",""
"","","","","","html-keyboard-response","21","1318735","0.0-21.0","94F584C90D2A48CDA5DDD462E19FDE6B","019d6b21-26f8-78ab-a483-3e3eabf6994c","019d6ae6-5d89-74c6-b581-3918d1816346","","null","
                <div class=""stimulus-container"">
                    <img src=""semantic_sequence_notimeline/animals_semantic/animals_semantic_3.png"" class=""exp-image"">
                    <div class=""question-area""></div> 
                </div>","null","","","","","","","","","","","",""
"","","","","","html-button-response","22","1319523","0.0-22.0","94F584C90D2A48CDA5DDD462E19FDE6B","019d6b21-26f8-78ab-a483-3e3eabf6994c","019d6ae6-5d89-74c6-b581-3918d1816346","","787","
                <div class=""stimulus-container"">
                    <img src=""semantic_sequence_notimeline/animals_semantic/animals_semantic_3.png"" class=""exp-image"">
                    <div class=""question-area"">
                        <p style=""font-size: 20px; font-weight: bold; margin: 0;"">Is there a person in this image?</p>
                    </div>
                </div>","1","main_experiment_trial","3","animals_semantic","semantic_sequence_notimeline","chronological","","","","","","",""
"","","","","","html-keyboard-response","23","1324526","0.0-23.0","94F584C90D2A48CDA5DDD462E19FDE6B","019d6b21-26f8-78ab-a483-3e3eabf6994c","019d6ae6-5d89-74c6-b581-3918d1816346","","null","
                <div class=""stimulus-container"">
                    <img src=""semantic_sequence_notimeline/animals_semantic/animals_semantic_4.png"" class=""exp-image"">
                    <div class=""question-area""></div> 
                </div>","null","","","","","","","","","","","",""
"","","","","","html-button-response","24","1325373","0.0-24.0","94F584C90D2A48CDA5DDD462E19FDE6B","019d6b21-26f8-78ab-a483-3e3eabf6994c","019d6ae6-5d89-74c6-b581-3918d1816346","","846","
                <div class=""stimulus-container"">
                    <img src=""semantic_sequence_notimeline/animals_semantic/animals_semantic_4.png"" class=""exp-image"">
                    <div class=""question-area"">
                        <p style=""font-size: 20px; font-weight: bold; margin: 0;"">Is there a person in this image?</p>
                    </div>
                </div>","1","main_experiment_trial","4","animals_semantic","semantic_sequence_notimeline","chronological","","","","","","",""
"","","","","","html-keyboard-response","25","1330386","0.0-25.0","94F584C90D2A48CDA5DDD462E19FDE6B","019d6b21-26f8-78ab-a483-3e3eabf6994c","019d6ae6-5d89-74c6-b581-3918d1816346","","null","
                <div class=""stimulus-container"">
                    <img src=""semantic_sequence_notimeline/animals_semantic/animals_semantic_5.png"" class=""exp-image"">
                    <div class=""question-area""></div> 
                </div>","null","","","","","","","","","","","",""
"","","","","","html-button-response","26","1332075","0.0-26.0","94F584C90D2A48CDA5DDD462E19FDE6B","019d6b21-26f8-78ab-a483-3e3eabf6994c","019d6ae6-5d89-74c6-b581-3918d1816346","","1688","
                <div class=""stimulus-container"">
                    <img src=""semantic_sequence_notimeline/animals_semantic/animals_semantic_5.png"" class=""exp-image"">
                    <div class=""question-area"">
                        <p style=""font-size: 20px; font-weight: bold; margin: 0;"">Is there a person in this image?</p>
                    </div>
                </div>","1","main_experiment_trial","5","animals_semantic","semantic_sequence_notimeline","chronological","","","","","","",""
"","","","","","html-keyboard-response","27","1337088","0.0-27.0","94F584C90D2A48CDA5DDD462E19FDE6B","019d6b21-26f8-78ab-a483-3e3eabf6994c","019d6ae6-5d89-74c6-b581-3918d1816346","","null","
                <div class=""stimulus-container"">
                    <img src=""semantic_sequence_notimeline/animals_semantic/animals_semantic_6.png"" class=""exp-image"">
                    <div class=""question-area""></div> 
                </div>","null","","","","","","","","","","","",""
"","","","","","html-button-response","28","1338215","0.0-28.0","94F584C90D2A48CDA5DDD462E19FDE6B","019d6b21-26f8-78ab-a483-3e3eabf6994c","019d6ae6-5d89-74c6-b581-3918d1816346","","1126","
                <div class=""stimulus-container"">
                    <img src=""semantic_sequence_notimeline/animals_semantic/animals_semantic_6.png"" class=""exp-image"">
                    <div class=""question-area"">
                        <p style=""font-size: 20px; font-weight: bold; margin: 0;"">Is there a person in this image?</p>
                    </div>
                </div>","1","main_experiment_trial","6","animals_semantic","semantic_sequence_notimeline","chronological","","","","","","",""
"","","","","","html-keyboard-response","29","1343225","0.0-29.0","94F584C90D2A48CDA5DDD462E19FDE6B","019d6b21-26f8-78ab-a483-3e3eabf6994c","019d6ae6-5d89-74c6-b581-3918d1816346","","null","
                <div class=""stimulus-container"">
                    <img src=""semantic_sequence_notimeline/animals_semantic/animals_semantic_7.png"" class=""exp-image"">
                    <div class=""question-area""></div> 
                </div>","null","","","","","","","","","","","",""
"","","","","","html-button-response","30","1345347","0.0-30.0","94F584C90D2A48CDA5DDD462E19FDE6B","019d6b21-26f8-78ab-a483-3e3eabf6994c","019d6ae6-5d89-74c6-b581-3918d1816346","","2121","
                <div class=""stimulus-container"">
                    <img src=""semantic_sequence_notimeline/animals_semantic/animals_semantic_7.png"" class=""exp-image"">
                    <div class=""question-area"">
                        <p style=""font-size: 20px; font-weight: bold; margin: 0;"">Is there a person in this image?</p>
                    </div>
                </div>","1","main_experiment_trial","7","animals_semantic","semantic_sequence_notimeline","chronological","","","","","","",""
"","","","","","html-keyboard-response","31","1350356","0.0-31.0","94F584C90D2A48CDA5DDD462E19FDE6B","019d6b21-26f8-78ab-a483-3e3eabf6994c","019d6ae6-5d89-74c6-b581-3918d1816346","","null","
                <div class=""stimulus-container"">
                    <img src=""semantic_sequence_notimeline/animals_semantic/animals_semantic_8.png"" class=""exp-image"">
                    <div class=""question-area""></div> 
                </div>","null","","","","","","","","","","","",""
"","","","","","html-button-response","32","1351325","0.0-32.0","94F584C90D2A48CDA5DDD462E19FDE6B","019d6b21-26f8-78ab-a483-3e3eabf6994c","019d6ae6-5d89-74c6-b581-3918d1816346","","967","
                <div class=""stimulus-container"">
                    <img src=""semantic_sequence_notimeline/animals_semantic/animals_semantic_8.png"" class=""exp-image"">
                    <div class=""question-area"">
                        <p style=""font-size: 20px; font-weight: bold; margin: 0;"">Is there a person in this image?</p>
                    </div>
                </div>","1","main_experiment_trial","8","animals_semantic","semantic_sequence_notimeline","chronological","","","","","","",""
"","","","","","html-keyboard-response","33","1356335","0.0-33.0","94F584C90D2A48CDA5DDD462E19FDE6B","019d6b21-26f8-78ab-a483-3e3eabf6994c","019d6ae6-5d89-74c6-b581-3918d1816346","","null","
                <div class=""stimulus-container"">
                    <img src=""semantic_sequence_notimeline/animals_semantic/animals_semantic_9.png"" class=""exp-image"">
                    <div class=""question-area""></div> 
                </div>","null","","","","","","","","","","","",""
"","","","","","html-button-response","34","1357361","0.0-34.0","94F584C90D2A48CDA5DDD462E19FDE6B","019d6b21-26f8-78ab-a483-3e3eabf6994c","019d6ae6-5d89-74c6-b581-3918d1816346","","1025","
                <div class=""stimulus-container"">
                    <img src=""semantic_sequence_notimeline/animals_semantic/animals_semantic_9.png"" class=""exp-image"">
                    <div class=""question-area"">
                        <p style=""font-size: 20px; font-weight: bold; margin: 0;"">Is there a person in this image?</p>
                    </div>
                </div>","1","main_experiment_trial","9","animals_semantic","semantic_sequence_notimeline","chronological","","","","","","",""
"","","","","","html-keyboard-response","35","1362373","0.0-35.0","94F584C90D2A48CDA5DDD462E19FDE6B","019d6b21-26f8-78ab-a483-3e3eabf6994c","019d6ae6-5d89-74c6-b581-3918d1816346","","null","
                <div class=""stimulus-container"">
                    <img src=""semantic_sequence_notimeline/animals_semantic/animals_semantic_ten.png"" class=""exp-image"">
                    <div class=""question-area""></div> 
                </div>","null","","","","","","","","","","","",""
"","","","","","html-button-response","36","1363061","0.0-36.0","94F584C90D2A48CDA5DDD462E19FDE6B","019d6b21-26f8-78ab-a483-3e3eabf6994c","019d6ae6-5d89-74c6-b581-3918d1816346","","686","
                <div class=""stimulus-container"">
                    <img src=""semantic_sequence_notimeline/animals_semantic/animals_semantic_ten.png"" class=""exp-image"">
                    <div class=""question-area"">
                        <p style=""font-size: 20px; font-weight: bold; margin: 0;"">Is there a person in this image?</p>
                    </div>
                </div>","1","main_experiment_trial","ten","animals_semantic","semantic_sequence_notimeline","chronological","","","","","","",""
"","","","","","html-keyboard-response","37","1368069","0.0-37.0","94F584C90D2A48CDA5DDD462E19FDE6B","019d6b21-26f8-78ab-a483-3e3eabf6994c","019d6ae6-5d89-74c6-b581-3918d1816346","","null","<div style=""background-color: white; width: 100vw; height: 100vh;""></div>","null","","","","","","","","","","","",""
"","","","","","html-keyboard-response","38","1373078","0.0-38.0","94F584C90D2A48CDA5DDD462E19FDE6B","019d6b21-26f8-78ab-a483-3e3eabf6994c","019d6ae6-5d89-74c6-b581-3918d1816346","","null","
                <div class=""stimulus-container"">
                    <img src=""semantic_sequence_notimeline/fruits_semantic/fruits_semantic_1.png"" class=""exp-image"">
                    <div class=""question-area""></div> 
                </div>","null","","","","","","","","","","","",""
"","","","","","html-button-response","39","1374732","0.0-39.0","94F584C90D2A48CDA5DDD462E19FDE6B","019d6b21-26f8-78ab-a483-3e3eabf6994c","019d6ae6-5d89-74c6-b581-3918d1816346","","1652","
                <div class=""stimulus-container"">
                    <img src=""semantic_sequence_notimeline/fruits_semantic/fruits_semantic_1.png"" class=""exp-image"">
                    <div class=""question-area"">
                        <p style=""font-size: 20px; font-weight: bold; margin: 0;"">Is there a person in this image?</p>
                    </div>
                </div>","1","main_experiment_trial","1","fruits_semantic","semantic_sequence_notimeline","chronological","","","","","","",""
"","","","","","html-keyboard-response","40","1379746","0.0-40.0","94F584C90D2A48CDA5DDD462E19FDE6B","019d6b21-26f8-78ab-a483-3e3eabf6994c","019d6ae6-5d89-74c6-b581-3918d1816346","","null","
                <div class=""stimulus-container"">
                    <img src=""semantic_sequence_notimeline/fruits_semantic/fruits_semantic_2.png"" class=""exp-image"">
                    <div class=""question-area""></div> 
                </div>","null","","","","","","","","","","","",""
"","","","","","html-button-response","41","1380935","0.0-41.0","94F584C90D2A48CDA5DDD462E19FDE6B","019d6b21-26f8-78ab-a483-3e3eabf6994c","019d6ae6-5d89-74c6-b581-3918d1816346","","1188","
                <div class=""stimulus-container"">
                    <img src=""semantic_sequence_notimeline/fruits_semantic/fruits_semantic_2.png"" class=""exp-image"">
                    <div class=""question-area"">
                        <p style=""font-size: 20px; font-weight: bold; margin: 0;"">Is there a person in this image?</p>
                    </div>
                </div>","1","main_experiment_trial","2","fruits_semantic","semantic_sequence_notimeline","chronological","","","","","","",""
"","","","","","html-keyboard-response","42","1385951","0.0-42.0","94F584C90D2A48CDA5DDD462E19FDE6B","019d6b21-26f8-78ab-a483-3e3eabf6994c","019d6ae6-5d89-74c6-b581-3918d1816346","","null","
                <div class=""stimulus-container"">
                    <img src=""semantic_sequence_notimeline/fruits_semantic/fruits_semantic_3.png"" class=""exp-image"">
                    <div class=""question-area""></div> 
                </div>","null","","","","","","","","","","","",""
"","","","","","html-button-response","43","1388967","0.0-43.0","94F584C90D2A48CDA5DDD462E19FDE6B","019d6b21-26f8-78ab-a483-3e3eabf6994c","019d6ae6-5d89-74c6-b581-3918d1816346","","null","
                <div class=""stimulus-container"">
                    <img src=""semantic_sequence_notimeline/fruits_semantic/fruits_semantic_3.png"" class=""exp-image"">
                    <div class=""question-area"">
                        <p style=""font-size: 20px; font-weight: bold; margin: 0;"">Is there a person in this image?</p>
                    </div>
                </div>","null","main_experiment_trial","3","fruits_semantic","semantic_sequence_notimeline","chronological","","","","","","",""
"","","","","","html-keyboard-response","44","1393971","0.0-44.0","94F584C90D2A48CDA5DDD462E19FDE6B","019d6b21-26f8-78ab-a483-3e3eabf6994c","019d6ae6-5d89-74c6-b581-3918d1816346","","null","
                <div class=""stimulus-container"">
                    <img src=""semantic_sequence_notimeline/fruits_semantic/fruits_semantic_4.png"" class=""exp-image"">
                    <div class=""question-area""></div> 
                </div>","null","","","","","","","","","","","",""
"","","","","","html-button-response","45","1396975","0.0-45.0","94F584C90D2A48CDA5DDD462E19FDE6B","019d6b21-26f8-78ab-a483-3e3eabf6994c","019d6ae6-5d89-74c6-b581-3918d1816346","","null","
                <div class=""stimulus-container"">
                    <img src=""semantic_sequence_notimeline/fruits_semantic/fruits_semantic_4.png"" class=""exp-image"">
                    <div class=""question-area"">
                        <p style=""font-size: 20px; font-weight: bold; margin: 0;"">Is there a person in this image?</p>
                    </div>
                </div>","null","main_experiment_trial","4","fruits_semantic","semantic_sequence_notimeline","chronological","","","","","","",""
"","","","","","html-keyboard-response","46","1401983","0.0-46.0","94F584C90D2A48CDA5DDD462E19FDE6B","019d6b21-26f8-78ab-a483-3e3eabf6994c","019d6ae6-5d89-74c6-b581-3918d1816346","","null","
                <div class=""stimulus-container"">
                    <img src=""semantic_sequence_notimeline/fruits_semantic/fruits_semantic_5.png"" class=""exp-image"">
                    <div class=""question-area""></div> 
                </div>","null","","","","","","","","","","","",""
"","","","","","html-button-response","47","1403399","0.0-47.0","94F584C90D2A48CDA5DDD462E19FDE6B","019d6b21-26f8-78ab-a483-3e3eabf6994c","019d6ae6-5d89-74c6-b581-3918d1816346","","1414","
                <div class=""stimulus-container"">
                    <img src=""semantic_sequence_notimeline/fruits_semantic/fruits_semantic_5.png"" class=""exp-image"">
                    <div class=""question-area"">
                        <p style=""font-size: 20px; font-weight: bold; margin: 0;"">Is there a person in this image?</p>
                    </div>
                </div>","1","main_experiment_trial","5","fruits_semantic","semantic_sequence_notimeline","chronological","","","","","","",""
"","","","","","html-keyboard-response","48","1408406","0.0-48.0","94F584C90D2A48CDA5DDD462E19FDE6B","019d6b21-26f8-78ab-a483-3e3eabf6994c","019d6ae6-5d89-74c6-b581-3918d1816346","","null","
                <div class=""stimulus-container"">
                    <img src=""semantic_sequence_notimeline/fruits_semantic/fruits_semantic_6.png"" class=""exp-image"">
                    <div class=""question-area""></div> 
                </div>","null","","","","","","","","","","","",""
"","","","","","html-button-response","49","1411416","0.0-49.0","94F584C90D2A48CDA5DDD462E19FDE6B","019d6b21-26f8-78ab-a483-3e3eabf6994c","019d6ae6-5d89-74c6-b581-3918d1816346","","null","
                <div class=""stimulus-container"">
                    <img src=""semantic_sequence_notimeline/fruits_semantic/fruits_semantic_6.png"" class=""exp-image"">
                    <div class=""question-area"">
                        <p style=""font-size: 20px; font-weight: bold; margin: 0;"">Is there a person in this image?</p>
                    </div>
                </div>","null","main_experiment_trial","6","fruits_semantic","semantic_sequence_notimeline","chronological","","","","","","",""
"","","","","","html-keyboard-response","50","1416432","0.0-50.0","94F584C90D2A48CDA5DDD462E19FDE6B","019d6b21-26f8-78ab-a483-3e3eabf6994c","019d6ae6-5d89-74c6-b581-3918d1816346","","null","
                <div class=""stimulus-container"">
                    <img src=""semantic_sequence_notimeline/fruits_semantic/fruits_semantic_7.png"" class=""exp-image"">
                    <div class=""question-area""></div> 
                </div>","null","","","","","","","","","","","",""
"","","","","","html-button-response","51","1417721","0.0-51.0","94F584C90D2A48CDA5DDD462E19FDE6B","019d6b21-26f8-78ab-a483-3e3eabf6994c","019d6ae6-5d89-74c6-b581-3918d1816346","","1288","
                <div class=""stimulus-container"">
                    <img src=""semantic_sequence_notimeline/fruits_semantic/fruits_semantic_7.png"" class=""exp-image"">
                    <div class=""question-area"">
                        <p style=""font-size: 20px; font-weight: bold; margin: 0;"">Is there a person in this image?</p>
                    </div>
                </div>","1","main_experiment_trial","7","fruits_semantic","semantic_sequence_notimeline","chronological","","","","","","",""
"","","","","","html-keyboard-response","52","1422730","0.0-52.0","94F584C90D2A48CDA5DDD462E19FDE6B","019d6b21-26f8-78ab-a483-3e3eabf6994c","019d6ae6-5d89-74c6-b581-3918d1816346","","null","
                <div class=""stimulus-container"">
                    <img src=""semantic_sequence_notimeline/fruits_semantic/fruits_semantic_8.png"" class=""exp-image"">
                    <div class=""question-area""></div> 
                </div>","null","","","","","","","","","","","",""
"","","","","","html-button-response","53","1423535","0.0-53.0","94F584C90D2A48CDA5DDD462E19FDE6B","019d6b21-26f8-78ab-a483-3e3eabf6994c","019d6ae6-5d89-74c6-b581-3918d1816346","","805","
                <div class=""stimulus-container"">
                    <img src=""semantic_sequence_notimeline/fruits_semantic/fruits_semantic_8.png"" class=""exp-image"">
                    <div class=""question-area"">
                        <p style=""font-size: 20px; font-weight: bold; margin: 0;"">Is there a person in this image?</p>
                    </div>
                </div>","1","main_experiment_trial","8","fruits_semantic","semantic_sequence_notimeline","chronological","","","","","","",""
"","","","","","html-keyboard-response","54","1428542","0.0-54.0","94F584C90D2A48CDA5DDD462E19FDE6B","019d6b21-26f8-78ab-a483-3e3eabf6994c","019d6ae6-5d89-74c6-b581-3918d1816346","","null","
                <div class=""stimulus-container"">
                    <img src=""semantic_sequence_notimeline/fruits_semantic/fruits_semantic_9.png"" class=""exp-image"">
                    <div class=""question-area""></div> 
                </div>","null","","","","","","","","","","","",""
"","","","","","html-button-response","55","1429137","0.0-55.0","94F584C90D2A48CDA5DDD462E19FDE6B","019d6b21-26f8-78ab-a483-3e3eabf6994c","019d6ae6-5d89-74c6-b581-3918d1816346","","594","
                <div class=""stimulus-container"">
                    <img src=""semantic_sequence_notimeline/fruits_semantic/fruits_semantic_9.png"" class=""exp-image"">
                    <div class=""question-area"">
                        <p style=""font-size: 20px; font-weight: bold; margin: 0;"">Is there a person in this image?</p>
                    </div>
                </div>","1","main_experiment_trial","9","fruits_semantic","semantic_sequence_notimeline","chronological","","","","","","",""
"","","","","","html-keyboard-response","56","1434139","0.0-56.0","94F584C90D2A48CDA5DDD462E19FDE6B","019d6b21-26f8-78ab-a483-3e3eabf6994c","019d6ae6-5d89-74c6-b581-3918d1816346","","null","
                <div class=""stimulus-container"">
                    <img src=""semantic_sequence_notimeline/fruits_semantic/fruits_semantic_ten.png"" class=""exp-image"">
                    <div class=""question-area""></div> 
                </div>","null","","","","","","","","","","","",""
"","","","","","html-button-response","57","1434695","0.0-57.0","94F584C90D2A48CDA5DDD462E19FDE6B","019d6b21-26f8-78ab-a483-3e3eabf6994c","019d6ae6-5d89-74c6-b581-3918d1816346","","555","
                <div class=""stimulus-container"">
                    <img src=""semantic_sequence_notimeline/fruits_semantic/fruits_semantic_ten.png"" class=""exp-image"">
                    <div class=""question-area"">
                        <p style=""font-size: 20px; font-weight: bold; margin: 0;"">Is there a person in this image?</p>
                    </div>
                </div>","1","main_experiment_trial","ten","fruits_semantic","semantic_sequence_notimeline","chronological","","","","","","",""
"","","","","","html-keyboard-response","58","1439711","0.0-58.0","94F584C90D2A48CDA5DDD462E19FDE6B","019d6b21-26f8-78ab-a483-3e3eabf6994c","019d6ae6-5d89-74c6-b581-3918d1816346","","null","<div style=""background-color: white; width: 100vw; height: 100vh;""></div>","null","","","","","","","","","","","",""
"","","","","","html-keyboard-response","59","1444713","0.0-59.0","94F584C90D2A48CDA5DDD462E19FDE6B","019d6b21-26f8-78ab-a483-3e3eabf6994c","019d6ae6-5d89-74c6-b581-3918d1816346","","null","
                <div class=""stimulus-container"">
                    <img src=""semantic_sequence_notimeline/clothing_semantic/clothing_semantic_1.png"" class=""exp-image"">
                    <div class=""question-area""></div> 
                </div>","null","","","","","","","","","","","",""
"","","","","","html-button-response","60","1445279","0.0-60.0","94F584C90D2A48CDA5DDD462E19FDE6B","019d6b21-26f8-78ab-a483-3e3eabf6994c","019d6ae6-5d89-74c6-b581-3918d1816346","","565","
                <div class=""stimulus-container"">
                    <img src=""semantic_sequence_notimeline/clothing_semantic/clothing_semantic_1.png"" class=""exp-image"">
                    <div class=""question-area"">
                        <p style=""font-size: 20px; font-weight: bold; margin: 0;"">Is there a person in this image?</p>
                    </div>
                </div>","1","main_experiment_trial","1","clothing_semantic","semantic_sequence_notimeline","chronological","","","","","","",""
"","","","","","html-keyboard-response","61","1450292","0.0-61.0","94F584C90D2A48CDA5DDD462E19FDE6B","019d6b21-26f8-78ab-a483-3e3eabf6994c","019d6ae6-5d89-74c6-b581-3918d1816346","","null","
                <div class=""stimulus-container"">
                    <img src=""semantic_sequence_notimeline/clothing_semantic/clothing_semantic_2.png"" class=""exp-image"">
                    <div class=""question-area""></div> 
                </div>","null","","","","","","","","","","","",""
"","","","","","html-button-response","62","1451791","0.0-62.0","94F584C90D2A48CDA5DDD462E19FDE6B","019d6b21-26f8-78ab-a483-3e3eabf6994c","019d6ae6-5d89-74c6-b581-3918d1816346","","1498","
                <div class=""stimulus-container"">
                    <img src=""semantic_sequence_notimeline/clothing_semantic/clothing_semantic_2.png"" class=""exp-image"">
                    <div class=""question-area"">
                        <p style=""font-size: 20px; font-weight: bold; margin: 0;"">Is there a person in this image?</p>
                    </div>
                </div>","1","main_experiment_trial","2","clothing_semantic","semantic_sequence_notimeline","chronological","","","","","","",""
"","","","","","html-keyboard-response","63","1456798","0.0-63.0","94F584C90D2A48CDA5DDD462E19FDE6B","019d6b21-26f8-78ab-a483-3e3eabf6994c","019d6ae6-5d89-74c6-b581-3918d1816346","","null","
                <div class=""stimulus-container"">
                    <img src=""semantic_sequence_notimeline/clothing_semantic/clothing_semantic_3.png"" class=""exp-image"">
                    <div class=""question-area""></div> 
                </div>","null","","","","","","","","","","","",""
"","","","","","html-button-response","64","1457821","0.0-64.0","94F584C90D2A48CDA5DDD462E19FDE6B","019d6b21-26f8-78ab-a483-3e3eabf6994c","019d6ae6-5d89-74c6-b581-3918d1816346","","1022","
                <div class=""stimulus-container"">
                    <img src=""semantic_sequence_notimeline/clothing_semantic/clothing_semantic_3.png"" class=""exp-image"">
                    <div class=""question-area"">
                        <p style=""font-size: 20px; font-weight: bold; margin: 0;"">Is there a person in this image?</p>
                    </div>
                </div>","1","main_experiment_trial","3","clothing_semantic","semantic_sequence_notimeline","chronological","","","","","","",""
"","","","","","html-keyboard-response","65","1462823","0.0-65.0","94F584C90D2A48CDA5DDD462E19FDE6B","019d6b21-26f8-78ab-a483-3e3eabf6994c","019d6ae6-5d89-74c6-b581-3918d1816346","","null","
                <div class=""stimulus-container"">
                    <img src=""semantic_sequence_notimeline/clothing_semantic/clothing_semantic_4.png"" class=""exp-image"">
                    <div class=""question-area""></div> 
                </div>","null","","","","","","","","","","","",""
"","","","","","html-button-response","66","1465829","0.0-66.0","94F584C90D2A48CDA5DDD462E19FDE6B","019d6b21-26f8-78ab-a483-3e3eabf6994c","019d6ae6-5d89-74c6-b581-3918d1816346","","null","
                <div class=""stimulus-container"">
                    <img src=""semantic_sequence_notimeline/clothing_semantic/clothing_semantic_4.png"" class=""exp-image"">
                    <div class=""question-area"">
                        <p style=""font-size: 20px; font-weight: bold; margin: 0;"">Is there a person in this image?</p>
                    </div>
                </div>","null","main_experiment_trial","4","clothing_semantic","semantic_sequence_notimeline","chronological","","","","","","",""
"","","","","","html-keyboard-response","67","1470839","0.0-67.0","94F584C90D2A48CDA5DDD462E19FDE6B","019d6b21-26f8-78ab-a483-3e3eabf6994c","019d6ae6-5d89-74c6-b581-3918d1816346","","null","
                <div class=""stimulus-container"">
                    <img src=""semantic_sequence_notimeline/clothing_semantic/clothing_semantic_5.png"" class=""exp-image"">
                    <div class=""question-area""></div> 
                </div>","null","","","","","","","","","","","",""
"","","","","","html-button-response","68","1472045","0.0-68.0","94F584C90D2A48CDA5DDD462E19FDE6B","019d6b21-26f8-78ab-a483-3e3eabf6994c","019d6ae6-5d89-74c6-b581-3918d1816346","","1204","
                <div class=""stimulus-container"">
                    <img src=""semantic_sequence_notimeline/clothing_semantic/clothing_semantic_5.png"" class=""exp-image"">
                    <div class=""question-area"">
                        <p style=""font-size: 20px; font-weight: bold; margin: 0;"">Is there a person in this image?</p>
                    </div>
                </div>","1","main_experiment_trial","5","clothing_semantic","semantic_sequence_notimeline","chronological","","","","","","",""
"","","","","","html-keyboard-response","69","1477046","0.0-69.0","94F584C90D2A48CDA5DDD462E19FDE6B","019d6b21-26f8-78ab-a483-3e3eabf6994c","019d6ae6-5d89-74c6-b581-3918d1816346","","null","
                <div class=""stimulus-container"">
                    <img src=""semantic_sequence_notimeline/clothing_semantic/clothing_semantic_6.png"" class=""exp-image"">
                    <div class=""question-area""></div> 
                </div>","null","","","","","","","","","","","",""
"","","","","","html-button-response","70","1477508","0.0-70.0","94F584C90D2A48CDA5DDD462E19FDE6B","019d6b21-26f8-78ab-a483-3e3eabf6994c","019d6ae6-5d89-74c6-b581-3918d1816346","","460","
                <div class=""stimulus-container"">
                    <img src=""semantic_sequence_notimeline/clothing_semantic/clothing_semantic_6.png"" class=""exp-image"">
                    <div class=""question-area"">
                        <p style=""font-size: 20px; font-weight: bold; margin: 0;"">Is there a person in this image?</p>
                    </div>
                </div>","1","main_experiment_trial","6","clothing_semantic","semantic_sequence_notimeline","chronological","","","","","","",""
"","","","","","html-keyboard-response","71","1482524","0.0-71.0","94F584C90D2A48CDA5DDD462E19FDE6B","019d6b21-26f8-78ab-a483-3e3eabf6994c","019d6ae6-5d89-74c6-b581-3918d1816346","","null","
                <div class=""stimulus-container"">
                    <img src=""semantic_sequence_notimeline/clothing_semantic/clothing_semantic_7.png"" class=""exp-image"">
                    <div class=""question-area""></div> 
                </div>","null","","","","","","","","","","","",""
"","","","","","html-button-response","72","1483415","0.0-72.0","94F584C90D2A48CDA5DDD462E19FDE6B","019d6b21-26f8-78ab-a483-3e3eabf6994c","019d6ae6-5d89-74c6-b581-3918d1816346","","889","
                <div class=""stimulus-container"">
                    <img src=""semantic_sequence_notimeline/clothing_semantic/clothing_semantic_7.png"" class=""exp-image"">
                    <div class=""question-area"">
                        <p style=""font-size: 20px; font-weight: bold; margin: 0;"">Is there a person in this image?</p>
                    </div>
                </div>","1","main_experiment_trial","7","clothing_semantic","semantic_sequence_notimeline","chronological","","","","","","",""
"","","","","","html-keyboard-response","73","1488420","0.0-73.0","94F584C90D2A48CDA5DDD462E19FDE6B","019d6b21-26f8-78ab-a483-3e3eabf6994c","019d6ae6-5d89-74c6-b581-3918d1816346","","null","
                <div class=""stimulus-container"">
                    <img src=""semantic_sequence_notimeline/clothing_semantic/clothing_semantic_8.png"" class=""exp-image"">
                    <div class=""question-area""></div> 
                </div>","null","","","","","","","","","","","",""
"","","","","","html-button-response","74","1489717","0.0-74.0","94F584C90D2A48CDA5DDD462E19FDE6B","019d6b21-26f8-78ab-a483-3e3eabf6994c","019d6ae6-5d89-74c6-b581-3918d1816346","","1296","
                <div class=""stimulus-container"">
                    <img src=""semantic_sequence_notimeline/clothing_semantic/clothing_semantic_8.png"" class=""exp-image"">
                    <div class=""question-area"">
                        <p style=""font-size: 20px; font-weight: bold; margin: 0;"">Is there a person in this image?</p>
                    </div>
                </div>","1","main_experiment_trial","8","clothing_semantic","semantic_sequence_notimeline","chronological","","","","","","",""
"","","","","","html-keyboard-response","75","1494729","0.0-75.0","94F584C90D2A48CDA5DDD462E19FDE6B","019d6b21-26f8-78ab-a483-3e3eabf6994c","019d6ae6-5d89-74c6-b581-3918d1816346","","null","
                <div class=""stimulus-container"">
                    <img src=""semantic_sequence_notimeline/clothing_semantic/clothing_semantic_9.png"" class=""exp-image"">
                    <div class=""question-area""></div> 
                </div>","null","","","","","","","","","","","",""
"","","","","","html-button-response","76","1496573","0.0-76.0","94F584C90D2A48CDA5DDD462E19FDE6B","019d6b21-26f8-78ab-a483-3e3eabf6994c","019d6ae6-5d89-74c6-b581-3918d1816346","","1843","
                <div class=""stimulus-container"">
                    <img src=""semantic_sequence_notimeline/clothing_semantic/clothing_semantic_9.png"" class=""exp-image"">
                    <div class=""question-area"">
                        <p style=""font-size: 20px; font-weight: bold; margin: 0;"">Is there a person in this image?</p>
                    </div>
                </div>","1","main_experiment_trial","9","clothing_semantic","semantic_sequence_notimeline","chronological","","","","","","",""
"","","","","","html-keyboard-response","77","1501588","0.0-77.0","94F584C90D2A48CDA5DDD462E19FDE6B","019d6b21-26f8-78ab-a483-3e3eabf6994c","019d6ae6-5d89-74c6-b581-3918d1816346","","null","
                <div class=""stimulus-container"">
                    <img src=""semantic_sequence_notimeline/clothing_semantic/clothing_semantic_ten.png"" class=""exp-image"">
                    <div class=""question-area""></div> 
                </div>","null","","","","","","","","","","","",""
"","","","","","html-button-response","78","1502185","0.0-78.0","94F584C90D2A48CDA5DDD462E19FDE6B","019d6b21-26f8-78ab-a483-3e3eabf6994c","019d6ae6-5d89-74c6-b581-3918d1816346","","596","
                <div class=""stimulus-container"">
                    <img src=""semantic_sequence_notimeline/clothing_semantic/clothing_semantic_ten.png"" class=""exp-image"">
                    <div class=""question-area"">
                        <p style=""font-size: 20px; font-weight: bold; margin: 0;"">Is there a person in this image?</p>
                    </div>
                </div>","1","main_experiment_trial","ten","clothing_semantic","semantic_sequence_notimeline","chronological","","","","","","",""
"","","","","","html-keyboard-response","79","1507195","0.0-79.0","94F584C90D2A48CDA5DDD462E19FDE6B","019d6b21-26f8-78ab-a483-3e3eabf6994c","019d6ae6-5d89-74c6-b581-3918d1816346","","null","<div style=""background-color: white; width: 100vw; height: 100vh;""></div>","null","","","","","","","","","","","",""
"","","","","","html-keyboard-response","80","1512202","0.0-80.0","94F584C90D2A48CDA5DDD462E19FDE6B","019d6b21-26f8-78ab-a483-3e3eabf6994c","019d6ae6-5d89-74c6-b581-3918d1816346","","null","
                <div class=""stimulus-container"">
                    <img src=""images/causal_sequence/package_causal/package_causal_1.png"" class=""exp-image"">
                    <div class=""question-area""></div> 
                </div>","null","","","","","","","","","","","",""
"","","","","","html-button-response","81","1513147","0.0-81.0","94F584C90D2A48CDA5DDD462E19FDE6B","019d6b21-26f8-78ab-a483-3e3eabf6994c","019d6ae6-5d89-74c6-b581-3918d1816346","","943","
                <div class=""stimulus-container"">
                    <img src=""images/causal_sequence/package_causal/package_causal_1.png"" class=""exp-image"">
                    <div class=""question-area"">
                        <p style=""font-size: 20px; font-weight: bold; margin: 0;"">Is there a person in this image?</p>
                    </div>
                </div>","0","main_experiment_trial","1","package_causal","causal_sequence","chronological","","","","","","",""
"","","","","","html-keyboard-response","82","1518162","0.0-82.0","94F584C90D2A48CDA5DDD462E19FDE6B","019d6b21-26f8-78ab-a483-3e3eabf6994c","019d6ae6-5d89-74c6-b581-3918d1816346","","null","
                <div class=""stimulus-container"">
                    <img src=""images/causal_sequence/package_causal/package_causal_2.png"" class=""exp-image"">
                    <div class=""question-area""></div> 
                </div>","null","","","","","","","","","","","",""
"","","","","","html-button-response","83","1519021","0.0-83.0","94F584C90D2A48CDA5DDD462E19FDE6B","019d6b21-26f8-78ab-a483-3e3eabf6994c","019d6ae6-5d89-74c6-b581-3918d1816346","","858","
                <div class=""stimulus-container"">
                    <img src=""images/causal_sequence/package_causal/package_causal_2.png"" class=""exp-image"">
                    <div class=""question-area"">
                        <p style=""font-size: 20px; font-weight: bold; margin: 0;"">Is there a person in this image?</p>
                    </div>
                </div>","0","main_experiment_trial","2","package_causal","causal_sequence","chronological","","","","","","",""
"","","","","","html-keyboard-response","84","1524024","0.0-84.0","94F584C90D2A48CDA5DDD462E19FDE6B","019d6b21-26f8-78ab-a483-3e3eabf6994c","019d6ae6-5d89-74c6-b581-3918d1816346","","null","
                <div class=""stimulus-container"">
                    <img src=""images/causal_sequence/package_causal/package_causal_3.png"" class=""exp-image"">
                    <div class=""question-area""></div> 
                </div>","null","","","","","","","","","","","",""
"","","","","","html-button-response","85","1525119","0.0-85.0","94F584C90D2A48CDA5DDD462E19FDE6B","019d6b21-26f8-78ab-a483-3e3eabf6994c","019d6ae6-5d89-74c6-b581-3918d1816346","","1094","
                <div class=""stimulus-container"">
                    <img src=""images/causal_sequence/package_causal/package_causal_3.png"" class=""exp-image"">
                    <div class=""question-area"">
                        <p style=""font-size: 20px; font-weight: bold; margin: 0;"">Is there a person in this image?</p>
                    </div>
                </div>","0","main_experiment_trial","3","package_causal","causal_sequence","chronological","","","","","","",""
"","","","","","html-keyboard-response","86","1530120","0.0-86.0","94F584C90D2A48CDA5DDD462E19FDE6B","019d6b21-26f8-78ab-a483-3e3eabf6994c","019d6ae6-5d89-74c6-b581-3918d1816346","","null","
                <div class=""stimulus-container"">
                    <img src=""images/causal_sequence/package_causal/package_causal_4.png"" class=""exp-image"">
                    <div class=""question-area""></div> 
                </div>","null","","","","","","","","","","","",""
"","","","","","html-button-response","87","1531283","0.0-87.0","94F584C90D2A48CDA5DDD462E19FDE6B","019d6b21-26f8-78ab-a483-3e3eabf6994c","019d6ae6-5d89-74c6-b581-3918d1816346","","1161","
                <div class=""stimulus-container"">
                    <img src=""images/causal_sequence/package_causal/package_causal_4.png"" class=""exp-image"">
                    <div class=""question-area"">
                        <p style=""font-size: 20px; font-weight: bold; margin: 0;"">Is there a person in this image?</p>
                    </div>
                </div>","1","main_experiment_trial","4","package_causal","causal_sequence","chronological","","","","","","",""
"","","","","","html-keyboard-response","88","1536284","0.0-88.0","94F584C90D2A48CDA5DDD462E19FDE6B","019d6b21-26f8-78ab-a483-3e3eabf6994c","019d6ae6-5d89-74c6-b581-3918d1816346","","null","
                <div class=""stimulus-container"">
                    <img src=""images/causal_sequence/package_causal/package_causal_5.png"" class=""exp-image"">
                    <div class=""question-area""></div> 
                </div>","null","","","","","","","","","","","",""
"","","","","","html-button-response","89","1537373","0.0-89.0","94F584C90D2A48CDA5DDD462E19FDE6B","019d6b21-26f8-78ab-a483-3e3eabf6994c","019d6ae6-5d89-74c6-b581-3918d1816346","","1088","
                <div class=""stimulus-container"">
                    <img src=""images/causal_sequence/package_causal/package_causal_5.png"" class=""exp-image"">
                    <div class=""question-area"">
                        <p style=""font-size: 20px; font-weight: bold; margin: 0;"">Is there a person in this image?</p>
                    </div>
                </div>","0","main_experiment_trial","5","package_causal","causal_sequence","chronological","","","","","","",""
"","","","","","html-keyboard-response","90","1542383","0.0-90.0","94F584C90D2A48CDA5DDD462E19FDE6B","019d6b21-26f8-78ab-a483-3e3eabf6994c","019d6ae6-5d89-74c6-b581-3918d1816346","","null","
                <div class=""stimulus-container"">
                    <img src=""images/causal_sequence/package_causal/package_causal_6.png"" class=""exp-image"">
                    <div class=""question-area""></div> 
                </div>","null","","","","","","","","","","","",""
"","","","","","html-button-response","91","1543492","0.0-91.0","94F584C90D2A48CDA5DDD462E19FDE6B","019d6b21-26f8-78ab-a483-3e3eabf6994c","019d6ae6-5d89-74c6-b581-3918d1816346","","1108","
                <div class=""stimulus-container"">
                    <img src=""images/causal_sequence/package_causal/package_causal_6.png"" class=""exp-image"">
                    <div class=""question-area"">
                        <p style=""font-size: 20px; font-weight: bold; margin: 0;"">Is there a person in this image?</p>
                    </div>
                </div>","0","main_experiment_trial","6","package_causal","causal_sequence","chronological","","","","","","",""
"","","","","","html-keyboard-response","92","1548495","0.0-92.0","94F584C90D2A48CDA5DDD462E19FDE6B","019d6b21-26f8-78ab-a483-3e3eabf6994c","019d6ae6-5d89-74c6-b581-3918d1816346","","null","
                <div class=""stimulus-container"">
                    <img src=""images/causal_sequence/package_causal/package_causal_7.png"" class=""exp-image"">
                    <div class=""question-area""></div> 
                </div>","null","","","","","","","","","","","",""
"","","","","","html-button-response","93","1551510","0.0-93.0","94F584C90D2A48CDA5DDD462E19FDE6B","019d6b21-26f8-78ab-a483-3e3eabf6994c","019d6ae6-5d89-74c6-b581-3918d1816346","","null","
                <div class=""stimulus-container"">
                    <img src=""images/causal_sequence/package_causal/package_causal_7.png"" class=""exp-image"">
                    <div class=""question-area"">
                        <p style=""font-size: 20px; font-weight: bold; margin: 0;"">Is there a person in this image?</p>
                    </div>
                </div>","null","main_experiment_trial","7","package_causal","causal_sequence","chronological","","","","","","",""
"","","","","","html-keyboard-response","94","1556526","0.0-94.0","94F584C90D2A48CDA5DDD462E19FDE6B","019d6b21-26f8-78ab-a483-3e3eabf6994c","019d6ae6-5d89-74c6-b581-3918d1816346","","null","
                <div class=""stimulus-container"">
                    <img src=""images/causal_sequence/package_causal/package_causal_8.png"" class=""exp-image"">
                    <div class=""question-area""></div> 
                </div>","null","","","","","","","","","","","",""
"","","","","","html-button-response","95","1558655","0.0-95.0","94F584C90D2A48CDA5DDD462E19FDE6B","019d6b21-26f8-78ab-a483-3e3eabf6994c","019d6ae6-5d89-74c6-b581-3918d1816346","","2128","
                <div class=""stimulus-container"">
                    <img src=""images/causal_sequence/package_causal/package_causal_8.png"" class=""exp-image"">
                    <div class=""question-area"">
                        <p style=""font-size: 20px; font-weight: bold; margin: 0;"">Is there a person in this image?</p>
                    </div>
                </div>","0","main_experiment_trial","8","package_causal","causal_sequence","chronological","","","","","","",""
"","","","","","html-keyboard-response","96","1563662","0.0-96.0","94F584C90D2A48CDA5DDD462E19FDE6B","019d6b21-26f8-78ab-a483-3e3eabf6994c","019d6ae6-5d89-74c6-b581-3918d1816346","","null","
                <div class=""stimulus-container"">
                    <img src=""images/causal_sequence/package_causal/package_causal_9.png"" class=""exp-image"">
                    <div class=""question-area""></div> 
                </div>","null","","","","","","","","","","","",""
"","","","","","html-button-response","97","1564877","0.0-97.0","94F584C90D2A48CDA5DDD462E19FDE6B","019d6b21-26f8-78ab-a483-3e3eabf6994c","019d6ae6-5d89-74c6-b581-3918d1816346","","1214","
                <div class=""stimulus-container"">
                    <img src=""images/causal_sequence/package_causal/package_causal_9.png"" class=""exp-image"">
                    <div class=""question-area"">
                        <p style=""font-size: 20px; font-weight: bold; margin: 0;"">Is there a person in this image?</p>
                    </div>
                </div>","0","main_experiment_trial","9","package_causal","causal_sequence","chronological","","","","","","",""
"","","","","","html-keyboard-response","98","1569892","0.0-98.0","94F584C90D2A48CDA5DDD462E19FDE6B","019d6b21-26f8-78ab-a483-3e3eabf6994c","019d6ae6-5d89-74c6-b581-3918d1816346","","null","
                <div class=""stimulus-container"">
                    <img src=""images/causal_sequence/package_causal/package_causal_ten.png"" class=""exp-image"">
                    <div class=""question-area""></div> 
                </div>","null","","","","","","","","","","","",""
"","","","","","html-button-response","99","1570923","0.0-99.0","94F584C90D2A48CDA5DDD462E19FDE6B","019d6b21-26f8-78ab-a483-3e3eabf6994c","019d6ae6-5d89-74c6-b581-3918d1816346","","1030","
                <div class=""stimulus-container"">
                    <img src=""images/causal_sequence/package_causal/package_causal_ten.png"" class=""exp-image"">
                    <div class=""question-area"">
                        <p style=""font-size: 20px; font-weight: bold; margin: 0;"">Is there a person in this image?</p>
                    </div>
                </div>","0","main_experiment_trial","ten","package_causal","causal_sequence","chronological","","","","","","",""
"","","","","","html-keyboard-response","100","1575937","0.0-100.0","94F584C90D2A48CDA5DDD462E19FDE6B","019d6b21-26f8-78ab-a483-3e3eabf6994c","019d6ae6-5d89-74c6-b581-3918d1816346","","null","<div style=""background-color: white; width: 100vw; height: 100vh;""></div>","null","","","","","","","","","","","",""
"","","","","","html-keyboard-response","101","1580940","0.0-101.0","94F584C90D2A48CDA5DDD462E19FDE6B","019d6b21-26f8-78ab-a483-3e3eabf6994c","019d6ae6-5d89-74c6-b581-3918d1816346","","null","
                <div class=""stimulus-container"">
                    <img src=""images/causal_sequence/dog_causal/dog_causal_1.png"" class=""exp-image"">
                    <div class=""question-area""></div> 
                </div>","null","","","","","","","","","","","",""
"","","","","","html-button-response","102","1581965","0.0-102.0","94F584C90D2A48CDA5DDD462E19FDE6B","019d6b21-26f8-78ab-a483-3e3eabf6994c","019d6ae6-5d89-74c6-b581-3918d1816346","","1024","
                <div class=""stimulus-container"">
                    <img src=""images/causal_sequence/dog_causal/dog_causal_1.png"" class=""exp-image"">
                    <div class=""question-area"">
                        <p style=""font-size: 20px; font-weight: bold; margin: 0;"">Is there a person in this image?</p>
                    </div>
                </div>","0","main_experiment_trial","1","dog_causal","causal_sequence","chronological","","","","","","",""
"","","","","","html-keyboard-response","103","1586975","0.0-103.0","94F584C90D2A48CDA5DDD462E19FDE6B","019d6b21-26f8-78ab-a483-3e3eabf6994c","019d6ae6-5d89-74c6-b581-3918d1816346","","null","
                <div class=""stimulus-container"">
                    <img src=""images/causal_sequence/dog_causal/dog_causal_2.png"" class=""exp-image"">
                    <div class=""question-area""></div> 
                </div>","null","","","","","","","","","","","",""
"","","","","","html-button-response","104","1587523","0.0-104.0","94F584C90D2A48CDA5DDD462E19FDE6B","019d6b21-26f8-78ab-a483-3e3eabf6994c","019d6ae6-5d89-74c6-b581-3918d1816346","","547","
                <div class=""stimulus-container"">
                    <img src=""images/causal_sequence/dog_causal/dog_causal_2.png"" class=""exp-image"">
                    <div class=""question-area"">
                        <p style=""font-size: 20px; font-weight: bold; margin: 0;"">Is there a person in this image?</p>
                    </div>
                </div>","0","main_experiment_trial","2","dog_causal","causal_sequence","chronological","","","","","","",""
"","","","","","html-keyboard-response","105","1592539","0.0-105.0","94F584C90D2A48CDA5DDD462E19FDE6B","019d6b21-26f8-78ab-a483-3e3eabf6994c","019d6ae6-5d89-74c6-b581-3918d1816346","","null","
                <div class=""stimulus-container"">
                    <img src=""images/causal_sequence/dog_causal/dog_causal_3.png"" class=""exp-image"">
                    <div class=""question-area""></div> 
                </div>","null","","","","","","","","","","","",""
"","","","","","html-button-response","106","1593783","0.0-106.0","94F584C90D2A48CDA5DDD462E19FDE6B","019d6b21-26f8-78ab-a483-3e3eabf6994c","019d6ae6-5d89-74c6-b581-3918d1816346","","1243","
                <div class=""stimulus-container"">
                    <img src=""images/causal_sequence/dog_causal/dog_causal_3.png"" class=""exp-image"">
                    <div class=""question-area"">
                        <p style=""font-size: 20px; font-weight: bold; margin: 0;"">Is there a person in this image?</p>
                    </div>
                </div>","0","main_experiment_trial","3","dog_causal","causal_sequence","chronological","","","","","","",""
"","","","","","html-keyboard-response","107","1598798","0.0-107.0","94F584C90D2A48CDA5DDD462E19FDE6B","019d6b21-26f8-78ab-a483-3e3eabf6994c","019d6ae6-5d89-74c6-b581-3918d1816346","","null","
                <div class=""stimulus-container"">
                    <img src=""images/causal_sequence/dog_causal/dog_causal_4.png"" class=""exp-image"">
                    <div class=""question-area""></div> 
                </div>","null","","","","","","","","","","","",""
"","","","","","html-button-response","108","1600343","0.0-108.0","94F584C90D2A48CDA5DDD462E19FDE6B","019d6b21-26f8-78ab-a483-3e3eabf6994c","019d6ae6-5d89-74c6-b581-3918d1816346","","1544","
                <div class=""stimulus-container"">
                    <img src=""images/causal_sequence/dog_causal/dog_causal_4.png"" class=""exp-image"">
                    <div class=""question-area"">
                        <p style=""font-size: 20px; font-weight: bold; margin: 0;"">Is there a person in this image?</p>
                    </div>
                </div>","0","main_experiment_trial","4","dog_causal","causal_sequence","chronological","","","","","","",""
"","","","","","html-keyboard-response","109","1605345","0.0-109.0","94F584C90D2A48CDA5DDD462E19FDE6B","019d6b21-26f8-78ab-a483-3e3eabf6994c","019d6ae6-5d89-74c6-b581-3918d1816346","","null","
                <div class=""stimulus-container"">
                    <img src=""images/causal_sequence/dog_causal/dog_causal_5.png"" class=""exp-image"">
                    <div class=""question-area""></div> 
                </div>","null","","","","","","","","","","","",""
"","","","","","html-button-response","110","1607633","0.0-110.0","94F584C90D2A48CDA5DDD462E19FDE6B","019d6b21-26f8-78ab-a483-3e3eabf6994c","019d6ae6-5d89-74c6-b581-3918d1816346","","2287","
                <div class=""stimulus-container"">
                    <img src=""images/causal_sequence/dog_causal/dog_causal_5.png"" class=""exp-image"">
                    <div class=""question-area"">
                        <p style=""font-size: 20px; font-weight: bold; margin: 0;"">Is there a person in this image?</p>
                    </div>
                </div>","0","main_experiment_trial","5","dog_causal","causal_sequence","chronological","","","","","","",""
"","","","","","html-keyboard-response","111","1612635","0.0-111.0","94F584C90D2A48CDA5DDD462E19FDE6B","019d6b21-26f8-78ab-a483-3e3eabf6994c","019d6ae6-5d89-74c6-b581-3918d1816346","","null","
                <div class=""stimulus-container"">
                    <img src=""images/causal_sequence/dog_causal/dog_causal_6.png"" class=""exp-image"">
                    <div class=""question-area""></div> 
                </div>","null","","","","","","","","","","","",""
"","","","","","html-button-response","112","1614777","0.0-112.0","94F584C90D2A48CDA5DDD462E19FDE6B","019d6b21-26f8-78ab-a483-3e3eabf6994c","019d6ae6-5d89-74c6-b581-3918d1816346","","2141","
                <div class=""stimulus-container"">
                    <img src=""images/causal_sequence/dog_causal/dog_causal_6.png"" class=""exp-image"">
                    <div class=""question-area"">
                        <p style=""font-size: 20px; font-weight: bold; margin: 0;"">Is there a person in this image?</p>
                    </div>
                </div>","0","main_experiment_trial","6","dog_causal","causal_sequence","chronological","","","","","","",""
"","","","","","html-keyboard-response","113","1619792","0.0-113.0","94F584C90D2A48CDA5DDD462E19FDE6B","019d6b21-26f8-78ab-a483-3e3eabf6994c","019d6ae6-5d89-74c6-b581-3918d1816346","","null","
                <div class=""stimulus-container"">
                    <img src=""images/causal_sequence/dog_causal/dog_causal_7.png"" class=""exp-image"">
                    <div class=""question-area""></div> 
                </div>","null","","","","","","","","","","","",""
"","","","","","html-button-response","114","1622801","0.0-114.0","94F584C90D2A48CDA5DDD462E19FDE6B","019d6b21-26f8-78ab-a483-3e3eabf6994c","019d6ae6-5d89-74c6-b581-3918d1816346","","null","
                <div class=""stimulus-container"">
                    <img src=""images/causal_sequence/dog_causal/dog_causal_7.png"" class=""exp-image"">
                    <div class=""question-area"">
                        <p style=""font-size: 20px; font-weight: bold; margin: 0;"">Is there a person in this image?</p>
                    </div>
                </div>","null","main_experiment_trial","7","dog_causal","causal_sequence","chronological","","","","","","",""
"","","","","","html-keyboard-response","115","1627803","0.0-115.0","94F584C90D2A48CDA5DDD462E19FDE6B","019d6b21-26f8-78ab-a483-3e3eabf6994c","019d6ae6-5d89-74c6-b581-3918d1816346","","null","
                <div class=""stimulus-container"">
                    <img src=""images/causal_sequence/dog_causal/dog_causal_8.png"" class=""exp-image"">
                    <div class=""question-area""></div> 
                </div>","null","","","","","","","","","","","",""
"","","","","","html-button-response","116","1629699","0.0-116.0","94F584C90D2A48CDA5DDD462E19FDE6B","019d6b21-26f8-78ab-a483-3e3eabf6994c","019d6ae6-5d89-74c6-b581-3918d1816346","","1895","
                <div class=""stimulus-container"">
                    <img src=""images/causal_sequence/dog_causal/dog_causal_8.png"" class=""exp-image"">
                    <div class=""question-area"">
                        <p style=""font-size: 20px; font-weight: bold; margin: 0;"">Is there a person in this image?</p>
                    </div>
                </div>","0","main_experiment_trial","8","dog_causal","causal_sequence","chronological","","","","","","",""
"","","","","","html-keyboard-response","117","1634712","0.0-117.0","94F584C90D2A48CDA5DDD462E19FDE6B","019d6b21-26f8-78ab-a483-3e3eabf6994c","019d6ae6-5d89-74c6-b581-3918d1816346","","null","
                <div class=""stimulus-container"">
                    <img src=""images/causal_sequence/dog_causal/dog_causal_9.png"" class=""exp-image"">
                    <div class=""question-area""></div> 
                </div>","null","","","","","","","","","","","",""
"","","","","","html-button-response","118","1636447","0.0-118.0","94F584C90D2A48CDA5DDD462E19FDE6B","019d6b21-26f8-78ab-a483-3e3eabf6994c","019d6ae6-5d89-74c6-b581-3918d1816346","","1735","
                <div class=""stimulus-container"">
                    <img src=""images/causal_sequence/dog_causal/dog_causal_9.png"" class=""exp-image"">
                    <div class=""question-area"">
                        <p style=""font-size: 20px; font-weight: bold; margin: 0;"">Is there a person in this image?</p>
                    </div>
                </div>","0","main_experiment_trial","9","dog_causal","causal_sequence","chronological","","","","","","",""
"","","","","","html-keyboard-response","119","1641464","0.0-119.0","94F584C90D2A48CDA5DDD462E19FDE6B","019d6b21-26f8-78ab-a483-3e3eabf6994c","019d6ae6-5d89-74c6-b581-3918d1816346","","null","
                <div class=""stimulus-container"">
                    <img src=""images/causal_sequence/dog_causal/dog_causal_ten.png"" class=""exp-image"">
                    <div class=""question-area""></div> 
                </div>","null","","","","","","","","","","","",""
"","","","","","html-button-response","120","1642097","0.0-120.0","94F584C90D2A48CDA5DDD462E19FDE6B","019d6b21-26f8-78ab-a483-3e3eabf6994c","019d6ae6-5d89-74c6-b581-3918d1816346","","632","
                <div class=""stimulus-container"">
                    <img src=""images/causal_sequence/dog_causal/dog_causal_ten.png"" class=""exp-image"">
                    <div class=""question-area"">
                        <p style=""font-size: 20px; font-weight: bold; margin: 0;"">Is there a person in this image?</p>
                    </div>
                </div>","0","main_experiment_trial","ten","dog_causal","causal_sequence","chronological","","","","","","",""
"","","","","","html-keyboard-response","121","1647098","0.0-121.0","94F584C90D2A48CDA5DDD462E19FDE6B","019d6b21-26f8-78ab-a483-3e3eabf6994c","019d6ae6-5d89-74c6-b581-3918d1816346","","null","<div style=""background-color: white; width: 100vw; height: 100vh;""></div>","null","","","","","","","","","","","",""
"","","","","","html-keyboard-response","122","1652106","0.0-122.0","94F584C90D2A48CDA5DDD462E19FDE6B","019d6b21-26f8-78ab-a483-3e3eabf6994c","019d6ae6-5d89-74c6-b581-3918d1816346","","null","
                <div class=""stimulus-container"">
                    <img src=""images/causal_sequence/saving_a_cat_causal/saving_a_cat_causal_1.png"" class=""exp-image"">
                    <div class=""question-area""></div> 
                </div>","null","","","","","","","","","","","",""
"","","","","","html-button-response","123","1654259","0.0-123.0","94F584C90D2A48CDA5DDD462E19FDE6B","019d6b21-26f8-78ab-a483-3e3eabf6994c","019d6ae6-5d89-74c6-b581-3918d1816346","","2151","
                <div class=""stimulus-container"">
                    <img src=""images/causal_sequence/saving_a_cat_causal/saving_a_cat_causal_1.png"" class=""exp-image"">
                    <div class=""question-area"">
                        <p style=""font-size: 20px; font-weight: bold; margin: 0;"">Is there a person in this image?</p>
                    </div>
                </div>","0","main_experiment_trial","1","saving_a_cat_causal","causal_sequence","chronological","","","","","","",""
"","","","","","html-keyboard-response","124","1659270","0.0-124.0","94F584C90D2A48CDA5DDD462E19FDE6B","019d6b21-26f8-78ab-a483-3e3eabf6994c","019d6ae6-5d89-74c6-b581-3918d1816346","","null","
                <div class=""stimulus-container"">
                    <img src=""images/causal_sequence/saving_a_cat_causal/saving_a_cat_causal_2.png"" class=""exp-image"">
                    <div class=""question-area""></div> 
                </div>","null","","","","","","","","","","","",""
"","","","","","html-button-response","125","1661411","0.0-125.0","94F584C90D2A48CDA5DDD462E19FDE6B","019d6b21-26f8-78ab-a483-3e3eabf6994c","019d6ae6-5d89-74c6-b581-3918d1816346","","2140","
                <div class=""stimulus-container"">
                    <img src=""images/causal_sequence/saving_a_cat_causal/saving_a_cat_causal_2.png"" class=""exp-image"">
                    <div class=""question-area"">
                        <p style=""font-size: 20px; font-weight: bold; margin: 0;"">Is there a person in this image?</p>
                    </div>
                </div>","1","main_experiment_trial","2","saving_a_cat_causal","causal_sequence","chronological","","","","","","",""
"","","","","","html-keyboard-response","126","1666413","0.0-126.0","94F584C90D2A48CDA5DDD462E19FDE6B","019d6b21-26f8-78ab-a483-3e3eabf6994c","019d6ae6-5d89-74c6-b581-3918d1816346","","null","
                <div class=""stimulus-container"">
                    <img src=""images/causal_sequence/saving_a_cat_causal/saving_a_cat_causal_3.png"" class=""exp-image"">
                    <div class=""question-area""></div> 
                </div>","null","","","","","","","","","","","",""
"","","","","","html-button-response","127","1669415","0.0-127.0","94F584C90D2A48CDA5DDD462E19FDE6B","019d6b21-26f8-78ab-a483-3e3eabf6994c","019d6ae6-5d89-74c6-b581-3918d1816346","","null","
                <div class=""stimulus-container"">
                    <img src=""images/causal_sequence/saving_a_cat_causal/saving_a_cat_causal_3.png"" class=""exp-image"">
                    <div class=""question-area"">
                        <p style=""font-size: 20px; font-weight: bold; margin: 0;"">Is there a person in this image?</p>
                    </div>
                </div>","null","main_experiment_trial","3","saving_a_cat_causal","causal_sequence","chronological","","","","","","",""
"","","","","","html-keyboard-response","128","1674418","0.0-128.0","94F584C90D2A48CDA5DDD462E19FDE6B","019d6b21-26f8-78ab-a483-3e3eabf6994c","019d6ae6-5d89-74c6-b581-3918d1816346","","null","
                <div class=""stimulus-container"">
                    <img src=""images/causal_sequence/saving_a_cat_causal/saving_a_cat_causal_4.png"" class=""exp-image"">
                    <div class=""question-area""></div> 
                </div>","null","","","","","","","","","","","",""
"","","","","","html-button-response","129","1676319","0.0-129.0","94F584C90D2A48CDA5DDD462E19FDE6B","019d6b21-26f8-78ab-a483-3e3eabf6994c","019d6ae6-5d89-74c6-b581-3918d1816346","","1900","
                <div class=""stimulus-container"">
                    <img src=""images/causal_sequence/saving_a_cat_causal/saving_a_cat_causal_4.png"" class=""exp-image"">
                    <div class=""question-area"">
                        <p style=""font-size: 20px; font-weight: bold; margin: 0;"">Is there a person in this image?</p>
                    </div>
                </div>","0","main_experiment_trial","4","saving_a_cat_causal","causal_sequence","chronological","","","","","","",""
"","","","","","html-keyboard-response","130","1681325","0.0-130.0","94F584C90D2A48CDA5DDD462E19FDE6B","019d6b21-26f8-78ab-a483-3e3eabf6994c","019d6ae6-5d89-74c6-b581-3918d1816346","","null","
                <div class=""stimulus-container"">
                    <img src=""images/causal_sequence/saving_a_cat_causal/saving_a_cat_causal_5.png"" class=""exp-image"">
                    <div class=""question-area""></div> 
                </div>","null","","","","","","","","","","","",""
"","","","","","html-button-response","131","1682087","0.0-131.0","94F584C90D2A48CDA5DDD462E19FDE6B","019d6b21-26f8-78ab-a483-3e3eabf6994c","019d6ae6-5d89-74c6-b581-3918d1816346","","761","
                <div class=""stimulus-container"">
                    <img src=""images/causal_sequence/saving_a_cat_causal/saving_a_cat_causal_5.png"" class=""exp-image"">
                    <div class=""question-area"">
                        <p style=""font-size: 20px; font-weight: bold; margin: 0;"">Is there a person in this image?</p>
                    </div>
                </div>","0","main_experiment_trial","5","saving_a_cat_causal","causal_sequence","chronological","","","","","","",""
"","","","","","html-keyboard-response","132","1687102","0.0-132.0","94F584C90D2A48CDA5DDD462E19FDE6B","019d6b21-26f8-78ab-a483-3e3eabf6994c","019d6ae6-5d89-74c6-b581-3918d1816346","","null","
                <div class=""stimulus-container"">
                    <img src=""images/causal_sequence/saving_a_cat_causal/saving_a_cat_causal_6.png"" class=""exp-image"">
                    <div class=""question-area""></div> 
                </div>","null","","","","","","","","","","","",""
"","","","","","html-button-response","133","1687817","0.0-133.0","94F584C90D2A48CDA5DDD462E19FDE6B","019d6b21-26f8-78ab-a483-3e3eabf6994c","019d6ae6-5d89-74c6-b581-3918d1816346","","714","
                <div class=""stimulus-container"">
                    <img src=""images/causal_sequence/saving_a_cat_causal/saving_a_cat_causal_6.png"" class=""exp-image"">
                    <div class=""question-area"">
                        <p style=""font-size: 20px; font-weight: bold; margin: 0;"">Is there a person in this image?</p>
                    </div>
                </div>","0","main_experiment_trial","6","saving_a_cat_causal","causal_sequence","chronological","","","","","","",""
"","","","","","html-keyboard-response","134","1692819","0.0-134.0","94F584C90D2A48CDA5DDD462E19FDE6B","019d6b21-26f8-78ab-a483-3e3eabf6994c","019d6ae6-5d89-74c6-b581-3918d1816346","","null","
                <div class=""stimulus-container"">
                    <img src=""images/causal_sequence/saving_a_cat_causal/saving_a_cat_causal_7.png"" class=""exp-image"">
                    <div class=""question-area""></div> 
                </div>","null","","","","","","","","","","","",""
"","","","","","html-button-response","135","1694875","0.0-135.0","94F584C90D2A48CDA5DDD462E19FDE6B","019d6b21-26f8-78ab-a483-3e3eabf6994c","019d6ae6-5d89-74c6-b581-3918d1816346","","2054","
                <div class=""stimulus-container"">
                    <img src=""images/causal_sequence/saving_a_cat_causal/saving_a_cat_causal_7.png"" class=""exp-image"">
                    <div class=""question-area"">
                        <p style=""font-size: 20px; font-weight: bold; margin: 0;"">Is there a person in this image?</p>
                    </div>
                </div>","0","main_experiment_trial","7","saving_a_cat_causal","causal_sequence","chronological","","","","","","",""
"","","","","","html-keyboard-response","136","1699886","0.0-136.0","94F584C90D2A48CDA5DDD462E19FDE6B","019d6b21-26f8-78ab-a483-3e3eabf6994c","019d6ae6-5d89-74c6-b581-3918d1816346","","null","
                <div class=""stimulus-container"">
                    <img src=""images/causal_sequence/saving_a_cat_causal/saving_a_cat_causal_8.png"" class=""exp-image"">
                    <div class=""question-area""></div> 
                </div>","null","","","","","","","","","","","",""
"","","","","","html-button-response","137","1701305","0.0-137.0","94F584C90D2A48CDA5DDD462E19FDE6B","019d6b21-26f8-78ab-a483-3e3eabf6994c","019d6ae6-5d89-74c6-b581-3918d1816346","","1419","
                <div class=""stimulus-container"">
                    <img src=""images/causal_sequence/saving_a_cat_causal/saving_a_cat_causal_8.png"" class=""exp-image"">
                    <div class=""question-area"">
                        <p style=""font-size: 20px; font-weight: bold; margin: 0;"">Is there a person in this image?</p>
                    </div>
                </div>","0","main_experiment_trial","8","saving_a_cat_causal","causal_sequence","chronological","","","","","","",""
"","","","","","html-keyboard-response","138","1706318","0.0-138.0","94F584C90D2A48CDA5DDD462E19FDE6B","019d6b21-26f8-78ab-a483-3e3eabf6994c","019d6ae6-5d89-74c6-b581-3918d1816346","","null","
                <div class=""stimulus-container"">
                    <img src=""images/causal_sequence/saving_a_cat_causal/saving_a_cat_causal_9.png"" class=""exp-image"">
                    <div class=""question-area""></div> 
                </div>","null","","","","","","","","","","","",""
"","","","","","html-button-response","139","1707925","0.0-139.0","94F584C90D2A48CDA5DDD462E19FDE6B","019d6b21-26f8-78ab-a483-3e3eabf6994c","019d6ae6-5d89-74c6-b581-3918d1816346","","1606","
                <div class=""stimulus-container"">
                    <img src=""images/causal_sequence/saving_a_cat_causal/saving_a_cat_causal_9.png"" class=""exp-image"">
                    <div class=""question-area"">
                        <p style=""font-size: 20px; font-weight: bold; margin: 0;"">Is there a person in this image?</p>
                    </div>
                </div>","0","main_experiment_trial","9","saving_a_cat_causal","causal_sequence","chronological","","","","","","",""
"","","","","","html-keyboard-response","140","1712926","0.0-140.0","94F584C90D2A48CDA5DDD462E19FDE6B","019d6b21-26f8-78ab-a483-3e3eabf6994c","019d6ae6-5d89-74c6-b581-3918d1816346","","null","
                <div class=""stimulus-container"">
                    <img src=""images/causal_sequence/saving_a_cat_causal/saving_a_cat_causal_ten.png"" class=""exp-image"">
                    <div class=""question-area""></div> 
                </div>","null","","","","","","","","","","","",""
"","","","","","html-button-response","141","1714991","0.0-141.0","94F584C90D2A48CDA5DDD462E19FDE6B","019d6b21-26f8-78ab-a483-3e3eabf6994c","019d6ae6-5d89-74c6-b581-3918d1816346","","2065","
                <div class=""stimulus-container"">
                    <img src=""images/causal_sequence/saving_a_cat_causal/saving_a_cat_causal_ten.png"" class=""exp-image"">
                    <div class=""question-area"">
                        <p style=""font-size: 20px; font-weight: bold; margin: 0;"">Is there a person in this image?</p>
                    </div>
                </div>","0","main_experiment_trial","ten","saving_a_cat_causal","causal_sequence","chronological","","","","","","",""
"","","","","","html-keyboard-response","142","1719993","0.0-142.0","94F584C90D2A48CDA5DDD462E19FDE6B","019d6b21-26f8-78ab-a483-3e3eabf6994c","019d6ae6-5d89-74c6-b581-3918d1816346","","null","<div style=""background-color: white; width: 100vw; height: 100vh;""></div>","null","","","","","","","","","","","",""
"","","","","","html-keyboard-response","143","1724996","0.0-143.0","94F584C90D2A48CDA5DDD462E19FDE6B","019d6b21-26f8-78ab-a483-3e3eabf6994c","019d6ae6-5d89-74c6-b581-3918d1816346","","null","
                <div class=""stimulus-container"">
                    <img src=""semantic_sequence_notimeline/professions_semantic/professions_semantic_1.png"" class=""exp-image"">
                    <div class=""question-area""></div> 
                </div>","null","","","","","","","","","","","",""
"","","","","","html-button-response","144","1726690","0.0-144.0","94F584C90D2A48CDA5DDD462E19FDE6B","019d6b21-26f8-78ab-a483-3e3eabf6994c","019d6ae6-5d89-74c6-b581-3918d1816346","","1693","
                <div class=""stimulus-container"">
                    <img src=""semantic_sequence_notimeline/professions_semantic/professions_semantic_1.png"" class=""exp-image"">
                    <div class=""question-area"">
                        <p style=""font-size: 20px; font-weight: bold; margin: 0;"">Is there a person in this image?</p>
                    </div>
                </div>","0","main_experiment_trial","1","professions_semantic","semantic_sequence_notimeline","chronological","","","","","","",""
"","","","","","html-keyboard-response","145","1731697","0.0-145.0","94F584C90D2A48CDA5DDD462E19FDE6B","019d6b21-26f8-78ab-a483-3e3eabf6994c","019d6ae6-5d89-74c6-b581-3918d1816346","","null","
                <div class=""stimulus-container"">
                    <img src=""semantic_sequence_notimeline/professions_semantic/professions_semantic_2.png"" class=""exp-image"">
                    <div class=""question-area""></div> 
                </div>","null","","","","","","","","","","","",""
"","","","","","html-button-response","146","1732817","0.0-146.0","94F584C90D2A48CDA5DDD462E19FDE6B","019d6b21-26f8-78ab-a483-3e3eabf6994c","019d6ae6-5d89-74c6-b581-3918d1816346","","1119","
                <div class=""stimulus-container"">
                    <img src=""semantic_sequence_notimeline/professions_semantic/professions_semantic_2.png"" class=""exp-image"">
                    <div class=""question-area"">
                        <p style=""font-size: 20px; font-weight: bold; margin: 0;"">Is there a person in this image?</p>
                    </div>
                </div>","0","main_experiment_trial","2","professions_semantic","semantic_sequence_notimeline","chronological","","","","","","",""
"","","","","","html-keyboard-response","147","1737823","0.0-147.0","94F584C90D2A48CDA5DDD462E19FDE6B","019d6b21-26f8-78ab-a483-3e3eabf6994c","019d6ae6-5d89-74c6-b581-3918d1816346","","null","
                <div class=""stimulus-container"">
                    <img src=""semantic_sequence_notimeline/professions_semantic/professions_semantic_3.png"" class=""exp-image"">
                    <div class=""question-area""></div> 
                </div>","null","","","","","","","","","","","",""
"","","","","","html-button-response","148","1738617","0.0-148.0","94F584C90D2A48CDA5DDD462E19FDE6B","019d6b21-26f8-78ab-a483-3e3eabf6994c","019d6ae6-5d89-74c6-b581-3918d1816346","","793","
                <div class=""stimulus-container"">
                    <img src=""semantic_sequence_notimeline/professions_semantic/professions_semantic_3.png"" class=""exp-image"">
                    <div class=""question-area"">
                        <p style=""font-size: 20px; font-weight: bold; margin: 0;"">Is there a person in this image?</p>
                    </div>
                </div>","0","main_experiment_trial","3","professions_semantic","semantic_sequence_notimeline","chronological","","","","","","",""
"","","","","","html-keyboard-response","149","1743633","0.0-149.0","94F584C90D2A48CDA5DDD462E19FDE6B","019d6b21-26f8-78ab-a483-3e3eabf6994c","019d6ae6-5d89-74c6-b581-3918d1816346","","null","
                <div class=""stimulus-container"">
                    <img src=""semantic_sequence_notimeline/professions_semantic/professions_semantic_4.png"" class=""exp-image"">
                    <div class=""question-area""></div> 
                </div>","null","","","","","","","","","","","",""
"","","","","","html-button-response","150","1744915","0.0-150.0","94F584C90D2A48CDA5DDD462E19FDE6B","019d6b21-26f8-78ab-a483-3e3eabf6994c","019d6ae6-5d89-74c6-b581-3918d1816346","","1282","
                <div class=""stimulus-container"">
                    <img src=""semantic_sequence_notimeline/professions_semantic/professions_semantic_4.png"" class=""exp-image"">
                    <div class=""question-area"">
                        <p style=""font-size: 20px; font-weight: bold; margin: 0;"">Is there a person in this image?</p>
                    </div>
                </div>","0","main_experiment_trial","4","professions_semantic","semantic_sequence_notimeline","chronological","","","","","","",""
"","","","","","html-keyboard-response","151","1749917","0.0-151.0","94F584C90D2A48CDA5DDD462E19FDE6B","019d6b21-26f8-78ab-a483-3e3eabf6994c","019d6ae6-5d89-74c6-b581-3918d1816346","","null","
                <div class=""stimulus-container"">
                    <img src=""semantic_sequence_notimeline/professions_semantic/professions_semantic_5.png"" class=""exp-image"">
                    <div class=""question-area""></div> 
                </div>","null","","","","","","","","","","","",""
"","","","","","html-button-response","152","1750776","0.0-152.0","94F584C90D2A48CDA5DDD462E19FDE6B","019d6b21-26f8-78ab-a483-3e3eabf6994c","019d6ae6-5d89-74c6-b581-3918d1816346","","858","
                <div class=""stimulus-container"">
                    <img src=""semantic_sequence_notimeline/professions_semantic/professions_semantic_5.png"" class=""exp-image"">
                    <div class=""question-area"">
                        <p style=""font-size: 20px; font-weight: bold; margin: 0;"">Is there a person in this image?</p>
                    </div>
                </div>","0","main_experiment_trial","5","professions_semantic","semantic_sequence_notimeline","chronological","","","","","","",""
"","","","","","html-keyboard-response","153","1755789","0.0-153.0","94F584C90D2A48CDA5DDD462E19FDE6B","019d6b21-26f8-78ab-a483-3e3eabf6994c","019d6ae6-5d89-74c6-b581-3918d1816346","","null","
                <div class=""stimulus-container"">
                    <img src=""semantic_sequence_notimeline/professions_semantic/professions_semantic_6.png"" class=""exp-image"">
                    <div class=""question-area""></div> 
                </div>","null","","","","","","","","","","","",""
"","","","","","html-button-response","154","1756935","0.0-154.0","94F584C90D2A48CDA5DDD462E19FDE6B","019d6b21-26f8-78ab-a483-3e3eabf6994c","019d6ae6-5d89-74c6-b581-3918d1816346","","1144","
                <div class=""stimulus-container"">
                    <img src=""semantic_sequence_notimeline/professions_semantic/professions_semantic_6.png"" class=""exp-image"">
                    <div class=""question-area"">
                        <p style=""font-size: 20px; font-weight: bold; margin: 0;"">Is there a person in this image?</p>
                    </div>
                </div>","0","main_experiment_trial","6","professions_semantic","semantic_sequence_notimeline","chronological","","","","","","",""
"","","","","","html-keyboard-response","155","1761940","0.0-155.0","94F584C90D2A48CDA5DDD462E19FDE6B","019d6b21-26f8-78ab-a483-3e3eabf6994c","019d6ae6-5d89-74c6-b581-3918d1816346","","null","
                <div class=""stimulus-container"">
                    <img src=""semantic_sequence_notimeline/professions_semantic/professions_semantic_7.png"" class=""exp-image"">
                    <div class=""question-area""></div> 
                </div>","null","","","","","","","","","","","",""
"","","","","","html-button-response","156","1763611","0.0-156.0","94F584C90D2A48CDA5DDD462E19FDE6B","019d6b21-26f8-78ab-a483-3e3eabf6994c","019d6ae6-5d89-74c6-b581-3918d1816346","","1670","
                <div class=""stimulus-container"">
                    <img src=""semantic_sequence_notimeline/professions_semantic/professions_semantic_7.png"" class=""exp-image"">
                    <div class=""question-area"">
                        <p style=""font-size: 20px; font-weight: bold; margin: 0;"">Is there a person in this image?</p>
                    </div>
                </div>","0","main_experiment_trial","7","professions_semantic","semantic_sequence_notimeline","chronological","","","","","","",""
"","","","","","html-keyboard-response","157","1768621","0.0-157.0","94F584C90D2A48CDA5DDD462E19FDE6B","019d6b21-26f8-78ab-a483-3e3eabf6994c","019d6ae6-5d89-74c6-b581-3918d1816346","","null","
                <div class=""stimulus-container"">
                    <img src=""semantic_sequence_notimeline/professions_semantic/professions_semantic_8.png"" class=""exp-image"">
                    <div class=""question-area""></div> 
                </div>","null","","","","","","","","","","","",""
"","","","","","html-button-response","158","1769215","0.0-158.0","94F584C90D2A48CDA5DDD462E19FDE6B","019d6b21-26f8-78ab-a483-3e3eabf6994c","019d6ae6-5d89-74c6-b581-3918d1816346","","594","
                <div class=""stimulus-container"">
                    <img src=""semantic_sequence_notimeline/professions_semantic/professions_semantic_8.png"" class=""exp-image"">
                    <div class=""question-area"">
                        <p style=""font-size: 20px; font-weight: bold; margin: 0;"">Is there a person in this image?</p>
                    </div>
                </div>","0","main_experiment_trial","8","professions_semantic","semantic_sequence_notimeline","chronological","","","","","","",""
"","","","","","html-keyboard-response","159","1774223","0.0-159.0","94F584C90D2A48CDA5DDD462E19FDE6B","019d6b21-26f8-78ab-a483-3e3eabf6994c","019d6ae6-5d89-74c6-b581-3918d1816346","","null","
                <div class=""stimulus-container"">
                    <img src=""semantic_sequence_notimeline/professions_semantic/professions_semantic_9.png"" class=""exp-image"">
                    <div class=""question-area""></div> 
                </div>","null","","","","","","","","","","","",""
"","","","","","html-button-response","160","1774811","0.0-160.0","94F584C90D2A48CDA5DDD462E19FDE6B","019d6b21-26f8-78ab-a483-3e3eabf6994c","019d6ae6-5d89-74c6-b581-3918d1816346","","587","
                <div class=""stimulus-container"">
                    <img src=""semantic_sequence_notimeline/professions_semantic/professions_semantic_9.png"" class=""exp-image"">
                    <div class=""question-area"">
                        <p style=""font-size: 20px; font-weight: bold; margin: 0;"">Is there a person in this image?</p>
                    </div>
                </div>","0","main_experiment_trial","9","professions_semantic","semantic_sequence_notimeline","chronological","","","","","","",""
"","","","","","html-keyboard-response","161","1779812","0.0-161.0","94F584C90D2A48CDA5DDD462E19FDE6B","019d6b21-26f8-78ab-a483-3e3eabf6994c","019d6ae6-5d89-74c6-b581-3918d1816346","","null","
                <div class=""stimulus-container"">
                    <img src=""semantic_sequence_notimeline/professions_semantic/professions_semantic_ten.png"" class=""exp-image"">
                    <div class=""question-area""></div> 
                </div>","null","","","","","","","","","","","",""
"","","","","","html-button-response","162","1781111","0.0-162.0","94F584C90D2A48CDA5DDD462E19FDE6B","019d6b21-26f8-78ab-a483-3e3eabf6994c","019d6ae6-5d89-74c6-b581-3918d1816346","","1297","
                <div class=""stimulus-container"">
                    <img src=""semantic_sequence_notimeline/professions_semantic/professions_semantic_ten.png"" class=""exp-image"">
                    <div class=""question-area"">
                        <p style=""font-size: 20px; font-weight: bold; margin: 0;"">Is there a person in this image?</p>
                    </div>
                </div>","0","main_experiment_trial","ten","professions_semantic","semantic_sequence_notimeline","chronological","","","","","","",""
"","","","","","html-keyboard-response","163","1786112","0.0-163.0","94F584C90D2A48CDA5DDD462E19FDE6B","019d6b21-26f8-78ab-a483-3e3eabf6994c","019d6ae6-5d89-74c6-b581-3918d1816346","","null","<div style=""background-color: white; width: 100vw; height: 100vh;""></div>","null","","","","","","","","","","","",""
"","","","","","html-keyboard-response","164","1791114","0.0-164.0","94F584C90D2A48CDA5DDD462E19FDE6B","019d6b21-26f8-78ab-a483-3e3eabf6994c","019d6ae6-5d89-74c6-b581-3918d1816346","","null","
                <div class=""stimulus-container"">
                    <img src=""images/causal_sequence/museum_causal/museum_causal_1.png"" class=""exp-image"">
                    <div class=""question-area""></div> 
                </div>","null","","","","","","","","","","","",""
"","","","","","html-button-response","165","1792181","0.0-165.0","94F584C90D2A48CDA5DDD462E19FDE6B","019d6b21-26f8-78ab-a483-3e3eabf6994c","019d6ae6-5d89-74c6-b581-3918d1816346","","1066","
                <div class=""stimulus-container"">
                    <img src=""images/causal_sequence/museum_causal/museum_causal_1.png"" class=""exp-image"">
                    <div class=""question-area"">
                        <p style=""font-size: 20px; font-weight: bold; margin: 0;"">Is there a person in this image?</p>
                    </div>
                </div>","0","main_experiment_trial","1","museum_causal","causal_sequence","chronological","","","","","","",""
"","","","","","html-keyboard-response","166","1797193","0.0-166.0","94F584C90D2A48CDA5DDD462E19FDE6B","019d6b21-26f8-78ab-a483-3e3eabf6994c","019d6ae6-5d89-74c6-b581-3918d1816346","","null","
                <div class=""stimulus-container"">
                    <img src=""images/causal_sequence/museum_causal/museum_causal_2.png"" class=""exp-image"">
                    <div class=""question-area""></div> 
                </div>","null","","","","","","","","","","","",""
"","","","","","html-button-response","167","1799415","0.0-167.0","94F584C90D2A48CDA5DDD462E19FDE6B","019d6b21-26f8-78ab-a483-3e3eabf6994c","019d6ae6-5d89-74c6-b581-3918d1816346","","2221","
                <div class=""stimulus-container"">
                    <img src=""images/causal_sequence/museum_causal/museum_causal_2.png"" class=""exp-image"">
                    <div class=""question-area"">
                        <p style=""font-size: 20px; font-weight: bold; margin: 0;"">Is there a person in this image?</p>
                    </div>
                </div>","0","main_experiment_trial","2","museum_causal","causal_sequence","chronological","","","","","","",""
"","","","","","html-keyboard-response","168","1804417","0.0-168.0","94F584C90D2A48CDA5DDD462E19FDE6B","019d6b21-26f8-78ab-a483-3e3eabf6994c","019d6ae6-5d89-74c6-b581-3918d1816346","","null","
                <div class=""stimulus-container"">
                    <img src=""images/causal_sequence/museum_causal/museum_causal_3.png"" class=""exp-image"">
                    <div class=""question-area""></div> 
                </div>","null","","","","","","","","","","","",""
"","","","","","html-button-response","169","1807433","0.0-169.0","94F584C90D2A48CDA5DDD462E19FDE6B","019d6b21-26f8-78ab-a483-3e3eabf6994c","019d6ae6-5d89-74c6-b581-3918d1816346","","null","
                <div class=""stimulus-container"">
                    <img src=""images/causal_sequence/museum_causal/museum_causal_3.png"" class=""exp-image"">
                    <div class=""question-area"">
                        <p style=""font-size: 20px; font-weight: bold; margin: 0;"">Is there a person in this image?</p>
                    </div>
                </div>","null","main_experiment_trial","3","museum_causal","causal_sequence","chronological","","","","","","",""
"","","","","","html-keyboard-response","170","1812443","0.0-170.0","94F584C90D2A48CDA5DDD462E19FDE6B","019d6b21-26f8-78ab-a483-3e3eabf6994c","019d6ae6-5d89-74c6-b581-3918d1816346","","null","
                <div class=""stimulus-container"">
                    <img src=""images/causal_sequence/museum_causal/museum_causal_4.png"" class=""exp-image"">
                    <div class=""question-area""></div> 
                </div>","null","","","","","","","","","","","",""
"","","","","","html-button-response","171","1815448","0.0-171.0","94F584C90D2A48CDA5DDD462E19FDE6B","019d6b21-26f8-78ab-a483-3e3eabf6994c","019d6ae6-5d89-74c6-b581-3918d1816346","","null","
                <div class=""stimulus-container"">
                    <img src=""images/causal_sequence/museum_causal/museum_causal_4.png"" class=""exp-image"">
                    <div class=""question-area"">
                        <p style=""font-size: 20px; font-weight: bold; margin: 0;"">Is there a person in this image?</p>
                    </div>
                </div>","null","main_experiment_trial","4","museum_causal","causal_sequence","chronological","","","","","","",""
"","","","","","html-keyboard-response","172","1820463","0.0-172.0","94F584C90D2A48CDA5DDD462E19FDE6B","019d6b21-26f8-78ab-a483-3e3eabf6994c","019d6ae6-5d89-74c6-b581-3918d1816346","","null","
                <div class=""stimulus-container"">
                    <img src=""images/causal_sequence/museum_causal/museum_causal_5.png"" class=""exp-image"">
                    <div class=""question-area""></div> 
                </div>","null","","","","","","","","","","","",""
"","","","","","html-button-response","173","1822932","0.0-173.0","94F584C90D2A48CDA5DDD462E19FDE6B","019d6b21-26f8-78ab-a483-3e3eabf6994c","019d6ae6-5d89-74c6-b581-3918d1816346","","2467","
                <div class=""stimulus-container"">
                    <img src=""images/causal_sequence/museum_causal/museum_causal_5.png"" class=""exp-image"">
                    <div class=""question-area"">
                        <p style=""font-size: 20px; font-weight: bold; margin: 0;"">Is there a person in this image?</p>
                    </div>
                </div>","0","main_experiment_trial","5","museum_causal","causal_sequence","chronological","","","","","","",""
"","","","","","html-keyboard-response","174","1827938","0.0-174.0","94F584C90D2A48CDA5DDD462E19FDE6B","019d6b21-26f8-78ab-a483-3e3eabf6994c","019d6ae6-5d89-74c6-b581-3918d1816346","","null","
                <div class=""stimulus-container"">
                    <img src=""images/causal_sequence/museum_causal/museum_causal_6.png"" class=""exp-image"">
                    <div class=""question-area""></div> 
                </div>","null","","","","","","","","","","","",""
"","","","","","html-button-response","175","1830952","0.0-175.0","94F584C90D2A48CDA5DDD462E19FDE6B","019d6b21-26f8-78ab-a483-3e3eabf6994c","019d6ae6-5d89-74c6-b581-3918d1816346","","null","
                <div class=""stimulus-container"">
                    <img src=""images/causal_sequence/museum_causal/museum_causal_6.png"" class=""exp-image"">
                    <div class=""question-area"">
                        <p style=""font-size: 20px; font-weight: bold; margin: 0;"">Is there a person in this image?</p>
                    </div>
                </div>","null","main_experiment_trial","6","museum_causal","causal_sequence","chronological","","","","","","",""
"","","","","","html-keyboard-response","176","1835954","0.0-176.0","94F584C90D2A48CDA5DDD462E19FDE6B","019d6b21-26f8-78ab-a483-3e3eabf6994c","019d6ae6-5d89-74c6-b581-3918d1816346","","null","
                <div class=""stimulus-container"">
                    <img src=""images/causal_sequence/museum_causal/museum_causal_7.png"" class=""exp-image"">
                    <div class=""question-area""></div> 
                </div>","null","","","","","","","","","","","",""
"","","","","","html-button-response","177","1837825","0.0-177.0","94F584C90D2A48CDA5DDD462E19FDE6B","019d6b21-26f8-78ab-a483-3e3eabf6994c","019d6ae6-5d89-74c6-b581-3918d1816346","","1870","
                <div class=""stimulus-container"">
                    <img src=""images/causal_sequence/museum_causal/museum_causal_7.png"" class=""exp-image"">
                    <div class=""question-area"">
                        <p style=""font-size: 20px; font-weight: bold; margin: 0;"">Is there a person in this image?</p>
