"success","timeout","failed_images","failed_audio","failed_video","trial_type","trial_index","time_elapsed","internal_node_id","subject_id","study_id","session_id","view_history","rt","stimulus","response","task","image_index","folder","sequence_type","valuable_image_index","reward_type","correct_choice","chosen_image_index","target_X"
"true","false","[]","[]","[]","preload","0","1974","0.0-0.0","C30687A345194E70A003646FEB3F781B","019cf864-505f-76d5-8bf7-2ca0488d1386","019cf855-66fc-7d76-a612-8313d2c5c123","","","","","","","","","","","","",""
"","","","","","instructions","1","3994","0.0-1.0","C30687A345194E70A003646FEB3F781B","019cf864-505f-76d5-8bf7-2ca0488d1386","019cf855-66fc-7d76-a612-8313d2c5c123","[{""page_index"":0,""viewing_time"":2019}]","2019","","","","","","","","","","",""
"","","","","","instructions","2","6195","0.0-2.0","C30687A345194E70A003646FEB3F781B","019cf864-505f-76d5-8bf7-2ca0488d1386","019cf855-66fc-7d76-a612-8313d2c5c123","[{""page_index"":0,""viewing_time"":2202}]","2202","","","","","","","","","","",""
"true","","","","","fullscreen","3","28834","0.0-3.0","C30687A345194E70A003646FEB3F781B","019cf864-505f-76d5-8bf7-2ca0488d1386","019cf855-66fc-7d76-a612-8313d2c5c123","","21635","","","","","","","","","","",""
"","","","","","instructions","4","31156","0.0-4.0","C30687A345194E70A003646FEB3F781B","019cf864-505f-76d5-8bf7-2ca0488d1386","019cf855-66fc-7d76-a612-8313d2c5c123","[{""page_index"":0,""viewing_time"":2322}]","2323","","","","","","","","","","",""
"","","","","","instructions","5","34742","0.0-5.0","C30687A345194E70A003646FEB3F781B","019cf864-505f-76d5-8bf7-2ca0488d1386","019cf855-66fc-7d76-a612-8313d2c5c123","[{""page_index"":0,""viewing_time"":3585}]","3585","","","","","","","","","","",""
"","","","","","html-keyboard-response","6","38755","0.0-6.0","C30687A345194E70A003646FEB3F781B","019cf864-505f-76d5-8bf7-2ca0488d1386","019cf855-66fc-7d76-a612-8313d2c5c123","","null","
                <div class=""stimulus-container"">
                    <img src=""images/instructions/movie_1.png"" class=""exp-image"">
                    <div class=""question-area""></div> 
                </div>","null","","","","","","","","",""
"","","","","","html-button-response","7","40138","0.0-7.0","C30687A345194E70A003646FEB3F781B","019cf864-505f-76d5-8bf7-2ca0488d1386","019cf855-66fc-7d76-a612-8313d2c5c123","","1381","
                <div class=""stimulus-container"">
                    <img src=""images/instructions/movie_1.png"" class=""exp-image"">
                    <div class=""question-area"">
                        <p style=""font-size: 20px; font-weight: bold; margin: 0;"">Was there a person in this image?</p>
                    </div>
                </div>","0","example_question","1","","","","","","",""
"","","","","","html-keyboard-response","8","44141","0.0-8.0","C30687A345194E70A003646FEB3F781B","019cf864-505f-76d5-8bf7-2ca0488d1386","019cf855-66fc-7d76-a612-8313d2c5c123","","null","
                <div class=""stimulus-container"">
                    <img src=""images/instructions/movie_2.png"" class=""exp-image"">
                    <div class=""question-area""></div> 
                </div>","null","","","","","","","","",""
"","","","","","html-button-response","9","44880","0.0-9.0","C30687A345194E70A003646FEB3F781B","019cf864-505f-76d5-8bf7-2ca0488d1386","019cf855-66fc-7d76-a612-8313d2c5c123","","738","
                <div class=""stimulus-container"">
                    <img src=""images/instructions/movie_2.png"" class=""exp-image"">
                    <div class=""question-area"">
                        <p style=""font-size: 20px; font-weight: bold; margin: 0;"">Was there a person in this image?</p>
                    </div>
                </div>","0","example_question","2","","","","","","",""
"","","","","","html-keyboard-response","10","48892","0.0-10.0","C30687A345194E70A003646FEB3F781B","019cf864-505f-76d5-8bf7-2ca0488d1386","019cf855-66fc-7d76-a612-8313d2c5c123","","null","
                <div class=""stimulus-container"">
                    <img src=""images/instructions/movie_3.png"" class=""exp-image"">
                    <div class=""question-area""></div> 
                </div>","null","","","","","","","","",""
"","","","","","html-button-response","11","49310","0.0-11.0","C30687A345194E70A003646FEB3F781B","019cf864-505f-76d5-8bf7-2ca0488d1386","019cf855-66fc-7d76-a612-8313d2c5c123","","418","
                <div class=""stimulus-container"">
                    <img src=""images/instructions/movie_3.png"" class=""exp-image"">
                    <div class=""question-area"">
                        <p style=""font-size: 20px; font-weight: bold; margin: 0;"">Was there a person in this image?</p>
                    </div>
                </div>","0","example_question","3","","","","","","",""
"","","","","","html-keyboard-response","12","53316","0.0-12.0","C30687A345194E70A003646FEB3F781B","019cf864-505f-76d5-8bf7-2ca0488d1386","019cf855-66fc-7d76-a612-8313d2c5c123","","null","
                <div class=""stimulus-container"">
                    <img src=""images/instructions/movie_4.png"" class=""exp-image"">
                    <div class=""question-area""></div> 
                </div>","null","","","","","","","","",""
"","","","","","html-button-response","13","53690","0.0-13.0","C30687A345194E70A003646FEB3F781B","019cf864-505f-76d5-8bf7-2ca0488d1386","019cf855-66fc-7d76-a612-8313d2c5c123","","373","
                <div class=""stimulus-container"">
                    <img src=""images/instructions/movie_4.png"" class=""exp-image"">
                    <div class=""question-area"">
                        <p style=""font-size: 20px; font-weight: bold; margin: 0;"">Was there a person in this image?</p>
                    </div>
                </div>","0","example_question","4","","","","","","",""
"","","","","","instructions","14","54936","0.0-14.0","C30687A345194E70A003646FEB3F781B","019cf864-505f-76d5-8bf7-2ca0488d1386","019cf855-66fc-7d76-a612-8313d2c5c123","[{""page_index"":0,""viewing_time"":1246}]","1246","","","","","","","","","","",""
"","","","","","instructions","15","57510","0.0-15.0","C30687A345194E70A003646FEB3F781B","019cf864-505f-76d5-8bf7-2ca0488d1386","019cf855-66fc-7d76-a612-8313d2c5c123","[{""page_index"":0,""viewing_time"":2574}]","2574","","","","","","","","","","",""
"","","","","","html-keyboard-response","16","58513","0.0-16.0","C30687A345194E70A003646FEB3F781B","019cf864-505f-76d5-8bf7-2ca0488d1386","019cf855-66fc-7d76-a612-8313d2c5c123","","null","<div style=""background-color: white; width: 100vw; height: 100vh;""></div>","null","","","","","","","","",""
"","","","","","html-keyboard-response","17","63515","0.0-17.0","C30687A345194E70A003646FEB3F781B","019cf864-505f-76d5-8bf7-2ca0488d1386","019cf855-66fc-7d76-a612-8313d2c5c123","","null","
                <div class=""stimulus-container"">
                    <img src=""images/schematic_sequence/hotel_scheme/hotel_scheme_1.png"" class=""exp-image"">
                    <div class=""question-area""></div> 
                </div>","null","","","","","","","","",""
"","","","","","html-button-response","18","64192","0.0-18.0","C30687A345194E70A003646FEB3F781B","019cf864-505f-76d5-8bf7-2ca0488d1386","019cf855-66fc-7d76-a612-8313d2c5c123","","677","
                <div class=""stimulus-container"">
                    <img src=""images/schematic_sequence/hotel_scheme/hotel_scheme_1.png"" class=""exp-image"">
                    <div class=""question-area"">
                        <p style=""font-size: 20px; font-weight: bold; margin: 0;"">Is there a person in this image?</p>
                    </div>
                </div>","1","main_experiment_trial","1","hotel_scheme","schematic_sequence","","","","",""
"","","","","","html-keyboard-response","19","69195","0.0-19.0","C30687A345194E70A003646FEB3F781B","019cf864-505f-76d5-8bf7-2ca0488d1386","019cf855-66fc-7d76-a612-8313d2c5c123","","null","
                <div class=""stimulus-container"">
                    <img src=""images/schematic_sequence/hotel_scheme/hotel_scheme_2.png"" class=""exp-image"">
                    <div class=""question-area""></div> 
                </div>","null","","","","","","","","",""
"","","","","","html-button-response","20","69586","0.0-20.0","C30687A345194E70A003646FEB3F781B","019cf864-505f-76d5-8bf7-2ca0488d1386","019cf855-66fc-7d76-a612-8313d2c5c123","","391","
                <div class=""stimulus-container"">
                    <img src=""images/schematic_sequence/hotel_scheme/hotel_scheme_2.png"" class=""exp-image"">
                    <div class=""question-area"">
                        <p style=""font-size: 20px; font-weight: bold; margin: 0;"">Is there a person in this image?</p>
                    </div>
                </div>","0","main_experiment_trial","2","hotel_scheme","schematic_sequence","","","","",""
"","","","","","html-keyboard-response","21","74592","0.0-21.0","C30687A345194E70A003646FEB3F781B","019cf864-505f-76d5-8bf7-2ca0488d1386","019cf855-66fc-7d76-a612-8313d2c5c123","","null","
                <div class=""stimulus-container"">
                    <img src=""images/schematic_sequence/hotel_scheme/hotel_scheme_3.png"" class=""exp-image"">
                    <div class=""question-area""></div> 
                </div>","null","","","","","","","","",""
"","","","","","html-button-response","22","74956","0.0-22.0","C30687A345194E70A003646FEB3F781B","019cf864-505f-76d5-8bf7-2ca0488d1386","019cf855-66fc-7d76-a612-8313d2c5c123","","363","
                <div class=""stimulus-container"">
                    <img src=""images/schematic_sequence/hotel_scheme/hotel_scheme_3.png"" class=""exp-image"">
                    <div class=""question-area"">
                        <p style=""font-size: 20px; font-weight: bold; margin: 0;"">Is there a person in this image?</p>
                    </div>
                </div>","0","main_experiment_trial","3","hotel_scheme","schematic_sequence","","","","",""
"","","","","","html-keyboard-response","23","79967","0.0-23.0","C30687A345194E70A003646FEB3F781B","019cf864-505f-76d5-8bf7-2ca0488d1386","019cf855-66fc-7d76-a612-8313d2c5c123","","null","
                <div class=""stimulus-container"">
                    <img src=""images/schematic_sequence/hotel_scheme/hotel_scheme_4.png"" class=""exp-image"">
                    <div class=""question-area""></div> 
                </div>","null","","","","","","","","",""
"","","","","","html-button-response","24","80620","0.0-24.0","C30687A345194E70A003646FEB3F781B","019cf864-505f-76d5-8bf7-2ca0488d1386","019cf855-66fc-7d76-a612-8313d2c5c123","","652","
                <div class=""stimulus-container"">
                    <img src=""images/schematic_sequence/hotel_scheme/hotel_scheme_4.png"" class=""exp-image"">
                    <div class=""question-area"">
                        <p style=""font-size: 20px; font-weight: bold; margin: 0;"">Is there a person in this image?</p>
                    </div>
                </div>","1","main_experiment_trial","4","hotel_scheme","schematic_sequence","","","","",""
"","","","","","html-keyboard-response","25","85630","0.0-25.0","C30687A345194E70A003646FEB3F781B","019cf864-505f-76d5-8bf7-2ca0488d1386","019cf855-66fc-7d76-a612-8313d2c5c123","","null","
                <div class=""stimulus-container"">
                    <img src=""images/schematic_sequence/hotel_scheme/hotel_scheme_5.png"" class=""exp-image"">
                    <div class=""question-area""></div> 
                </div>","null","","","","","","","","",""
"","","","","","html-button-response","26","87748","0.0-26.0","C30687A345194E70A003646FEB3F781B","019cf864-505f-76d5-8bf7-2ca0488d1386","019cf855-66fc-7d76-a612-8313d2c5c123","","2118","
                <div class=""stimulus-container"">
                    <img src=""images/schematic_sequence/hotel_scheme/hotel_scheme_5.png"" class=""exp-image"">
                    <div class=""question-area"">
                        <p style=""font-size: 20px; font-weight: bold; margin: 0;"">Is there a person in this image?</p>
                    </div>
                </div>","0","main_experiment_trial","5","hotel_scheme","schematic_sequence","","","","",""
"","","","","","html-keyboard-response","27","92753","0.0-27.0","C30687A345194E70A003646FEB3F781B","019cf864-505f-76d5-8bf7-2ca0488d1386","019cf855-66fc-7d76-a612-8313d2c5c123","","null","
                <div class=""stimulus-container"">
                    <img src=""images/schematic_sequence/hotel_scheme/hotel_scheme_6.png"" class=""exp-image"">
                    <div class=""question-area""></div> 
                </div>","null","","","","","","","","",""
"","","","","","html-button-response","28","95262","0.0-28.0","C30687A345194E70A003646FEB3F781B","019cf864-505f-76d5-8bf7-2ca0488d1386","019cf855-66fc-7d76-a612-8313d2c5c123","","2509","
                <div class=""stimulus-container"">
                    <img src=""images/schematic_sequence/hotel_scheme/hotel_scheme_6.png"" class=""exp-image"">
                    <div class=""question-area"">
                        <p style=""font-size: 20px; font-weight: bold; margin: 0;"">Is there a person in this image?</p>
                    </div>
                </div>","0","main_experiment_trial","6","hotel_scheme","schematic_sequence","","","","",""
"","","","","","html-keyboard-response","29","100265","0.0-29.0","C30687A345194E70A003646FEB3F781B","019cf864-505f-76d5-8bf7-2ca0488d1386","019cf855-66fc-7d76-a612-8313d2c5c123","","null","
                <div class=""stimulus-container"">
                    <img src=""images/schematic_sequence/hotel_scheme/hotel_scheme_7.png"" class=""exp-image"">
                    <div class=""question-area""></div> 
                </div>","null","","","","","","","","",""
"","","","","","html-button-response","30","101412","0.0-30.0","C30687A345194E70A003646FEB3F781B","019cf864-505f-76d5-8bf7-2ca0488d1386","019cf855-66fc-7d76-a612-8313d2c5c123","","1146","
                <div class=""stimulus-container"">
                    <img src=""images/schematic_sequence/hotel_scheme/hotel_scheme_7.png"" class=""exp-image"">
                    <div class=""question-area"">
                        <p style=""font-size: 20px; font-weight: bold; margin: 0;"">Is there a person in this image?</p>
                    </div>
                </div>","0","main_experiment_trial","7","hotel_scheme","schematic_sequence","","","","",""
"","","","","","html-keyboard-response","31","106421","0.0-31.0","C30687A345194E70A003646FEB3F781B","019cf864-505f-76d5-8bf7-2ca0488d1386","019cf855-66fc-7d76-a612-8313d2c5c123","","null","
                <div class=""stimulus-container"">
                    <img src=""images/schematic_sequence/hotel_scheme/hotel_scheme_8.png"" class=""exp-image"">
                    <div class=""question-area""></div> 
                </div>","null","","","","","","","","",""
"","","","","","html-button-response","32","107374","0.0-32.0","C30687A345194E70A003646FEB3F781B","019cf864-505f-76d5-8bf7-2ca0488d1386","019cf855-66fc-7d76-a612-8313d2c5c123","","952","
                <div class=""stimulus-container"">
                    <img src=""images/schematic_sequence/hotel_scheme/hotel_scheme_8.png"" class=""exp-image"">
                    <div class=""question-area"">
                        <p style=""font-size: 20px; font-weight: bold; margin: 0;"">Is there a person in this image?</p>
                    </div>
                </div>","0","main_experiment_trial","8","hotel_scheme","schematic_sequence","","","","",""
"","","","","","html-keyboard-response","33","112379","0.0-33.0","C30687A345194E70A003646FEB3F781B","019cf864-505f-76d5-8bf7-2ca0488d1386","019cf855-66fc-7d76-a612-8313d2c5c123","","null","
                <div class=""stimulus-container"">
                    <img src=""images/schematic_sequence/hotel_scheme/hotel_scheme_9.png"" class=""exp-image"">
                    <div class=""question-area""></div> 
                </div>","null","","","","","","","","",""
"","","","","","html-button-response","34","114844","0.0-34.0","C30687A345194E70A003646FEB3F781B","019cf864-505f-76d5-8bf7-2ca0488d1386","019cf855-66fc-7d76-a612-8313d2c5c123","","2464","
                <div class=""stimulus-container"">
                    <img src=""images/schematic_sequence/hotel_scheme/hotel_scheme_9.png"" class=""exp-image"">
                    <div class=""question-area"">
                        <p style=""font-size: 20px; font-weight: bold; margin: 0;"">Is there a person in this image?</p>
                    </div>
                </div>","0","main_experiment_trial","9","hotel_scheme","schematic_sequence","","","","",""
"","","","","","html-keyboard-response","35","119849","0.0-35.0","C30687A345194E70A003646FEB3F781B","019cf864-505f-76d5-8bf7-2ca0488d1386","019cf855-66fc-7d76-a612-8313d2c5c123","","null","
                <div class=""stimulus-container"">
                    <img src=""images/schematic_sequence/hotel_scheme/hotel_scheme_ten.png"" class=""exp-image"">
                    <div class=""question-area""></div> 
                </div>","null","","","","","","","","",""
"","","","","","html-button-response","36","120895","0.0-36.0","C30687A345194E70A003646FEB3F781B","019cf864-505f-76d5-8bf7-2ca0488d1386","019cf855-66fc-7d76-a612-8313d2c5c123","","1045","
                <div class=""stimulus-container"">
                    <img src=""images/schematic_sequence/hotel_scheme/hotel_scheme_ten.png"" class=""exp-image"">
                    <div class=""question-area"">
                        <p style=""font-size: 20px; font-weight: bold; margin: 0;"">Is there a person in this image?</p>
                    </div>
                </div>","0","main_experiment_trial","ten","hotel_scheme","schematic_sequence","","","","",""
"","","","","","html-keyboard-response","37","121902","0.0-37.0","C30687A345194E70A003646FEB3F781B","019cf864-505f-76d5-8bf7-2ca0488d1386","019cf855-66fc-7d76-a612-8313d2c5c123","","null","<div style=""background-color: white; width: 100vw; height: 100vh;""></div>","null","","","","","","","","",""
"","","","","","html-keyboard-response","38","126914","0.0-38.0","C30687A345194E70A003646FEB3F781B","019cf864-505f-76d5-8bf7-2ca0488d1386","019cf855-66fc-7d76-a612-8313d2c5c123","","null","
                <div class=""stimulus-container"">
                    <img src=""images/schematic_sequence/interview_scheme/interview_scheme_1.png"" class=""exp-image"">
                    <div class=""question-area""></div> 
                </div>","null","","","","","","","","",""
"","","","","","html-button-response","39","129917","0.0-39.0","C30687A345194E70A003646FEB3F781B","019cf864-505f-76d5-8bf7-2ca0488d1386","019cf855-66fc-7d76-a612-8313d2c5c123","","null","
                <div class=""stimulus-container"">
                    <img src=""images/schematic_sequence/interview_scheme/interview_scheme_1.png"" class=""exp-image"">
                    <div class=""question-area"">
                        <p style=""font-size: 20px; font-weight: bold; margin: 0;"">Is there a person in this image?</p>
                    </div>
                </div>","null","main_experiment_trial","1","interview_scheme","schematic_sequence","","","","",""
"","","","","","html-keyboard-response","40","134918","0.0-40.0","C30687A345194E70A003646FEB3F781B","019cf864-505f-76d5-8bf7-2ca0488d1386","019cf855-66fc-7d76-a612-8313d2c5c123","","null","
                <div class=""stimulus-container"">
                    <img src=""images/schematic_sequence/interview_scheme/interview_scheme_2.png"" class=""exp-image"">
                    <div class=""question-area""></div> 
                </div>","null","","","","","","","","",""
"","","","","","html-button-response","41","135456","0.0-41.0","C30687A345194E70A003646FEB3F781B","019cf864-505f-76d5-8bf7-2ca0488d1386","019cf855-66fc-7d76-a612-8313d2c5c123","","538","
                <div class=""stimulus-container"">
                    <img src=""images/schematic_sequence/interview_scheme/interview_scheme_2.png"" class=""exp-image"">
                    <div class=""question-area"">
                        <p style=""font-size: 20px; font-weight: bold; margin: 0;"">Is there a person in this image?</p>
                    </div>
                </div>","0","main_experiment_trial","2","interview_scheme","schematic_sequence","","","","",""
"","","","","","html-keyboard-response","42","140468","0.0-42.0","C30687A345194E70A003646FEB3F781B","019cf864-505f-76d5-8bf7-2ca0488d1386","019cf855-66fc-7d76-a612-8313d2c5c123","","null","
                <div class=""stimulus-container"">
                    <img src=""images/schematic_sequence/interview_scheme/interview_scheme_3.png"" class=""exp-image"">
                    <div class=""question-area""></div> 
                </div>","null","","","","","","","","",""
"","","","","","html-button-response","43","141088","0.0-43.0","C30687A345194E70A003646FEB3F781B","019cf864-505f-76d5-8bf7-2ca0488d1386","019cf855-66fc-7d76-a612-8313d2c5c123","","619","
                <div class=""stimulus-container"">
                    <img src=""images/schematic_sequence/interview_scheme/interview_scheme_3.png"" class=""exp-image"">
                    <div class=""question-area"">
                        <p style=""font-size: 20px; font-weight: bold; margin: 0;"">Is there a person in this image?</p>
                    </div>
                </div>","1","main_experiment_trial","3","interview_scheme","schematic_sequence","","","","",""
"","","","","","html-keyboard-response","44","146101","0.0-44.0","C30687A345194E70A003646FEB3F781B","019cf864-505f-76d5-8bf7-2ca0488d1386","019cf855-66fc-7d76-a612-8313d2c5c123","","null","
                <div class=""stimulus-container"">
                    <img src=""images/schematic_sequence/interview_scheme/interview_scheme_4.png"" class=""exp-image"">
                    <div class=""question-area""></div> 
                </div>","null","","","","","","","","",""
"","","","","","html-button-response","45","146496","0.0-45.0","C30687A345194E70A003646FEB3F781B","019cf864-505f-76d5-8bf7-2ca0488d1386","019cf855-66fc-7d76-a612-8313d2c5c123","","395","
                <div class=""stimulus-container"">
                    <img src=""images/schematic_sequence/interview_scheme/interview_scheme_4.png"" class=""exp-image"">
                    <div class=""question-area"">
                        <p style=""font-size: 20px; font-weight: bold; margin: 0;"">Is there a person in this image?</p>
                    </div>
                </div>","1","main_experiment_trial","4","interview_scheme","schematic_sequence","","","","",""
"","","","","","html-keyboard-response","46","151499","0.0-46.0","C30687A345194E70A003646FEB3F781B","019cf864-505f-76d5-8bf7-2ca0488d1386","019cf855-66fc-7d76-a612-8313d2c5c123","","null","
                <div class=""stimulus-container"">
                    <img src=""images/schematic_sequence/interview_scheme/interview_scheme_5.png"" class=""exp-image"">
                    <div class=""question-area""></div> 
                </div>","null","","","","","","","","",""
"","","","","","html-button-response","47","151866","0.0-47.0","C30687A345194E70A003646FEB3F781B","019cf864-505f-76d5-8bf7-2ca0488d1386","019cf855-66fc-7d76-a612-8313d2c5c123","","367","
                <div class=""stimulus-container"">
                    <img src=""images/schematic_sequence/interview_scheme/interview_scheme_5.png"" class=""exp-image"">
                    <div class=""question-area"">
                        <p style=""font-size: 20px; font-weight: bold; margin: 0;"">Is there a person in this image?</p>
                    </div>
                </div>","0","main_experiment_trial","5","interview_scheme","schematic_sequence","","","","",""
"","","","","","html-keyboard-response","48","156873","0.0-48.0","C30687A345194E70A003646FEB3F781B","019cf864-505f-76d5-8bf7-2ca0488d1386","019cf855-66fc-7d76-a612-8313d2c5c123","","null","
                <div class=""stimulus-container"">
                    <img src=""images/schematic_sequence/interview_scheme/interview_scheme_6.png"" class=""exp-image"">
                    <div class=""question-area""></div> 
                </div>","null","","","","","","","","",""
"","","","","","html-button-response","49","157190","0.0-49.0","C30687A345194E70A003646FEB3F781B","019cf864-505f-76d5-8bf7-2ca0488d1386","019cf855-66fc-7d76-a612-8313d2c5c123","","317","
                <div class=""stimulus-container"">
                    <img src=""images/schematic_sequence/interview_scheme/interview_scheme_6.png"" class=""exp-image"">
                    <div class=""question-area"">
                        <p style=""font-size: 20px; font-weight: bold; margin: 0;"">Is there a person in this image?</p>
                    </div>
                </div>","0","main_experiment_trial","6","interview_scheme","schematic_sequence","","","","",""
"","","","","","html-keyboard-response","50","162204","0.0-50.0","C30687A345194E70A003646FEB3F781B","019cf864-505f-76d5-8bf7-2ca0488d1386","019cf855-66fc-7d76-a612-8313d2c5c123","","null","
                <div class=""stimulus-container"">
                    <img src=""images/schematic_sequence/interview_scheme/interview_scheme_7.png"" class=""exp-image"">
                    <div class=""question-area""></div> 
                </div>","null","","","","","","","","",""
"","","","","","html-button-response","51","162934","0.0-51.0","C30687A345194E70A003646FEB3F781B","019cf864-505f-76d5-8bf7-2ca0488d1386","019cf855-66fc-7d76-a612-8313d2c5c123","","729","
                <div class=""stimulus-container"">
                    <img src=""images/schematic_sequence/interview_scheme/interview_scheme_7.png"" class=""exp-image"">
                    <div class=""question-area"">
                        <p style=""font-size: 20px; font-weight: bold; margin: 0;"">Is there a person in this image?</p>
                    </div>
                </div>","0","main_experiment_trial","7","interview_scheme","schematic_sequence","","","","",""
"","","","","","html-keyboard-response","52","167938","0.0-52.0","C30687A345194E70A003646FEB3F781B","019cf864-505f-76d5-8bf7-2ca0488d1386","019cf855-66fc-7d76-a612-8313d2c5c123","","null","
                <div class=""stimulus-container"">
                    <img src=""images/schematic_sequence/interview_scheme/interview_scheme_8.png"" class=""exp-image"">
                    <div class=""question-area""></div> 
                </div>","null","","","","","","","","",""
"","","","","","html-button-response","53","169460","0.0-53.0","C30687A345194E70A003646FEB3F781B","019cf864-505f-76d5-8bf7-2ca0488d1386","019cf855-66fc-7d76-a612-8313d2c5c123","","1522","
                <div class=""stimulus-container"">
                    <img src=""images/schematic_sequence/interview_scheme/interview_scheme_8.png"" class=""exp-image"">
                    <div class=""question-area"">
                        <p style=""font-size: 20px; font-weight: bold; margin: 0;"">Is there a person in this image?</p>
                    </div>
                </div>","0","main_experiment_trial","8","interview_scheme","schematic_sequence","","","","",""
"","","","","","html-keyboard-response","54","174467","0.0-54.0","C30687A345194E70A003646FEB3F781B","019cf864-505f-76d5-8bf7-2ca0488d1386","019cf855-66fc-7d76-a612-8313d2c5c123","","null","
                <div class=""stimulus-container"">
                    <img src=""images/schematic_sequence/interview_scheme/interview_scheme_9.png"" class=""exp-image"">
                    <div class=""question-area""></div> 
                </div>","null","","","","","","","","",""
"","","","","","html-button-response","55","175150","0.0-55.0","C30687A345194E70A003646FEB3F781B","019cf864-505f-76d5-8bf7-2ca0488d1386","019cf855-66fc-7d76-a612-8313d2c5c123","","682","
                <div class=""stimulus-container"">
                    <img src=""images/schematic_sequence/interview_scheme/interview_scheme_9.png"" class=""exp-image"">
                    <div class=""question-area"">
                        <p style=""font-size: 20px; font-weight: bold; margin: 0;"">Is there a person in this image?</p>
                    </div>
                </div>","0","main_experiment_trial","9","interview_scheme","schematic_sequence","","","","",""
"","","","","","html-keyboard-response","56","180160","0.0-56.0","C30687A345194E70A003646FEB3F781B","019cf864-505f-76d5-8bf7-2ca0488d1386","019cf855-66fc-7d76-a612-8313d2c5c123","","null","
                <div class=""stimulus-container"">
                    <img src=""images/schematic_sequence/interview_scheme/interview_scheme_ten.png"" class=""exp-image"">
                    <div class=""question-area""></div> 
                </div>","null","","","","","","","","",""
"","","","","","html-button-response","57","180734","0.0-57.0","C30687A345194E70A003646FEB3F781B","019cf864-505f-76d5-8bf7-2ca0488d1386","019cf855-66fc-7d76-a612-8313d2c5c123","","574","
                <div class=""stimulus-container"">
                    <img src=""images/schematic_sequence/interview_scheme/interview_scheme_ten.png"" class=""exp-image"">
                    <div class=""question-area"">
                        <p style=""font-size: 20px; font-weight: bold; margin: 0;"">Is there a person in this image?</p>
                    </div>
                </div>","0","main_experiment_trial","ten","interview_scheme","schematic_sequence","","","","",""
"","","","","","html-keyboard-response","58","181746","0.0-58.0","C30687A345194E70A003646FEB3F781B","019cf864-505f-76d5-8bf7-2ca0488d1386","019cf855-66fc-7d76-a612-8313d2c5c123","","null","<div style=""background-color: white; width: 100vw; height: 100vh;""></div>","null","","","","","","","","",""
"","","","","","html-keyboard-response","59","186762","0.0-59.0","C30687A345194E70A003646FEB3F781B","019cf864-505f-76d5-8bf7-2ca0488d1386","019cf855-66fc-7d76-a612-8313d2c5c123","","null","
                <div class=""stimulus-container"">
                    <img src=""images/semantic_sequence/cat_care_semantic/cat_care_semantic_1.png"" class=""exp-image"">
                    <div class=""question-area""></div> 
                </div>","null","","","","","","","","",""
"","","","","","html-button-response","60","187266","0.0-60.0","C30687A345194E70A003646FEB3F781B","019cf864-505f-76d5-8bf7-2ca0488d1386","019cf855-66fc-7d76-a612-8313d2c5c123","","503","
                <div class=""stimulus-container"">
                    <img src=""images/semantic_sequence/cat_care_semantic/cat_care_semantic_1.png"" class=""exp-image"">
                    <div class=""question-area"">
                        <p style=""font-size: 20px; font-weight: bold; margin: 0;"">Is there a person in this image?</p>
                    </div>
                </div>","0","main_experiment_trial","1","cat_care_semantic","semantic_sequence","","","","",""
"","","","","","html-keyboard-response","61","192278","0.0-61.0","C30687A345194E70A003646FEB3F781B","019cf864-505f-76d5-8bf7-2ca0488d1386","019cf855-66fc-7d76-a612-8313d2c5c123","","null","
                <div class=""stimulus-container"">
                    <img src=""images/semantic_sequence/cat_care_semantic/cat_care_semantic_2.png"" class=""exp-image"">
                    <div class=""question-area""></div> 
                </div>","null","","","","","","","","",""
"","","","","","html-button-response","62","193916","0.0-62.0","C30687A345194E70A003646FEB3F781B","019cf864-505f-76d5-8bf7-2ca0488d1386","019cf855-66fc-7d76-a612-8313d2c5c123","","1638","
                <div class=""stimulus-container"">
                    <img src=""images/semantic_sequence/cat_care_semantic/cat_care_semantic_2.png"" class=""exp-image"">
                    <div class=""question-area"">
                        <p style=""font-size: 20px; font-weight: bold; margin: 0;"">Is there a person in this image?</p>
                    </div>
                </div>","0","main_experiment_trial","2","cat_care_semantic","semantic_sequence","","","","",""
"","","","","","html-keyboard-response","63","198924","0.0-63.0","C30687A345194E70A003646FEB3F781B","019cf864-505f-76d5-8bf7-2ca0488d1386","019cf855-66fc-7d76-a612-8313d2c5c123","","null","
                <div class=""stimulus-container"">
                    <img src=""images/semantic_sequence/cat_care_semantic/cat_care_semantic_3.png"" class=""exp-image"">
                    <div class=""question-area""></div> 
                </div>","null","","","","","","","","",""
"","","","","","html-button-response","64","199738","0.0-64.0","C30687A345194E70A003646FEB3F781B","019cf864-505f-76d5-8bf7-2ca0488d1386","019cf855-66fc-7d76-a612-8313d2c5c123","","813","
                <div class=""stimulus-container"">
                    <img src=""images/semantic_sequence/cat_care_semantic/cat_care_semantic_3.png"" class=""exp-image"">
                    <div class=""question-area"">
                        <p style=""font-size: 20px; font-weight: bold; margin: 0;"">Is there a person in this image?</p>
                    </div>
                </div>","0","main_experiment_trial","3","cat_care_semantic","semantic_sequence","","","","",""
"","","","","","html-keyboard-response","65","204749","0.0-65.0","C30687A345194E70A003646FEB3F781B","019cf864-505f-76d5-8bf7-2ca0488d1386","019cf855-66fc-7d76-a612-8313d2c5c123","","null","
                <div class=""stimulus-container"">
                    <img src=""images/semantic_sequence/cat_care_semantic/cat_care_semantic_4.png"" class=""exp-image"">
                    <div class=""question-area""></div> 
                </div>","null","","","","","","","","",""
"","","","","","html-button-response","66","205356","0.0-66.0","C30687A345194E70A003646FEB3F781B","019cf864-505f-76d5-8bf7-2ca0488d1386","019cf855-66fc-7d76-a612-8313d2c5c123","","606","
                <div class=""stimulus-container"">
                    <img src=""images/semantic_sequence/cat_care_semantic/cat_care_semantic_4.png"" class=""exp-image"">
                    <div class=""question-area"">
                        <p style=""font-size: 20px; font-weight: bold; margin: 0;"">Is there a person in this image?</p>
                    </div>
                </div>","0","main_experiment_trial","4","cat_care_semantic","semantic_sequence","","","","",""
"","","","","","html-keyboard-response","67","210358","0.0-67.0","C30687A345194E70A003646FEB3F781B","019cf864-505f-76d5-8bf7-2ca0488d1386","019cf855-66fc-7d76-a612-8313d2c5c123","","null","
                <div class=""stimulus-container"">
                    <img src=""images/semantic_sequence/cat_care_semantic/cat_care_semantic_5.png"" class=""exp-image"">
                    <div class=""question-area""></div> 
                </div>","null","","","","","","","","",""
"","","","","","html-button-response","68","210852","0.0-68.0","C30687A345194E70A003646FEB3F781B","019cf864-505f-76d5-8bf7-2ca0488d1386","019cf855-66fc-7d76-a612-8313d2c5c123","","493","
                <div class=""stimulus-container"">
                    <img src=""images/semantic_sequence/cat_care_semantic/cat_care_semantic_5.png"" class=""exp-image"">
                    <div class=""question-area"">
                        <p style=""font-size: 20px; font-weight: bold; margin: 0;"">Is there a person in this image?</p>
                    </div>
                </div>","0","main_experiment_trial","5","cat_care_semantic","semantic_sequence","","","","",""
"","","","","","html-keyboard-response","69","215865","0.0-69.0","C30687A345194E70A003646FEB3F781B","019cf864-505f-76d5-8bf7-2ca0488d1386","019cf855-66fc-7d76-a612-8313d2c5c123","","null","
                <div class=""stimulus-container"">
                    <img src=""images/semantic_sequence/cat_care_semantic/cat_care_semantic_6.png"" class=""exp-image"">
                    <div class=""question-area""></div> 
                </div>","null","","","","","","","","",""
"","","","","","html-button-response","70","217010","0.0-70.0","C30687A345194E70A003646FEB3F781B","019cf864-505f-76d5-8bf7-2ca0488d1386","019cf855-66fc-7d76-a612-8313d2c5c123","","1144","
                <div class=""stimulus-container"">
                    <img src=""images/semantic_sequence/cat_care_semantic/cat_care_semantic_6.png"" class=""exp-image"">
                    <div class=""question-area"">
                        <p style=""font-size: 20px; font-weight: bold; margin: 0;"">Is there a person in this image?</p>
                    </div>
                </div>","0","main_experiment_trial","6","cat_care_semantic","semantic_sequence","","","","",""
"","","","","","html-keyboard-response","71","222018","0.0-71.0","C30687A345194E70A003646FEB3F781B","019cf864-505f-76d5-8bf7-2ca0488d1386","019cf855-66fc-7d76-a612-8313d2c5c123","","null","
                <div class=""stimulus-container"">
                    <img src=""images/semantic_sequence/cat_care_semantic/cat_care_semantic_7.png"" class=""exp-image"">
                    <div class=""question-area""></div> 
                </div>","null","","","","","","","","",""
"","","","","","html-button-response","72","222674","0.0-72.0","C30687A345194E70A003646FEB3F781B","019cf864-505f-76d5-8bf7-2ca0488d1386","019cf855-66fc-7d76-a612-8313d2c5c123","","656","
                <div class=""stimulus-container"">
                    <img src=""images/semantic_sequence/cat_care_semantic/cat_care_semantic_7.png"" class=""exp-image"">
                    <div class=""question-area"">
                        <p style=""font-size: 20px; font-weight: bold; margin: 0;"">Is there a person in this image?</p>
                    </div>
                </div>","0","main_experiment_trial","7","cat_care_semantic","semantic_sequence","","","","",""
"","","","","","html-keyboard-response","73","227676","0.0-73.0","C30687A345194E70A003646FEB3F781B","019cf864-505f-76d5-8bf7-2ca0488d1386","019cf855-66fc-7d76-a612-8313d2c5c123","","null","
                <div class=""stimulus-container"">
                    <img src=""images/semantic_sequence/cat_care_semantic/cat_care_semantic_8.png"" class=""exp-image"">
                    <div class=""question-area""></div> 
                </div>","null","","","","","","","","",""
"","","","","","html-button-response","74","228192","0.0-74.0","C30687A345194E70A003646FEB3F781B","019cf864-505f-76d5-8bf7-2ca0488d1386","019cf855-66fc-7d76-a612-8313d2c5c123","","515","
                <div class=""stimulus-container"">
                    <img src=""images/semantic_sequence/cat_care_semantic/cat_care_semantic_8.png"" class=""exp-image"">
                    <div class=""question-area"">
                        <p style=""font-size: 20px; font-weight: bold; margin: 0;"">Is there a person in this image?</p>
                    </div>
                </div>","0","main_experiment_trial","8","cat_care_semantic","semantic_sequence","","","","",""
"","","","","","html-keyboard-response","75","233199","0.0-75.0","C30687A345194E70A003646FEB3F781B","019cf864-505f-76d5-8bf7-2ca0488d1386","019cf855-66fc-7d76-a612-8313d2c5c123","","null","
                <div class=""stimulus-container"">
                    <img src=""images/semantic_sequence/cat_care_semantic/cat_care_semantic_9.png"" class=""exp-image"">
                    <div class=""question-area""></div> 
                </div>","null","","","","","","","","",""
"","","","","","html-button-response","76","233704","0.0-76.0","C30687A345194E70A003646FEB3F781B","019cf864-505f-76d5-8bf7-2ca0488d1386","019cf855-66fc-7d76-a612-8313d2c5c123","","504","
                <div class=""stimulus-container"">
                    <img src=""images/semantic_sequence/cat_care_semantic/cat_care_semantic_9.png"" class=""exp-image"">
                    <div class=""question-area"">
                        <p style=""font-size: 20px; font-weight: bold; margin: 0;"">Is there a person in this image?</p>
                    </div>
                </div>","0","main_experiment_trial","9","cat_care_semantic","semantic_sequence","","","","",""
"","","","","","html-keyboard-response","77","238714","0.0-77.0","C30687A345194E70A003646FEB3F781B","019cf864-505f-76d5-8bf7-2ca0488d1386","019cf855-66fc-7d76-a612-8313d2c5c123","","null","
                <div class=""stimulus-container"">
                    <img src=""images/semantic_sequence/cat_care_semantic/cat_care_semantic_ten.png"" class=""exp-image"">
                    <div class=""question-area""></div> 
                </div>","null","","","","","","","","",""
"","","","","","html-button-response","78","239182","0.0-78.0","C30687A345194E70A003646FEB3F781B","019cf864-505f-76d5-8bf7-2ca0488d1386","019cf855-66fc-7d76-a612-8313d2c5c123","","468","
                <div class=""stimulus-container"">
                    <img src=""images/semantic_sequence/cat_care_semantic/cat_care_semantic_ten.png"" class=""exp-image"">
                    <div class=""question-area"">
                        <p style=""font-size: 20px; font-weight: bold; margin: 0;"">Is there a person in this image?</p>
                    </div>
                </div>","1","main_experiment_trial","ten","cat_care_semantic","semantic_sequence","","","","",""
"","","","","","html-keyboard-response","79","240198","0.0-79.0","C30687A345194E70A003646FEB3F781B","019cf864-505f-76d5-8bf7-2ca0488d1386","019cf855-66fc-7d76-a612-8313d2c5c123","","null","<div style=""background-color: white; width: 100vw; height: 100vh;""></div>","null","","","","","","","","",""
"","","","","","html-keyboard-response","80","245208","0.0-80.0","C30687A345194E70A003646FEB3F781B","019cf864-505f-76d5-8bf7-2ca0488d1386","019cf855-66fc-7d76-a612-8313d2c5c123","","null","
                <div class=""stimulus-container"">
                    <img src=""images/semantic_sequence/physical_activity_semantic/physical_activity_semantic_1.png"" class=""exp-image"">
                    <div class=""question-area""></div> 
                </div>","null","","","","","","","","",""
"","","","","","html-button-response","81","245821","0.0-81.0","C30687A345194E70A003646FEB3F781B","019cf864-505f-76d5-8bf7-2ca0488d1386","019cf855-66fc-7d76-a612-8313d2c5c123","","612","
                <div class=""stimulus-container"">
                    <img src=""images/semantic_sequence/physical_activity_semantic/physical_activity_semantic_1.png"" class=""exp-image"">
                    <div class=""question-area"">
                        <p style=""font-size: 20px; font-weight: bold; margin: 0;"">Is there a person in this image?</p>
                    </div>
                </div>","0","main_experiment_trial","1","physical_activity_semantic","semantic_sequence","","","","",""
"","","","","","html-keyboard-response","82","250837","0.0-82.0","C30687A345194E70A003646FEB3F781B","019cf864-505f-76d5-8bf7-2ca0488d1386","019cf855-66fc-7d76-a612-8313d2c5c123","","null","
                <div class=""stimulus-container"">
                    <img src=""images/semantic_sequence/physical_activity_semantic/physical_activity_semantic_2.png"" class=""exp-image"">
                    <div class=""question-area""></div> 
                </div>","null","","","","","","","","",""
"","","","","","html-button-response","83","251695","0.0-83.0","C30687A345194E70A003646FEB3F781B","019cf864-505f-76d5-8bf7-2ca0488d1386","019cf855-66fc-7d76-a612-8313d2c5c123","","857","
                <div class=""stimulus-container"">
                    <img src=""images/semantic_sequence/physical_activity_semantic/physical_activity_semantic_2.png"" class=""exp-image"">
                    <div class=""question-area"">
                        <p style=""font-size: 20px; font-weight: bold; margin: 0;"">Is there a person in this image?</p>
                    </div>
                </div>","0","main_experiment_trial","2","physical_activity_semantic","semantic_sequence","","","","",""
"","","","","","html-keyboard-response","84","256697","0.0-84.0","C30687A345194E70A003646FEB3F781B","019cf864-505f-76d5-8bf7-2ca0488d1386","019cf855-66fc-7d76-a612-8313d2c5c123","","null","
                <div class=""stimulus-container"">
                    <img src=""images/semantic_sequence/physical_activity_semantic/physical_activity_semantic_3.png"" class=""exp-image"">
                    <div class=""question-area""></div> 
                </div>","null","","","","","","","","",""
"","","","","","html-button-response","85","257548","0.0-85.0","C30687A345194E70A003646FEB3F781B","019cf864-505f-76d5-8bf7-2ca0488d1386","019cf855-66fc-7d76-a612-8313d2c5c123","","850","
                <div class=""stimulus-container"">
                    <img src=""images/semantic_sequence/physical_activity_semantic/physical_activity_semantic_3.png"" class=""exp-image"">
                    <div class=""question-area"">
                        <p style=""font-size: 20px; font-weight: bold; margin: 0;"">Is there a person in this image?</p>
                    </div>
                </div>","0","main_experiment_trial","3","physical_activity_semantic","semantic_sequence","","","","",""
"","","","","","html-keyboard-response","86","262556","0.0-86.0","C30687A345194E70A003646FEB3F781B","019cf864-505f-76d5-8bf7-2ca0488d1386","019cf855-66fc-7d76-a612-8313d2c5c123","","null","
                <div class=""stimulus-container"">
                    <img src=""images/semantic_sequence/physical_activity_semantic/physical_activity_semantic_4.png"" class=""exp-image"">
                    <div class=""question-area""></div> 
                </div>","null","","","","","","","","",""
"","","","","","html-button-response","87","263332","0.0-87.0","C30687A345194E70A003646FEB3F781B","019cf864-505f-76d5-8bf7-2ca0488d1386","019cf855-66fc-7d76-a612-8313d2c5c123","","776","
                <div class=""stimulus-container"">
                    <img src=""images/semantic_sequence/physical_activity_semantic/physical_activity_semantic_4.png"" class=""exp-image"">
                    <div class=""question-area"">
                        <p style=""font-size: 20px; font-weight: bold; margin: 0;"">Is there a person in this image?</p>
                    </div>
                </div>","0","main_experiment_trial","4","physical_activity_semantic","semantic_sequence","","","","",""
"","","","","","html-keyboard-response","88","268347","0.0-88.0","C30687A345194E70A003646FEB3F781B","019cf864-505f-76d5-8bf7-2ca0488d1386","019cf855-66fc-7d76-a612-8313d2c5c123","","null","
                <div class=""stimulus-container"">
                    <img src=""images/semantic_sequence/physical_activity_semantic/physical_activity_semantic_5.png"" class=""exp-image"">
                    <div class=""question-area""></div> 
                </div>","null","","","","","","","","",""
"","","","","","html-button-response","89","268766","0.0-89.0","C30687A345194E70A003646FEB3F781B","019cf864-505f-76d5-8bf7-2ca0488d1386","019cf855-66fc-7d76-a612-8313d2c5c123","","418","
                <div class=""stimulus-container"">
                    <img src=""images/semantic_sequence/physical_activity_semantic/physical_activity_semantic_5.png"" class=""exp-image"">
                    <div class=""question-area"">
                        <p style=""font-size: 20px; font-weight: bold; margin: 0;"">Is there a person in this image?</p>
                    </div>
                </div>","0","main_experiment_trial","5","physical_activity_semantic","semantic_sequence","","","","",""
"","","","","","html-keyboard-response","90","273781","0.0-90.0","C30687A345194E70A003646FEB3F781B","019cf864-505f-76d5-8bf7-2ca0488d1386","019cf855-66fc-7d76-a612-8313d2c5c123","","null","
                <div class=""stimulus-container"">
                    <img src=""images/semantic_sequence/physical_activity_semantic/physical_activity_semantic_6.png"" class=""exp-image"">
                    <div class=""question-area""></div> 
                </div>","null","","","","","","","","",""
"","","","","","html-button-response","91","274452","0.0-91.0","C30687A345194E70A003646FEB3F781B","019cf864-505f-76d5-8bf7-2ca0488d1386","019cf855-66fc-7d76-a612-8313d2c5c123","","670","
                <div class=""stimulus-container"">
                    <img src=""images/semantic_sequence/physical_activity_semantic/physical_activity_semantic_6.png"" class=""exp-image"">
                    <div class=""question-area"">
                        <p style=""font-size: 20px; font-weight: bold; margin: 0;"">Is there a person in this image?</p>
                    </div>
                </div>","0","main_experiment_trial","6","physical_activity_semantic","semantic_sequence","","","","",""
"","","","","","html-keyboard-response","92","279462","0.0-92.0","C30687A345194E70A003646FEB3F781B","019cf864-505f-76d5-8bf7-2ca0488d1386","019cf855-66fc-7d76-a612-8313d2c5c123","","null","
                <div class=""stimulus-container"">
                    <img src=""images/semantic_sequence/physical_activity_semantic/physical_activity_semantic_7.png"" class=""exp-image"">
                    <div class=""question-area""></div> 
                </div>","null","","","","","","","","",""
"","","","","","html-button-response","93","280188","0.0-93.0","C30687A345194E70A003646FEB3F781B","019cf864-505f-76d5-8bf7-2ca0488d1386","019cf855-66fc-7d76-a612-8313d2c5c123","","725","
                <div class=""stimulus-container"">
                    <img src=""images/semantic_sequence/physical_activity_semantic/physical_activity_semantic_7.png"" class=""exp-image"">
                    <div class=""question-area"">
                        <p style=""font-size: 20px; font-weight: bold; margin: 0;"">Is there a person in this image?</p>
                    </div>
                </div>","0","main_experiment_trial","7","physical_activity_semantic","semantic_sequence","","","","",""
"","","","","","html-keyboard-response","94","285189","0.0-94.0","C30687A345194E70A003646FEB3F781B","019cf864-505f-76d5-8bf7-2ca0488d1386","019cf855-66fc-7d76-a612-8313d2c5c123","","null","
                <div class=""stimulus-container"">
                    <img src=""images/semantic_sequence/physical_activity_semantic/physical_activity_semantic_8.png"" class=""exp-image"">
                    <div class=""question-area""></div> 
                </div>","null","","","","","","","","",""
"","","","","","html-button-response","95","285637","0.0-95.0","C30687A345194E70A003646FEB3F781B","019cf864-505f-76d5-8bf7-2ca0488d1386","019cf855-66fc-7d76-a612-8313d2c5c123","","448","
                <div class=""stimulus-container"">
                    <img src=""images/semantic_sequence/physical_activity_semantic/physical_activity_semantic_8.png"" class=""exp-image"">
                    <div class=""question-area"">
                        <p style=""font-size: 20px; font-weight: bold; margin: 0;"">Is there a person in this image?</p>
                    </div>
                </div>","0","main_experiment_trial","8","physical_activity_semantic","semantic_sequence","","","","",""
"","","","","","html-keyboard-response","96","290641","0.0-96.0","C30687A345194E70A003646FEB3F781B","019cf864-505f-76d5-8bf7-2ca0488d1386","019cf855-66fc-7d76-a612-8313d2c5c123","","null","
                <div class=""stimulus-container"">
                    <img src=""images/semantic_sequence/physical_activity_semantic/physical_activity_semantic_9.png"" class=""exp-image"">
                    <div class=""question-area""></div> 
                </div>","null","","","","","","","","",""
"","","","","","html-button-response","97","291332","0.0-97.0","C30687A345194E70A003646FEB3F781B","019cf864-505f-76d5-8bf7-2ca0488d1386","019cf855-66fc-7d76-a612-8313d2c5c123","","690","
                <div class=""stimulus-container"">
                    <img src=""images/semantic_sequence/physical_activity_semantic/physical_activity_semantic_9.png"" class=""exp-image"">
                    <div class=""question-area"">
                        <p style=""font-size: 20px; font-weight: bold; margin: 0;"">Is there a person in this image?</p>
                    </div>
                </div>","0","main_experiment_trial","9","physical_activity_semantic","semantic_sequence","","","","",""
"","","","","","html-keyboard-response","98","296344","0.0-98.0","C30687A345194E70A003646FEB3F781B","019cf864-505f-76d5-8bf7-2ca0488d1386","019cf855-66fc-7d76-a612-8313d2c5c123","","null","
                <div class=""stimulus-container"">
                    <img src=""images/semantic_sequence/physical_activity_semantic/physical_activity_semantic_ten.png"" class=""exp-image"">
                    <div class=""question-area""></div> 
                </div>","null","","","","","","","","",""
"","","","","","html-button-response","99","297464","0.0-99.0","C30687A345194E70A003646FEB3F781B","019cf864-505f-76d5-8bf7-2ca0488d1386","019cf855-66fc-7d76-a612-8313d2c5c123","","1119","
                <div class=""stimulus-container"">
                    <img src=""images/semantic_sequence/physical_activity_semantic/physical_activity_semantic_ten.png"" class=""exp-image"">
                    <div class=""question-area"">
                        <p style=""font-size: 20px; font-weight: bold; margin: 0;"">Is there a person in this image?</p>
                    </div>
                </div>","0","main_experiment_trial","ten","physical_activity_semantic","semantic_sequence","","","","",""
"","","","","","html-keyboard-response","100","298468","0.0-100.0","C30687A345194E70A003646FEB3F781B","019cf864-505f-76d5-8bf7-2ca0488d1386","019cf855-66fc-7d76-a612-8313d2c5c123","","null","<div style=""background-color: white; width: 100vw; height: 100vh;""></div>","null","","","","","","","","",""
"","","","","","html-keyboard-response","101","303481","0.0-101.0","C30687A345194E70A003646FEB3F781B","019cf864-505f-76d5-8bf7-2ca0488d1386","019cf855-66fc-7d76-a612-8313d2c5c123","","null","
                <div class=""stimulus-container"">
                    <img src=""images/schematic_sequence/flight_scheme/flight_scheme_1.png"" class=""exp-image"">
                    <div class=""question-area""></div> 
                </div>","null","","","","","","","","",""
"","","","","","html-button-response","102","303860","0.0-102.0","C30687A345194E70A003646FEB3F781B","019cf864-505f-76d5-8bf7-2ca0488d1386","019cf855-66fc-7d76-a612-8313d2c5c123","","379","
                <div class=""stimulus-container"">
                    <img src=""images/schematic_sequence/flight_scheme/flight_scheme_1.png"" class=""exp-image"">
                    <div class=""question-area"">
                        <p style=""font-size: 20px; font-weight: bold; margin: 0;"">Is there a person in this image?</p>
                    </div>
                </div>","0","main_experiment_trial","1","flight_scheme","schematic_sequence","","","","",""
"","","","","","html-keyboard-response","103","308876","0.0-103.0","C30687A345194E70A003646FEB3F781B","019cf864-505f-76d5-8bf7-2ca0488d1386","019cf855-66fc-7d76-a612-8313d2c5c123","","null","
                <div class=""stimulus-container"">
                    <img src=""images/schematic_sequence/flight_scheme/flight_scheme_2.png"" class=""exp-image"">
                    <div class=""question-area""></div> 
                </div>","null","","","","","","","","",""
"","","","","","html-button-response","104","309256","0.0-104.0","C30687A345194E70A003646FEB3F781B","019cf864-505f-76d5-8bf7-2ca0488d1386","019cf855-66fc-7d76-a612-8313d2c5c123","","379","
                <div class=""stimulus-container"">
                    <img src=""images/schematic_sequence/flight_scheme/flight_scheme_2.png"" class=""exp-image"">
                    <div class=""question-area"">
                        <p style=""font-size: 20px; font-weight: bold; margin: 0;"">Is there a person in this image?</p>
                    </div>
                </div>","1","main_experiment_trial","2","flight_scheme","schematic_sequence","","","","",""
"","","","","","html-keyboard-response","105","314263","0.0-105.0","C30687A345194E70A003646FEB3F781B","019cf864-505f-76d5-8bf7-2ca0488d1386","019cf855-66fc-7d76-a612-8313d2c5c123","","null","
                <div class=""stimulus-container"">
                    <img src=""images/schematic_sequence/flight_scheme/flight_scheme_3.png"" class=""exp-image"">
                    <div class=""question-area""></div> 
                </div>","null","","","","","","","","",""
"","","","","","html-button-response","106","314751","0.0-106.0","C30687A345194E70A003646FEB3F781B","019cf864-505f-76d5-8bf7-2ca0488d1386","019cf855-66fc-7d76-a612-8313d2c5c123","","487","
                <div class=""stimulus-container"">
                    <img src=""images/schematic_sequence/flight_scheme/flight_scheme_3.png"" class=""exp-image"">
                    <div class=""question-area"">
                        <p style=""font-size: 20px; font-weight: bold; margin: 0;"">Is there a person in this image?</p>
                    </div>
                </div>","0","main_experiment_trial","3","flight_scheme","schematic_sequence","","","","",""
"","","","","","html-keyboard-response","107","319760","0.0-107.0","C30687A345194E70A003646FEB3F781B","019cf864-505f-76d5-8bf7-2ca0488d1386","019cf855-66fc-7d76-a612-8313d2c5c123","","null","
                <div class=""stimulus-container"">
                    <img src=""images/schematic_sequence/flight_scheme/flight_scheme_4.png"" class=""exp-image"">
                    <div class=""question-area""></div> 
                </div>","null","","","","","","","","",""
"","","","","","html-button-response","108","320906","0.0-108.0","C30687A345194E70A003646FEB3F781B","019cf864-505f-76d5-8bf7-2ca0488d1386","019cf855-66fc-7d76-a612-8313d2c5c123","","1145","
                <div class=""stimulus-container"">
                    <img src=""images/schematic_sequence/flight_scheme/flight_scheme_4.png"" class=""exp-image"">
                    <div class=""question-area"">
                        <p style=""font-size: 20px; font-weight: bold; margin: 0;"">Is there a person in this image?</p>
                    </div>
                </div>","0","main_experiment_trial","4","flight_scheme","schematic_sequence","","","","",""
"","","","","","html-keyboard-response","109","325915","0.0-109.0","C30687A345194E70A003646FEB3F781B","019cf864-505f-76d5-8bf7-2ca0488d1386","019cf855-66fc-7d76-a612-8313d2c5c123","","null","
                <div class=""stimulus-container"">
                    <img src=""images/schematic_sequence/flight_scheme/flight_scheme_5.png"" class=""exp-image"">
                    <div class=""question-area""></div> 
                </div>","null","","","","","","","","",""
"","","","","","html-button-response","110","326486","0.0-110.0","C30687A345194E70A003646FEB3F781B","019cf864-505f-76d5-8bf7-2ca0488d1386","019cf855-66fc-7d76-a612-8313d2c5c123","","570","
                <div class=""stimulus-container"">
                    <img src=""images/schematic_sequence/flight_scheme/flight_scheme_5.png"" class=""exp-image"">
                    <div class=""question-area"">
                        <p style=""font-size: 20px; font-weight: bold; margin: 0;"">Is there a person in this image?</p>
                    </div>
                </div>","0","main_experiment_trial","5","flight_scheme","schematic_sequence","","","","",""
"","","","","","html-keyboard-response","111","331498","0.0-111.0","C30687A345194E70A003646FEB3F781B","019cf864-505f-76d5-8bf7-2ca0488d1386","019cf855-66fc-7d76-a612-8313d2c5c123","","null","
                <div class=""stimulus-container"">
                    <img src=""images/schematic_sequence/flight_scheme/flight_scheme_6.png"" class=""exp-image"">
                    <div class=""question-area""></div> 
                </div>","null","","","","","","","","",""
"","","","","","html-button-response","112","331990","0.0-112.0","C30687A345194E70A003646FEB3F781B","019cf864-505f-76d5-8bf7-2ca0488d1386","019cf855-66fc-7d76-a612-8313d2c5c123","","491","
                <div class=""stimulus-container"">
                    <img src=""images/schematic_sequence/flight_scheme/flight_scheme_6.png"" class=""exp-image"">
                    <div class=""question-area"">
                        <p style=""font-size: 20px; font-weight: bold; margin: 0;"">Is there a person in this image?</p>
                    </div>
                </div>","1","main_experiment_trial","6","flight_scheme","schematic_sequence","","","","",""
"","","","","","html-keyboard-response","113","337002","0.0-113.0","C30687A345194E70A003646FEB3F781B","019cf864-505f-76d5-8bf7-2ca0488d1386","019cf855-66fc-7d76-a612-8313d2c5c123","","null","
                <div class=""stimulus-container"">
                    <img src=""images/schematic_sequence/flight_scheme/flight_scheme_7.png"" class=""exp-image"">
                    <div class=""question-area""></div> 
                </div>","null","","","","","","","","",""
"","","","","","html-button-response","114","337708","0.0-114.0","C30687A345194E70A003646FEB3F781B","019cf864-505f-76d5-8bf7-2ca0488d1386","019cf855-66fc-7d76-a612-8313d2c5c123","","705","
                <div class=""stimulus-container"">
                    <img src=""images/schematic_sequence/flight_scheme/flight_scheme_7.png"" class=""exp-image"">
                    <div class=""question-area"">
                        <p style=""font-size: 20px; font-weight: bold; margin: 0;"">Is there a person in this image?</p>
                    </div>
                </div>","0","main_experiment_trial","7","flight_scheme","schematic_sequence","","","","",""
"","","","","","html-keyboard-response","115","342721","0.0-115.0","C30687A345194E70A003646FEB3F781B","019cf864-505f-76d5-8bf7-2ca0488d1386","019cf855-66fc-7d76-a612-8313d2c5c123","","null","
                <div class=""stimulus-container"">
                    <img src=""images/schematic_sequence/flight_scheme/flight_scheme_8.png"" class=""exp-image"">
                    <div class=""question-area""></div> 
                </div>","null","","","","","","","","",""
"","","","","","html-button-response","116","344752","0.0-116.0","C30687A345194E70A003646FEB3F781B","019cf864-505f-76d5-8bf7-2ca0488d1386","019cf855-66fc-7d76-a612-8313d2c5c123","","2030","
                <div class=""stimulus-container"">
                    <img src=""images/schematic_sequence/flight_scheme/flight_scheme_8.png"" class=""exp-image"">
                    <div class=""question-area"">
                        <p style=""font-size: 20px; font-weight: bold; margin: 0;"">Is there a person in this image?</p>
                    </div>
                </div>","1","main_experiment_trial","8","flight_scheme","schematic_sequence","","","","",""
"","","","","","html-keyboard-response","117","349758","0.0-117.0","C30687A345194E70A003646FEB3F781B","019cf864-505f-76d5-8bf7-2ca0488d1386","019cf855-66fc-7d76-a612-8313d2c5c123","","null","
                <div class=""stimulus-container"">
                    <img src=""images/schematic_sequence/flight_scheme/flight_scheme_9.png"" class=""exp-image"">
                    <div class=""question-area""></div> 
                </div>","null","","","","","","","","",""
"","","","","","html-button-response","118","350562","0.0-118.0","C30687A345194E70A003646FEB3F781B","019cf864-505f-76d5-8bf7-2ca0488d1386","019cf855-66fc-7d76-a612-8313d2c5c123","","803","
                <div class=""stimulus-container"">
                    <img src=""images/schematic_sequence/flight_scheme/flight_scheme_9.png"" class=""exp-image"">
                    <div class=""question-area"">
                        <p style=""font-size: 20px; font-weight: bold; margin: 0;"">Is there a person in this image?</p>
                    </div>
                </div>","0","main_experiment_trial","9","flight_scheme","schematic_sequence","","","","",""
"","","","","","html-keyboard-response","119","355565","0.0-119.0","C30687A345194E70A003646FEB3F781B","019cf864-505f-76d5-8bf7-2ca0488d1386","019cf855-66fc-7d76-a612-8313d2c5c123","","null","
                <div class=""stimulus-container"">
                    <img src=""images/schematic_sequence/flight_scheme/flight_scheme_ten.png"" class=""exp-image"">
                    <div class=""question-area""></div> 
                </div>","null","","","","","","","","",""
"","","","","","html-button-response","120","357174","0.0-120.0","C30687A345194E70A003646FEB3F781B","019cf864-505f-76d5-8bf7-2ca0488d1386","019cf855-66fc-7d76-a612-8313d2c5c123","","1609","
                <div class=""stimulus-container"">
                    <img src=""images/schematic_sequence/flight_scheme/flight_scheme_ten.png"" class=""exp-image"">
                    <div class=""question-area"">
                        <p style=""font-size: 20px; font-weight: bold; margin: 0;"">Is there a person in this image?</p>
                    </div>
                </div>","0","main_experiment_trial","ten","flight_scheme","schematic_sequence","","","","",""
"","","","","","html-keyboard-response","121","358186","0.0-121.0","C30687A345194E70A003646FEB3F781B","019cf864-505f-76d5-8bf7-2ca0488d1386","019cf855-66fc-7d76-a612-8313d2c5c123","","null","<div style=""background-color: white; width: 100vw; height: 100vh;""></div>","null","","","","","","","","",""
"","","","","","html-keyboard-response","122","363201","0.0-122.0","C30687A345194E70A003646FEB3F781B","019cf864-505f-76d5-8bf7-2ca0488d1386","019cf855-66fc-7d76-a612-8313d2c5c123","","null","
                <div class=""stimulus-container"">
                    <img src=""images/semantic_sequence/market_semantic/market_semantic_1.png"" class=""exp-image"">
                    <div class=""question-area""></div> 
                </div>","null","","","","","","","","",""
"","","","","","html-button-response","123","364211","0.0-123.0","C30687A345194E70A003646FEB3F781B","019cf864-505f-76d5-8bf7-2ca0488d1386","019cf855-66fc-7d76-a612-8313d2c5c123","","1010","
                <div class=""stimulus-container"">
                    <img src=""images/semantic_sequence/market_semantic/market_semantic_1.png"" class=""exp-image"">
                    <div class=""question-area"">
                        <p style=""font-size: 20px; font-weight: bold; margin: 0;"">Is there a person in this image?</p>
                    </div>
                </div>","1","main_experiment_trial","1","market_semantic","semantic_sequence","","","","",""
"","","","","","html-keyboard-response","124","369212","0.0-124.0","C30687A345194E70A003646FEB3F781B","019cf864-505f-76d5-8bf7-2ca0488d1386","019cf855-66fc-7d76-a612-8313d2c5c123","","null","
                <div class=""stimulus-container"">
                    <img src=""images/semantic_sequence/market_semantic/market_semantic_2.png"" class=""exp-image"">
                    <div class=""question-area""></div> 
                </div>","null","","","","","","","","",""
"","","","","","html-button-response","125","372228","0.0-125.0","C30687A345194E70A003646FEB3F781B","019cf864-505f-76d5-8bf7-2ca0488d1386","019cf855-66fc-7d76-a612-8313d2c5c123","","null","
                <div class=""stimulus-container"">
                    <img src=""images/semantic_sequence/market_semantic/market_semantic_2.png"" class=""exp-image"">
                    <div class=""question-area"">
                        <p style=""font-size: 20px; font-weight: bold; margin: 0;"">Is there a person in this image?</p>
                    </div>
                </div>","null","main_experiment_trial","2","market_semantic","semantic_sequence","","","","",""
"","","","","","html-keyboard-response","126","377239","0.0-126.0","C30687A345194E70A003646FEB3F781B","019cf864-505f-76d5-8bf7-2ca0488d1386","019cf855-66fc-7d76-a612-8313d2c5c123","","null","
                <div class=""stimulus-container"">
                    <img src=""images/semantic_sequence/market_semantic/market_semantic_3.png"" class=""exp-image"">
                    <div class=""question-area""></div> 
                </div>","null","","","","","","","","",""
"","","","","","html-button-response","127","378254","0.0-127.0","C30687A345194E70A003646FEB3F781B","019cf864-505f-76d5-8bf7-2ca0488d1386","019cf855-66fc-7d76-a612-8313d2c5c123","","1014","
                <div class=""stimulus-container"">
                    <img src=""images/semantic_sequence/market_semantic/market_semantic_3.png"" class=""exp-image"">
                    <div class=""question-area"">
                        <p style=""font-size: 20px; font-weight: bold; margin: 0;"">Is there a person in this image?</p>
                    </div>
                </div>","1","main_experiment_trial","3","market_semantic","semantic_sequence","","","","",""
"","","","","","html-keyboard-response","128","383257","0.0-128.0","C30687A345194E70A003646FEB3F781B","019cf864-505f-76d5-8bf7-2ca0488d1386","019cf855-66fc-7d76-a612-8313d2c5c123","","null","
                <div class=""stimulus-container"">
                    <img src=""images/semantic_sequence/market_semantic/market_semantic_4.png"" class=""exp-image"">
                    <div class=""question-area""></div> 
                </div>","null","","","","","","","","",""
"","","","","","html-button-response","129","384086","0.0-129.0","C30687A345194E70A003646FEB3F781B","019cf864-505f-76d5-8bf7-2ca0488d1386","019cf855-66fc-7d76-a612-8313d2c5c123","","829","
                <div class=""stimulus-container"">
                    <img src=""images/semantic_sequence/market_semantic/market_semantic_4.png"" class=""exp-image"">
                    <div class=""question-area"">
                        <p style=""font-size: 20px; font-weight: bold; margin: 0;"">Is there a person in this image?</p>
                    </div>
                </div>","0","main_experiment_trial","4","market_semantic","semantic_sequence","","","","",""
"","","","","","html-keyboard-response","130","389098","0.0-130.0","C30687A345194E70A003646FEB3F781B","019cf864-505f-76d5-8bf7-2ca0488d1386","019cf855-66fc-7d76-a612-8313d2c5c123","","null","
                <div class=""stimulus-container"">
                    <img src=""images/semantic_sequence/market_semantic/market_semantic_5.png"" class=""exp-image"">
                    <div class=""question-area""></div> 
                </div>","null","","","","","","","","",""
"","","","","","html-button-response","131","389760","0.0-131.0","C30687A345194E70A003646FEB3F781B","019cf864-505f-76d5-8bf7-2ca0488d1386","019cf855-66fc-7d76-a612-8313d2c5c123","","661","
                <div class=""stimulus-container"">
                    <img src=""images/semantic_sequence/market_semantic/market_semantic_5.png"" class=""exp-image"">
                    <div class=""question-area"">
                        <p style=""font-size: 20px; font-weight: bold; margin: 0;"">Is there a person in this image?</p>
                    </div>
                </div>","1","main_experiment_trial","5","market_semantic","semantic_sequence","","","","",""
"","","","","","html-keyboard-response","132","394767","0.0-132.0","C30687A345194E70A003646FEB3F781B","019cf864-505f-76d5-8bf7-2ca0488d1386","019cf855-66fc-7d76-a612-8313d2c5c123","","null","
                <div class=""stimulus-container"">
                    <img src=""images/semantic_sequence/market_semantic/market_semantic_6.png"" class=""exp-image"">
                    <div class=""question-area""></div> 
                </div>","null","","","","","","","","",""
"","","","","","html-button-response","133","395204","0.0-133.0","C30687A345194E70A003646FEB3F781B","019cf864-505f-76d5-8bf7-2ca0488d1386","019cf855-66fc-7d76-a612-8313d2c5c123","","436","
                <div class=""stimulus-container"">
                    <img src=""images/semantic_sequence/market_semantic/market_semantic_6.png"" class=""exp-image"">
                    <div class=""question-area"">
                        <p style=""font-size: 20px; font-weight: bold; margin: 0;"">Is there a person in this image?</p>
                    </div>
                </div>","1","main_experiment_trial","6","market_semantic","semantic_sequence","","","","",""
"","","","","","html-keyboard-response","134","400217","0.0-134.0","C30687A345194E70A003646FEB3F781B","019cf864-505f-76d5-8bf7-2ca0488d1386","019cf855-66fc-7d76-a612-8313d2c5c123","","null","
                <div class=""stimulus-container"">
                    <img src=""images/semantic_sequence/market_semantic/market_semantic_7.png"" class=""exp-image"">
                    <div class=""question-area""></div> 
                </div>","null","","","","","","","","",""
"","","","","","html-button-response","135","400686","0.0-135.0","C30687A345194E70A003646FEB3F781B","019cf864-505f-76d5-8bf7-2ca0488d1386","019cf855-66fc-7d76-a612-8313d2c5c123","","468","
                <div class=""stimulus-container"">
                    <img src=""images/semantic_sequence/market_semantic/market_semantic_7.png"" class=""exp-image"">
                    <div class=""question-area"">
                        <p style=""font-size: 20px; font-weight: bold; margin: 0;"">Is there a person in this image?</p>
                    </div>
                </div>","0","main_experiment_trial","7","market_semantic","semantic_sequence","","","","",""
"","","","","","html-keyboard-response","136","405702","0.0-136.0","C30687A345194E70A003646FEB3F781B","019cf864-505f-76d5-8bf7-2ca0488d1386","019cf855-66fc-7d76-a612-8313d2c5c123","","null","
                <div class=""stimulus-container"">
                    <img src=""images/semantic_sequence/market_semantic/market_semantic_8.png"" class=""exp-image"">
                    <div class=""question-area""></div> 
                </div>","null","","","","","","","","",""
"","","","","","html-button-response","137","406640","0.0-137.0","C30687A345194E70A003646FEB3F781B","019cf864-505f-76d5-8bf7-2ca0488d1386","019cf855-66fc-7d76-a612-8313d2c5c123","","937","
                <div class=""stimulus-container"">
                    <img src=""images/semantic_sequence/market_semantic/market_semantic_8.png"" class=""exp-image"">
                    <div class=""question-area"">
                        <p style=""font-size: 20px; font-weight: bold; margin: 0;"">Is there a person in this image?</p>
                    </div>
                </div>","0","main_experiment_trial","8","market_semantic","semantic_sequence","","","","",""
"","","","","","html-keyboard-response","138","411640","0.0-138.0","C30687A345194E70A003646FEB3F781B","019cf864-505f-76d5-8bf7-2ca0488d1386","019cf855-66fc-7d76-a612-8313d2c5c123","","null","
                <div class=""stimulus-container"">
                    <img src=""images/semantic_sequence/market_semantic/market_semantic_9.png"" class=""exp-image"">
                    <div class=""question-area""></div> 
                </div>","null","","","","","","","","",""
"","","","","","html-button-response","139","412624","0.0-139.0","C30687A345194E70A003646FEB3F781B","019cf864-505f-76d5-8bf7-2ca0488d1386","019cf855-66fc-7d76-a612-8313d2c5c123","","983","
                <div class=""stimulus-container"">
                    <img src=""images/semantic_sequence/market_semantic/market_semantic_9.png"" class=""exp-image"">
                    <div class=""question-area"">
                        <p style=""font-size: 20px; font-weight: bold; margin: 0;"">Is there a person in this image?</p>
                    </div>
                </div>","0","main_experiment_trial","9","market_semantic","semantic_sequence","","","","",""
"","","","","","html-keyboard-response","140","417635","0.0-140.0","C30687A345194E70A003646FEB3F781B","019cf864-505f-76d5-8bf7-2ca0488d1386","019cf855-66fc-7d76-a612-8313d2c5c123","","null","
                <div class=""stimulus-container"">
                    <img src=""images/semantic_sequence/market_semantic/market_semantic_ten.png"" class=""exp-image"">
                    <div class=""question-area""></div> 
                </div>","null","","","","","","","","",""
"","","","","","html-button-response","141","418278","0.0-141.0","C30687A345194E70A003646FEB3F781B","019cf864-505f-76d5-8bf7-2ca0488d1386","019cf855-66fc-7d76-a612-8313d2c5c123","","643","
                <div class=""stimulus-container"">
                    <img src=""images/semantic_sequence/market_semantic/market_semantic_ten.png"" class=""exp-image"">
                    <div class=""question-area"">
                        <p style=""font-size: 20px; font-weight: bold; margin: 0;"">Is there a person in this image?</p>
                    </div>
                </div>","1","main_experiment_trial","ten","market_semantic","semantic_sequence","","","","",""
"","","","","","html-keyboard-response","142","419284","0.0-142.0","C30687A345194E70A003646FEB3F781B","019cf864-505f-76d5-8bf7-2ca0488d1386","019cf855-66fc-7d76-a612-8313d2c5c123","","null","<div style=""background-color: white; width: 100vw; height: 100vh;""></div>","null","","","","","","","","",""
"","","","","","html-keyboard-response","143","424296","0.0-143.0","C30687A345194E70A003646FEB3F781B","019cf864-505f-76d5-8bf7-2ca0488d1386","019cf855-66fc-7d76-a612-8313d2c5c123","","null","
                <div class=""stimulus-container"">
                    <img src=""images/semantic_sequence/redecorating_a_house_semantic/redecorating_a_house_semantic_1.png"" class=""exp-image"">
                    <div class=""question-area""></div> 
                </div>","null","","","","","","","","",""
"","","","","","html-button-response","144","425216","0.0-144.0","C30687A345194E70A003646FEB3F781B","019cf864-505f-76d5-8bf7-2ca0488d1386","019cf855-66fc-7d76-a612-8313d2c5c123","","920","
                <div class=""stimulus-container"">
                    <img src=""images/semantic_sequence/redecorating_a_house_semantic/redecorating_a_house_semantic_1.png"" class=""exp-image"">
                    <div class=""question-area"">
                        <p style=""font-size: 20px; font-weight: bold; margin: 0;"">Is there a person in this image?</p>
                    </div>
                </div>","0","main_experiment_trial","1","redecorating_a_house_semantic","semantic_sequence","","","","",""
"","","","","","html-keyboard-response","145","430227","0.0-145.0","C30687A345194E70A003646FEB3F781B","019cf864-505f-76d5-8bf7-2ca0488d1386","019cf855-66fc-7d76-a612-8313d2c5c123","","null","
                <div class=""stimulus-container"">
                    <img src=""images/semantic_sequence/redecorating_a_house_semantic/redecorating_a_house_semantic_2.png"" class=""exp-image"">
                    <div class=""question-area""></div> 
                </div>","null","","","","","","","","",""
"","","","","","html-button-response","146","430848","0.0-146.0","C30687A345194E70A003646FEB3F781B","019cf864-505f-76d5-8bf7-2ca0488d1386","019cf855-66fc-7d76-a612-8313d2c5c123","","621","
                <div class=""stimulus-container"">
                    <img src=""images/semantic_sequence/redecorating_a_house_semantic/redecorating_a_house_semantic_2.png"" class=""exp-image"">
                    <div class=""question-area"">
                        <p style=""font-size: 20px; font-weight: bold; margin: 0;"">Is there a person in this image?</p>
                    </div>
                </div>","0","main_experiment_trial","2","redecorating_a_house_semantic","semantic_sequence","","","","",""
"","","","","","html-keyboard-response","147","435860","0.0-147.0","C30687A345194E70A003646FEB3F781B","019cf864-505f-76d5-8bf7-2ca0488d1386","019cf855-66fc-7d76-a612-8313d2c5c123","","null","
                <div class=""stimulus-container"">
                    <img src=""images/semantic_sequence/redecorating_a_house_semantic/redecorating_a_house_semantic_3.png"" class=""exp-image"">
                    <div class=""question-area""></div> 
                </div>","null","","","","","","","","",""
"","","","","","html-button-response","148","436784","0.0-148.0","C30687A345194E70A003646FEB3F781B","019cf864-505f-76d5-8bf7-2ca0488d1386","019cf855-66fc-7d76-a612-8313d2c5c123","","924","
                <div class=""stimulus-container"">
                    <img src=""images/semantic_sequence/redecorating_a_house_semantic/redecorating_a_house_semantic_3.png"" class=""exp-image"">
                    <div class=""question-area"">
                        <p style=""font-size: 20px; font-weight: bold; margin: 0;"">Is there a person in this image?</p>
                    </div>
                </div>","0","main_experiment_trial","3","redecorating_a_house_semantic","semantic_sequence","","","","",""
"","","","","","html-keyboard-response","149","441801","0.0-149.0","C30687A345194E70A003646FEB3F781B","019cf864-505f-76d5-8bf7-2ca0488d1386","019cf855-66fc-7d76-a612-8313d2c5c123","","null","
                <div class=""stimulus-container"">
                    <img src=""images/semantic_sequence/redecorating_a_house_semantic/redecorating_a_house_semantic_4.png"" class=""exp-image"">
                    <div class=""question-area""></div> 
                </div>","null","","","","","","","","",""
"","","","","","html-button-response","150","442554","0.0-150.0","C30687A345194E70A003646FEB3F781B","019cf864-505f-76d5-8bf7-2ca0488d1386","019cf855-66fc-7d76-a612-8313d2c5c123","","752","
                <div class=""stimulus-container"">
                    <img src=""images/semantic_sequence/redecorating_a_house_semantic/redecorating_a_house_semantic_4.png"" class=""exp-image"">
                    <div class=""question-area"">
                        <p style=""font-size: 20px; font-weight: bold; margin: 0;"">Is there a person in this image?</p>
                    </div>
                </div>","0","main_experiment_trial","4","redecorating_a_house_semantic","semantic_sequence","","","","",""
"","","","","","html-keyboard-response","151","447561","0.0-151.0","C30687A345194E70A003646FEB3F781B","019cf864-505f-76d5-8bf7-2ca0488d1386","019cf855-66fc-7d76-a612-8313d2c5c123","","null","
                <div class=""stimulus-container"">
                    <img src=""images/semantic_sequence/redecorating_a_house_semantic/redecorating_a_house_semantic_5.png"" class=""exp-image"">
                    <div class=""question-area""></div> 
                </div>","null","","","","","","","","",""
"","","","","","html-button-response","152","448127","0.0-152.0","C30687A345194E70A003646FEB3F781B","019cf864-505f-76d5-8bf7-2ca0488d1386","019cf855-66fc-7d76-a612-8313d2c5c123","","566","
                <div class=""stimulus-container"">
                    <img src=""images/semantic_sequence/redecorating_a_house_semantic/redecorating_a_house_semantic_5.png"" class=""exp-image"">
                    <div class=""question-area"">
                        <p style=""font-size: 20px; font-weight: bold; margin: 0;"">Is there a person in this image?</p>
                    </div>
                </div>","0","main_experiment_trial","5","redecorating_a_house_semantic","semantic_sequence","","","","",""
"","","","","","html-keyboard-response","153","453138","0.0-153.0","C30687A345194E70A003646FEB3F781B","019cf864-505f-76d5-8bf7-2ca0488d1386","019cf855-66fc-7d76-a612-8313d2c5c123","","null","
                <div class=""stimulus-container"">
                    <img src=""images/semantic_sequence/redecorating_a_house_semantic/redecorating_a_house_semantic_6.png"" class=""exp-image"">
                    <div class=""question-area""></div> 
                </div>","null","","","","","","","","",""
"","","","","","html-button-response","154","453594","0.0-154.0","C30687A345194E70A003646FEB3F781B","019cf864-505f-76d5-8bf7-2ca0488d1386","019cf855-66fc-7d76-a612-8313d2c5c123","","455","
                <div class=""stimulus-container"">
                    <img src=""images/semantic_sequence/redecorating_a_house_semantic/redecorating_a_house_semantic_6.png"" class=""exp-image"">
                    <div class=""question-area"">
                        <p style=""font-size: 20px; font-weight: bold; margin: 0;"">Is there a person in this image?</p>
                    </div>
                </div>","0","main_experiment_trial","6","redecorating_a_house_semantic","semantic_sequence","","","","",""
"","","","","","html-keyboard-response","155","458609","0.0-155.0","C30687A345194E70A003646FEB3F781B","019cf864-505f-76d5-8bf7-2ca0488d1386","019cf855-66fc-7d76-a612-8313d2c5c123","","null","
                <div class=""stimulus-container"">
                    <img src=""images/semantic_sequence/redecorating_a_house_semantic/redecorating_a_house_semantic_7.png"" class=""exp-image"">
                    <div class=""question-area""></div> 
                </div>","null","","","","","","","","",""
"","","","","","html-button-response","156","459144","0.0-156.0","C30687A345194E70A003646FEB3F781B","019cf864-505f-76d5-8bf7-2ca0488d1386","019cf855-66fc-7d76-a612-8313d2c5c123","","534","
                <div class=""stimulus-container"">
                    <img src=""images/semantic_sequence/redecorating_a_house_semantic/redecorating_a_house_semantic_7.png"" class=""exp-image"">
                    <div class=""question-area"">
                        <p style=""font-size: 20px; font-weight: bold; margin: 0;"">Is there a person in this image?</p>
                    </div>
                </div>","0","main_experiment_trial","7","redecorating_a_house_semantic","semantic_sequence","","","","",""
"","","","","","html-keyboard-response","157","464160","0.0-157.0","C30687A345194E70A003646FEB3F781B","019cf864-505f-76d5-8bf7-2ca0488d1386","019cf855-66fc-7d76-a612-8313d2c5c123","","null","
                <div class=""stimulus-container"">
                    <img src=""images/semantic_sequence/redecorating_a_house_semantic/redecorating_a_house_semantic_8.png"" class=""exp-image"">
                    <div class=""question-area""></div> 
                </div>","null","","","","","","","","",""
"","","","","","html-button-response","158","464516","0.0-158.0","C30687A345194E70A003646FEB3F781B","019cf864-505f-76d5-8bf7-2ca0488d1386","019cf855-66fc-7d76-a612-8313d2c5c123","","356","
                <div class=""stimulus-container"">
                    <img src=""images/semantic_sequence/redecorating_a_house_semantic/redecorating_a_house_semantic_8.png"" class=""exp-image"">
                    <div class=""question-area"">
                        <p style=""font-size: 20px; font-weight: bold; margin: 0;"">Is there a person in this image?</p>
                    </div>
                </div>","0","main_experiment_trial","8","redecorating_a_house_semantic","semantic_sequence","","","","",""
"","","","","","html-keyboard-response","159","469523","0.0-159.0","C30687A345194E70A003646FEB3F781B","019cf864-505f-76d5-8bf7-2ca0488d1386","019cf855-66fc-7d76-a612-8313d2c5c123","","null","
                <div class=""stimulus-container"">
                    <img src=""images/semantic_sequence/redecorating_a_house_semantic/redecorating_a_house_semantic_9.png"" class=""exp-image"">
                    <div class=""question-area""></div> 
                </div>","null","","","","","","","","",""
"","","","","","html-button-response","160","469934","0.0-160.0","C30687A345194E70A003646FEB3F781B","019cf864-505f-76d5-8bf7-2ca0488d1386","019cf855-66fc-7d76-a612-8313d2c5c123","","411","
                <div class=""stimulus-container"">
                    <img src=""images/semantic_sequence/redecorating_a_house_semantic/redecorating_a_house_semantic_9.png"" class=""exp-image"">
                    <div class=""question-area"">
                        <p style=""font-size: 20px; font-weight: bold; margin: 0;"">Is there a person in this image?</p>
                    </div>
                </div>","0","main_experiment_trial","9","redecorating_a_house_semantic","semantic_sequence","","","","",""
"","","","","","html-keyboard-response","161","474948","0.0-161.0","C30687A345194E70A003646FEB3F781B","019cf864-505f-76d5-8bf7-2ca0488d1386","019cf855-66fc-7d76-a612-8313d2c5c123","","null","
                <div class=""stimulus-container"">
                    <img src=""images/semantic_sequence/redecorating_a_house_semantic/redecorating_a_house_semantic_ten.png"" class=""exp-image"">
                    <div class=""question-area""></div> 
                </div>","null","","","","","","","","",""
"","","","","","html-button-response","162","476059","0.0-162.0","C30687A345194E70A003646FEB3F781B","019cf864-505f-76d5-8bf7-2ca0488d1386","019cf855-66fc-7d76-a612-8313d2c5c123","","1111","
                <div class=""stimulus-container"">
                    <img src=""images/semantic_sequence/redecorating_a_house_semantic/redecorating_a_house_semantic_ten.png"" class=""exp-image"">
                    <div class=""question-area"">
                        <p style=""font-size: 20px; font-weight: bold; margin: 0;"">Is there a person in this image?</p>
                    </div>
                </div>","0","main_experiment_trial","ten","redecorating_a_house_semantic","semantic_sequence","","","","",""
"","","","","","html-keyboard-response","163","477068","0.0-163.0","C30687A345194E70A003646FEB3F781B","019cf864-505f-76d5-8bf7-2ca0488d1386","019cf855-66fc-7d76-a612-8313d2c5c123","","null","<div style=""background-color: white; width: 100vw; height: 100vh;""></div>","null","","","","","","","","",""
"","","","","","html-keyboard-response","164","482069","0.0-164.0","C30687A345194E70A003646FEB3F781B","019cf864-505f-76d5-8bf7-2ca0488d1386","019cf855-66fc-7d76-a612-8313d2c5c123","","null","
                <div class=""stimulus-container"">
                    <img src=""images/schematic_sequence/supermarket_scheme/supermarket_scheme_1.png"" class=""exp-image"">
                    <div class=""question-area""></div> 
                </div>","null","","","","","","","","",""
"","","","","","html-button-response","165","483324","0.0-165.0","C30687A345194E70A003646FEB3F781B","019cf864-505f-76d5-8bf7-2ca0488d1386","019cf855-66fc-7d76-a612-8313d2c5c123","","1255","
                <div class=""stimulus-container"">
                    <img src=""images/schematic_sequence/supermarket_scheme/supermarket_scheme_1.png"" class=""exp-image"">
                    <div class=""question-area"">
                        <p style=""font-size: 20px; font-weight: bold; margin: 0;"">Is there a person in this image?</p>
                    </div>
                </div>","1","main_experiment_trial","1","supermarket_scheme","schematic_sequence","","","","",""
"","","","","","html-keyboard-response","166","488328","0.0-166.0","C30687A345194E70A003646FEB3F781B","019cf864-505f-76d5-8bf7-2ca0488d1386","019cf855-66fc-7d76-a612-8313d2c5c123","","null","
                <div class=""stimulus-container"">
                    <img src=""images/schematic_sequence/supermarket_scheme/supermarket_scheme_2.png"" class=""exp-image"">
                    <div class=""question-area""></div> 
                </div>","null","","","","","","","","",""
"","","","","","html-button-response","167","490331","0.0-167.0","C30687A345194E70A003646FEB3F781B","019cf864-505f-76d5-8bf7-2ca0488d1386","019cf855-66fc-7d76-a612-8313d2c5c123","","2003","
                <div class=""stimulus-container"">
                    <img src=""images/schematic_sequence/supermarket_scheme/supermarket_scheme_2.png"" class=""exp-image"">
                    <div class=""question-area"">
                        <p style=""font-size: 20px; font-weight: bold; margin: 0;"">Is there a person in this image?</p>
                    </div>
                </div>","1","main_experiment_trial","2","supermarket_scheme","schematic_sequence","","","","",""
"","","","","","html-keyboard-response","168","495347","0.0-168.0","C30687A345194E70A003646FEB3F781B","019cf864-505f-76d5-8bf7-2ca0488d1386","019cf855-66fc-7d76-a612-8313d2c5c123","","null","
                <div class=""stimulus-container"">
                    <img src=""images/schematic_sequence/supermarket_scheme/supermarket_scheme_3.png"" class=""exp-image"">
                    <div class=""question-area""></div> 
                </div>","null","","","","","","","","",""
"","","","","","html-button-response","169","496348","0.0-169.0","C30687A345194E70A003646FEB3F781B","019cf864-505f-76d5-8bf7-2ca0488d1386","019cf855-66fc-7d76-a612-8313d2c5c123","","1001","
                <div class=""stimulus-container"">
                    <img src=""images/schematic_sequence/supermarket_scheme/supermarket_scheme_3.png"" class=""exp-image"">
                    <div class=""question-area"">
                        <p style=""font-size: 20px; font-weight: bold; margin: 0;"">Is there a person in this image?</p>
                    </div>
                </div>","1","main_experiment_trial","3","supermarket_scheme","schematic_sequence","","","","",""
"","","","","","html-keyboard-response","170","501355","0.0-170.0","C30687A345194E70A003646FEB3F781B","019cf864-505f-76d5-8bf7-2ca0488d1386","019cf855-66fc-7d76-a612-8313d2c5c123","","null","
                <div class=""stimulus-container"">
                    <img src=""images/schematic_sequence/supermarket_scheme/supermarket_scheme_4.png"" class=""exp-image"">
                    <div class=""question-area""></div> 
                </div>","null","","","","","","","","",""
"","","","","","html-button-response","171","501966","0.0-171.0","C30687A345194E70A003646FEB3F781B","019cf864-505f-76d5-8bf7-2ca0488d1386","019cf855-66fc-7d76-a612-8313d2c5c123","","611","
                <div class=""stimulus-container"">
                    <img src=""images/schematic_sequence/supermarket_scheme/supermarket_scheme_4.png"" class=""exp-image"">
                    <div class=""question-area"">
                        <p style=""font-size: 20px; font-weight: bold; margin: 0;"">Is there a person in this image?</p>
                    </div>
                </div>","0","main_experiment_trial","4","supermarket_scheme","schematic_sequence","","","","",""
"","","","","","html-keyboard-response","172","506977","0.0-172.0","C30687A345194E70A003646FEB3F781B","019cf864-505f-76d5-8bf7-2ca0488d1386","019cf855-66fc-7d76-a612-8313d2c5c123","","null","
                <div class=""stimulus-container"">
                    <img src=""images/schematic_sequence/supermarket_scheme/supermarket_scheme_5.png"" class=""exp-image"">
                    <div class=""question-area""></div> 
                </div>","null","","","","","","","","",""
"","","","","","html-button-response","173","508140","0.0-173.0","C30687A345194E70A003646FEB3F781B","019cf864-505f-76d5-8bf7-2ca0488d1386","019cf855-66fc-7d76-a612-8313d2c5c123","","1163","
                <div class=""stimulus-container"">
                    <img src=""images/schematic_sequence/supermarket_scheme/supermarket_scheme_5.png"" class=""exp-image"">
                    <div class=""question-area"">
                        <p style=""font-size: 20px; font-weight: bold; margin: 0;"">Is there a person in this image?</p>
                    </div>
                </div>","1","main_experiment_trial","5","supermarket_scheme","schematic_sequence","","","","",""
"","","","","","html-keyboard-response","174","513147","0.0-174.0","C30687A345194E70A003646FEB3F781B","019cf864-505f-76d5-8bf7-2ca0488d1386","019cf855-66fc-7d76-a612-8313d2c5c123","","null","
                <div class=""stimulus-container"">
                    <img src=""images/schematic_sequence/supermarket_scheme/supermarket_scheme_6.png"" class=""exp-image"">
                    <div class=""question-area""></div> 
                </div>","null","","","","","","","","",""
"","","","","","html-button-response","175","513526","0.0-175.0","C30687A345194E70A003646FEB3F781B","019cf864-505f-76d5-8bf7-2ca0488d1386","019cf855-66fc-7d76-a612-8313d2c5c123","","378","
                <div class=""stimulus-container"">
                    <img src=""images/schematic_sequence/supermarket_scheme/supermarket_scheme_6.png"" class=""exp-image"">
                    <div class=""question-area"">
                        <p style=""font-size: 20px; font-weight: bold; margin: 0;"">Is there a person in this image?</p>
                    </div>
                </div>","0","main_experiment_trial","6","supermarket_scheme","schematic_sequence","","","","",""
"","","","","","html-keyboard-response","176","518542","0.0-176.0","C30687A345194E70A003646FEB3F781B","019cf864-505f-76d5-8bf7-2ca0488d1386","019cf855-66fc-7d76-a612-8313d2c5c123","","null","
                <div class=""stimulus-container"">
                    <img src=""images/schematic_sequence/supermarket_scheme/supermarket_scheme_7.png"" class=""exp-image"">
                    <div class=""question-area""></div> 
                </div>","null","","","","","","","","",""
"","","","","","html-button-response","177","518930","0.0-177.0","C30687A345194E70A003646FEB3F781B","019cf864-505f-76d5-8bf7-2ca0488d1386","019cf855-66fc-7d76-a612-8313d2c5c123","","387","
                <div class=""stimulus-container"">
                    <img src=""images/schematic_sequence/supermarket_scheme/supermarket_scheme_7.png"" class=""exp-image"">
                    <div class=""question-area"">
                        <p style=""font-size: 20px; font-weight: bold; margin: 0;"">Is there a person in this image?</p>
                    </div>
                </div>","0","main_experiment_trial","7","supermarket_scheme","schematic_sequence","","","","",""
"","","","","","html-keyboard-response","178","523944","0.0-178.0","C30687A345194E70A003646FEB3F781B","019cf864-505f-76d5-8bf7-2ca0488d1386","019cf855-66fc-7d76-a612-8313d2c5c123","","null","
                <div class=""stimulus-container"">
                    <img src=""images/schematic_sequence/supermarket_scheme/supermarket_scheme_8.png"" class=""exp-image"">
                    <div class=""question-area""></div> 
                </div>","null","","","","","","","","",""
"","","","","","html-button-response","179","524310","0.0-179.0","C30687A345194E70A003646FEB3F781B","019cf864-505f-76d5-8bf7-2ca0488d1386","019cf855-66fc-7d76-a612-8313d2c5c123","","365","
                <div class=""stimulus-container"">
                    <img src=""images/schematic_sequence/supermarket_scheme/supermarket_scheme_8.png"" class=""exp-image"">
                    <div class=""question-area"">
                        <p style=""font-size: 20px; font-weight: bold; margin: 0;"">Is there a person in this image?</p>
                    </div>
                </div>","0","main_experiment_trial","8","supermarket_scheme","schematic_sequence","","","","",""
"","","","","","html-keyboard-response","180","529320","0.0-180.0","C30687A345194E70A003646FEB3F781B","019cf864-505f-76d5-8bf7-2ca0488d1386","019cf855-66fc-7d76-a612-8313d2c5c123","","null","
                <div class=""stimulus-container"">
                    <img src=""images/schematic_sequence/supermarket_scheme/supermarket_scheme_9.png"" class=""exp-image"">
                    <div class=""question-area""></div> 
                </div>","null","","","","","","","","",""
"","","","","","html-button-response","181","529808","0.0-181.0","C30687A345194E70A003646FEB3F781B","019cf864-505f-76d5-8bf7-2ca0488d1386","019cf855-66fc-7d76-a612-8313d2c5c123","","487","
                <div class=""stimulus-container"">
                    <img src=""images/schematic_sequence/supermarket_scheme/supermarket_scheme_9.png"" class=""exp-image"">
