"success","timeout","failed_images","failed_audio","failed_video","trial_type","trial_index","time_elapsed","internal_node_id","subject_id","study_id","session_id","view_history","rt","stimulus","response","task","image_index","folder","sequence_type","valuable_image_index","reward_type","left_idx","right_idx","lucky_X","chosen_image_index","distance_from_X","left_image_index","right_image_index"
"true","false","[]","[]","[]","preload","0","17996","0.0-0.0","AD8A0E02A1CE4C1BA1E09335BB8CB4BE","019cea5d-a915-7348-a336-d5fd80b93284","019cea5b-a1d2-7168-a211-b4d8162559a9","","","","","","","","","","","","","","","","",""
"","","","","","instructions","1","21244","0.0-1.0","AD8A0E02A1CE4C1BA1E09335BB8CB4BE","019cea5d-a915-7348-a336-d5fd80b93284","019cea5b-a1d2-7168-a211-b4d8162559a9","[{""page_index"":0,""viewing_time"":3247}]","3247","","","","","","","","","","","","","","",""
"","","","","","instructions","2","34642","0.0-2.0","AD8A0E02A1CE4C1BA1E09335BB8CB4BE","019cea5d-a915-7348-a336-d5fd80b93284","019cea5b-a1d2-7168-a211-b4d8162559a9","[{""page_index"":0,""viewing_time"":13396}]","13397","","","","","","","","","","","","","","",""
"true","","","","","fullscreen","3","37844","0.0-3.0","AD8A0E02A1CE4C1BA1E09335BB8CB4BE","019cea5d-a915-7348-a336-d5fd80b93284","019cea5b-a1d2-7168-a211-b4d8162559a9","","2197","","","","","","","","","","","","","","",""
"","","","","","instructions","4","52176","0.0-4.0","AD8A0E02A1CE4C1BA1E09335BB8CB4BE","019cea5d-a915-7348-a336-d5fd80b93284","019cea5b-a1d2-7168-a211-b4d8162559a9","[{""page_index"":0,""viewing_time"":14329}]","14329","","","","","","","","","","","","","","",""
"","","","","","instructions","5","67006","0.0-5.0","AD8A0E02A1CE4C1BA1E09335BB8CB4BE","019cea5d-a915-7348-a336-d5fd80b93284","019cea5b-a1d2-7168-a211-b4d8162559a9","[{""page_index"":0,""viewing_time"":14830}]","14830","","","","","","","","","","","","","","",""
"","","","","","html-keyboard-response","6","71009","0.0-6.0","AD8A0E02A1CE4C1BA1E09335BB8CB4BE","019cea5d-a915-7348-a336-d5fd80b93284","019cea5b-a1d2-7168-a211-b4d8162559a9","","null","
                <div class=""stimulus-container"">
                    <img src=""images/instructions/movie_1.png"" class=""exp-image"">
                    <div class=""question-area""></div> 
                </div>","null","","","","","","","","","","","","",""
"","","","","","html-button-response","7","73575","0.0-7.0","AD8A0E02A1CE4C1BA1E09335BB8CB4BE","019cea5d-a915-7348-a336-d5fd80b93284","019cea5b-a1d2-7168-a211-b4d8162559a9","","2564","
                <div class=""stimulus-container"">
                    <img src=""images/instructions/movie_1.png"" class=""exp-image"">
                    <div class=""question-area"">
                        <p style=""font-size: 20px; font-weight: bold; margin: 0;"">Was there a person in this image?</p>
                    </div>
                </div>","0","example_question","1","","","","","","","","","","",""
"","","","","","html-keyboard-response","8","77578","0.0-8.0","AD8A0E02A1CE4C1BA1E09335BB8CB4BE","019cea5d-a915-7348-a336-d5fd80b93284","019cea5b-a1d2-7168-a211-b4d8162559a9","","null","
                <div class=""stimulus-container"">
                    <img src=""images/instructions/movie_2.png"" class=""exp-image"">
                    <div class=""question-area""></div> 
                </div>","null","","","","","","","","","","","","",""
"","","","","","html-button-response","9","78826","0.0-9.0","AD8A0E02A1CE4C1BA1E09335BB8CB4BE","019cea5d-a915-7348-a336-d5fd80b93284","019cea5b-a1d2-7168-a211-b4d8162559a9","","1245","
                <div class=""stimulus-container"">
                    <img src=""images/instructions/movie_2.png"" class=""exp-image"">
                    <div class=""question-area"">
                        <p style=""font-size: 20px; font-weight: bold; margin: 0;"">Was there a person in this image?</p>
                    </div>
                </div>","0","example_question","2","","","","","","","","","","",""
"","","","","","html-keyboard-response","10","82828","0.0-10.0","AD8A0E02A1CE4C1BA1E09335BB8CB4BE","019cea5d-a915-7348-a336-d5fd80b93284","019cea5b-a1d2-7168-a211-b4d8162559a9","","null","
                <div class=""stimulus-container"">
                    <img src=""images/instructions/movie_3.png"" class=""exp-image"">
                    <div class=""question-area""></div> 
                </div>","null","","","","","","","","","","","","",""
"","","","","","html-button-response","11","84108","0.0-11.0","AD8A0E02A1CE4C1BA1E09335BB8CB4BE","019cea5d-a915-7348-a336-d5fd80b93284","019cea5b-a1d2-7168-a211-b4d8162559a9","","1279","
                <div class=""stimulus-container"">
                    <img src=""images/instructions/movie_3.png"" class=""exp-image"">
                    <div class=""question-area"">
                        <p style=""font-size: 20px; font-weight: bold; margin: 0;"">Was there a person in this image?</p>
                    </div>
                </div>","0","example_question","3","","","","","","","","","","",""
"","","","","","html-keyboard-response","12","88111","0.0-12.0","AD8A0E02A1CE4C1BA1E09335BB8CB4BE","019cea5d-a915-7348-a336-d5fd80b93284","019cea5b-a1d2-7168-a211-b4d8162559a9","","null","
                <div class=""stimulus-container"">
                    <img src=""images/instructions/movie_4.png"" class=""exp-image"">
                    <div class=""question-area""></div> 
                </div>","null","","","","","","","","","","","","",""
"","","","","","html-button-response","13","89292","0.0-13.0","AD8A0E02A1CE4C1BA1E09335BB8CB4BE","019cea5d-a915-7348-a336-d5fd80b93284","019cea5b-a1d2-7168-a211-b4d8162559a9","","1179","
                <div class=""stimulus-container"">
                    <img src=""images/instructions/movie_4.png"" class=""exp-image"">
                    <div class=""question-area"">
                        <p style=""font-size: 20px; font-weight: bold; margin: 0;"">Was there a person in this image?</p>
                    </div>
                </div>","0","example_question","4","","","","","","","","","","",""
"","","","","","instructions","14","91392","0.0-14.0","AD8A0E02A1CE4C1BA1E09335BB8CB4BE","019cea5d-a915-7348-a336-d5fd80b93284","019cea5b-a1d2-7168-a211-b4d8162559a9","[{""page_index"":0,""viewing_time"":2099}]","2099","","","","","","","","","","","","","","",""
"","","","","","html-keyboard-response","15","92395","0.0-15.0","AD8A0E02A1CE4C1BA1E09335BB8CB4BE","019cea5d-a915-7348-a336-d5fd80b93284","019cea5b-a1d2-7168-a211-b4d8162559a9","","null","<div style=""background-color: white; width: 100vw; height: 100vh;""></div>","null","","","","","","","","","","","","",""
"","","","","","html-keyboard-response","16","97398","0.0-16.0","AD8A0E02A1CE4C1BA1E09335BB8CB4BE","019cea5d-a915-7348-a336-d5fd80b93284","019cea5b-a1d2-7168-a211-b4d8162559a9","","null","
                <div class=""stimulus-container"">
                    <img src=""images/semantic_sequence/redecorating_a_house_semantic/redecorating_a_house_semantic_1.png"" class=""exp-image"">
                    <div class=""question-area""></div> 
                </div>","null","","","","","","","","","","","","",""
"","","","","","html-button-response","17","99841","0.0-17.0","AD8A0E02A1CE4C1BA1E09335BB8CB4BE","019cea5d-a915-7348-a336-d5fd80b93284","019cea5b-a1d2-7168-a211-b4d8162559a9","","2440","
                <div class=""stimulus-container"">
                    <img src=""images/semantic_sequence/redecorating_a_house_semantic/redecorating_a_house_semantic_1.png"" class=""exp-image"">
                    <div class=""question-area"">
                        <p style=""font-size: 20px; font-weight: bold; margin: 0;"">Is there a person in this image?</p>
                    </div>
                </div>","0","main_experiment_trial","1","redecorating_a_house_semantic","semantic_sequence","","","","","","","","",""
"","","","","","html-keyboard-response","18","104843","0.0-18.0","AD8A0E02A1CE4C1BA1E09335BB8CB4BE","019cea5d-a915-7348-a336-d5fd80b93284","019cea5b-a1d2-7168-a211-b4d8162559a9","","null","
                <div class=""stimulus-container"">
                    <img src=""images/semantic_sequence/redecorating_a_house_semantic/redecorating_a_house_semantic_2.png"" class=""exp-image"">
                    <div class=""question-area""></div> 
                </div>","null","","","","","","","","","","","","",""
"","","","","","html-button-response","19","106607","0.0-19.0","AD8A0E02A1CE4C1BA1E09335BB8CB4BE","019cea5d-a915-7348-a336-d5fd80b93284","019cea5b-a1d2-7168-a211-b4d8162559a9","","1763","
                <div class=""stimulus-container"">
                    <img src=""images/semantic_sequence/redecorating_a_house_semantic/redecorating_a_house_semantic_2.png"" class=""exp-image"">
                    <div class=""question-area"">
                        <p style=""font-size: 20px; font-weight: bold; margin: 0;"">Is there a person in this image?</p>
                    </div>
                </div>","0","main_experiment_trial","2","redecorating_a_house_semantic","semantic_sequence","","","","","","","","",""
"","","","","","html-keyboard-response","20","111609","0.0-20.0","AD8A0E02A1CE4C1BA1E09335BB8CB4BE","019cea5d-a915-7348-a336-d5fd80b93284","019cea5b-a1d2-7168-a211-b4d8162559a9","","null","
                <div class=""stimulus-container"">
                    <img src=""images/semantic_sequence/redecorating_a_house_semantic/redecorating_a_house_semantic_3.png"" class=""exp-image"">
                    <div class=""question-area""></div> 
                </div>","null","","","","","","","","","","","","",""
"","","","","","html-button-response","21","112543","0.0-21.0","AD8A0E02A1CE4C1BA1E09335BB8CB4BE","019cea5d-a915-7348-a336-d5fd80b93284","019cea5b-a1d2-7168-a211-b4d8162559a9","","932","
                <div class=""stimulus-container"">
                    <img src=""images/semantic_sequence/redecorating_a_house_semantic/redecorating_a_house_semantic_3.png"" class=""exp-image"">
                    <div class=""question-area"">
                        <p style=""font-size: 20px; font-weight: bold; margin: 0;"">Is there a person in this image?</p>
                    </div>
                </div>","0","main_experiment_trial","3","redecorating_a_house_semantic","semantic_sequence","","","","","","","","",""
"","","","","","html-keyboard-response","22","117546","0.0-22.0","AD8A0E02A1CE4C1BA1E09335BB8CB4BE","019cea5d-a915-7348-a336-d5fd80b93284","019cea5b-a1d2-7168-a211-b4d8162559a9","","null","
                <div class=""stimulus-container"">
                    <img src=""images/semantic_sequence/redecorating_a_house_semantic/redecorating_a_house_semantic_4.png"" class=""exp-image"">
                    <div class=""question-area""></div> 
                </div>","null","","","","","","","","","","","","",""
"","","","","","html-button-response","23","118674","0.0-23.0","AD8A0E02A1CE4C1BA1E09335BB8CB4BE","019cea5d-a915-7348-a336-d5fd80b93284","019cea5b-a1d2-7168-a211-b4d8162559a9","","1127","
                <div class=""stimulus-container"">
                    <img src=""images/semantic_sequence/redecorating_a_house_semantic/redecorating_a_house_semantic_4.png"" class=""exp-image"">
                    <div class=""question-area"">
                        <p style=""font-size: 20px; font-weight: bold; margin: 0;"">Is there a person in this image?</p>
                    </div>
                </div>","0","main_experiment_trial","4","redecorating_a_house_semantic","semantic_sequence","","","","","","","","",""
"","","","","","html-keyboard-response","24","123675","0.0-24.0","AD8A0E02A1CE4C1BA1E09335BB8CB4BE","019cea5d-a915-7348-a336-d5fd80b93284","019cea5b-a1d2-7168-a211-b4d8162559a9","","null","
                <div class=""stimulus-container"">
                    <img src=""images/semantic_sequence/redecorating_a_house_semantic/redecorating_a_house_semantic_5.png"" class=""exp-image"">
                    <div class=""question-area""></div> 
                </div>","null","","","","","","","","","","","","",""
"","","","","","html-button-response","25","125292","0.0-25.0","AD8A0E02A1CE4C1BA1E09335BB8CB4BE","019cea5d-a915-7348-a336-d5fd80b93284","019cea5b-a1d2-7168-a211-b4d8162559a9","","1615","
                <div class=""stimulus-container"">
                    <img src=""images/semantic_sequence/redecorating_a_house_semantic/redecorating_a_house_semantic_5.png"" class=""exp-image"">
                    <div class=""question-area"">
                        <p style=""font-size: 20px; font-weight: bold; margin: 0;"">Is there a person in this image?</p>
                    </div>
                </div>","0","main_experiment_trial","5","redecorating_a_house_semantic","semantic_sequence","","","","","","","","",""
"","","","","","html-keyboard-response","26","130294","0.0-26.0","AD8A0E02A1CE4C1BA1E09335BB8CB4BE","019cea5d-a915-7348-a336-d5fd80b93284","019cea5b-a1d2-7168-a211-b4d8162559a9","","null","
                <div class=""stimulus-container"">
                    <img src=""images/semantic_sequence/redecorating_a_house_semantic/redecorating_a_house_semantic_6.png"" class=""exp-image"">
                    <div class=""question-area""></div> 
                </div>","null","","","","","","","","","","","","",""
"","","","","","html-button-response","27","131875","0.0-27.0","AD8A0E02A1CE4C1BA1E09335BB8CB4BE","019cea5d-a915-7348-a336-d5fd80b93284","019cea5b-a1d2-7168-a211-b4d8162559a9","","1579","
                <div class=""stimulus-container"">
                    <img src=""images/semantic_sequence/redecorating_a_house_semantic/redecorating_a_house_semantic_6.png"" class=""exp-image"">
                    <div class=""question-area"">
                        <p style=""font-size: 20px; font-weight: bold; margin: 0;"">Is there a person in this image?</p>
                    </div>
                </div>","0","main_experiment_trial","6","redecorating_a_house_semantic","semantic_sequence","","","","","","","","",""
"","","","","","html-keyboard-response","28","136878","0.0-28.0","AD8A0E02A1CE4C1BA1E09335BB8CB4BE","019cea5d-a915-7348-a336-d5fd80b93284","019cea5b-a1d2-7168-a211-b4d8162559a9","","null","
                <div class=""stimulus-container"">
                    <img src=""images/semantic_sequence/redecorating_a_house_semantic/redecorating_a_house_semantic_7.png"" class=""exp-image"">
                    <div class=""question-area""></div> 
                </div>","null","","","","","","","","","","","","",""
"","","","","","html-button-response","29","138174","0.0-29.0","AD8A0E02A1CE4C1BA1E09335BB8CB4BE","019cea5d-a915-7348-a336-d5fd80b93284","019cea5b-a1d2-7168-a211-b4d8162559a9","","1294","
                <div class=""stimulus-container"">
                    <img src=""images/semantic_sequence/redecorating_a_house_semantic/redecorating_a_house_semantic_7.png"" class=""exp-image"">
                    <div class=""question-area"">
                        <p style=""font-size: 20px; font-weight: bold; margin: 0;"">Is there a person in this image?</p>
                    </div>
                </div>","0","main_experiment_trial","7","redecorating_a_house_semantic","semantic_sequence","","","","","","","","",""
"","","","","","html-keyboard-response","30","143177","0.0-30.0","AD8A0E02A1CE4C1BA1E09335BB8CB4BE","019cea5d-a915-7348-a336-d5fd80b93284","019cea5b-a1d2-7168-a211-b4d8162559a9","","null","
                <div class=""stimulus-container"">
                    <img src=""images/semantic_sequence/redecorating_a_house_semantic/redecorating_a_house_semantic_8.png"" class=""exp-image"">
                    <div class=""question-area""></div> 
                </div>","null","","","","","","","","","","","","",""
"","","","","","html-button-response","31","146025","0.0-31.0","AD8A0E02A1CE4C1BA1E09335BB8CB4BE","019cea5d-a915-7348-a336-d5fd80b93284","019cea5b-a1d2-7168-a211-b4d8162559a9","","2845","
                <div class=""stimulus-container"">
                    <img src=""images/semantic_sequence/redecorating_a_house_semantic/redecorating_a_house_semantic_8.png"" class=""exp-image"">
                    <div class=""question-area"">
                        <p style=""font-size: 20px; font-weight: bold; margin: 0;"">Is there a person in this image?</p>
                    </div>
                </div>","0","main_experiment_trial","8","redecorating_a_house_semantic","semantic_sequence","","","","","","","","",""
"","","","","","html-keyboard-response","32","151027","0.0-32.0","AD8A0E02A1CE4C1BA1E09335BB8CB4BE","019cea5d-a915-7348-a336-d5fd80b93284","019cea5b-a1d2-7168-a211-b4d8162559a9","","null","
                <div class=""stimulus-container"">
                    <img src=""images/semantic_sequence/redecorating_a_house_semantic/redecorating_a_house_semantic_9.png"" class=""exp-image"">
                    <div class=""question-area""></div> 
                </div>","null","","","","","","","","","","","","",""
"","","","","","html-button-response","33","152675","0.0-33.0","AD8A0E02A1CE4C1BA1E09335BB8CB4BE","019cea5d-a915-7348-a336-d5fd80b93284","019cea5b-a1d2-7168-a211-b4d8162559a9","","1647","
                <div class=""stimulus-container"">
                    <img src=""images/semantic_sequence/redecorating_a_house_semantic/redecorating_a_house_semantic_9.png"" class=""exp-image"">
                    <div class=""question-area"">
                        <p style=""font-size: 20px; font-weight: bold; margin: 0;"">Is there a person in this image?</p>
                    </div>
                </div>","0","main_experiment_trial","9","redecorating_a_house_semantic","semantic_sequence","","","","","","","","",""
"","","","","","html-keyboard-response","34","157677","0.0-34.0","AD8A0E02A1CE4C1BA1E09335BB8CB4BE","019cea5d-a915-7348-a336-d5fd80b93284","019cea5b-a1d2-7168-a211-b4d8162559a9","","null","
                <div class=""stimulus-container"">
                    <img src=""images/semantic_sequence/redecorating_a_house_semantic/redecorating_a_house_semantic_ten.png"" class=""exp-image"">
                    <div class=""question-area""></div> 
                </div>","null","","","","","","","","","","","","",""
"","","","","","html-button-response","35","158507","0.0-35.0","AD8A0E02A1CE4C1BA1E09335BB8CB4BE","019cea5d-a915-7348-a336-d5fd80b93284","019cea5b-a1d2-7168-a211-b4d8162559a9","","829","
                <div class=""stimulus-container"">
                    <img src=""images/semantic_sequence/redecorating_a_house_semantic/redecorating_a_house_semantic_ten.png"" class=""exp-image"">
                    <div class=""question-area"">
                        <p style=""font-size: 20px; font-weight: bold; margin: 0;"">Is there a person in this image?</p>
                    </div>
                </div>","0","main_experiment_trial","ten","redecorating_a_house_semantic","semantic_sequence","","","","","","","","",""
"","","","","","html-keyboard-response","36","159510","0.0-36.0","AD8A0E02A1CE4C1BA1E09335BB8CB4BE","019cea5d-a915-7348-a336-d5fd80b93284","019cea5b-a1d2-7168-a211-b4d8162559a9","","null","<div style=""background-color: white; width: 100vw; height: 100vh;""></div>","null","","","","","","","","","","","","",""
"","","","","","html-keyboard-response","37","164512","0.0-37.0","AD8A0E02A1CE4C1BA1E09335BB8CB4BE","019cea5d-a915-7348-a336-d5fd80b93284","019cea5b-a1d2-7168-a211-b4d8162559a9","","null","
                <div class=""stimulus-container"">
                    <img src=""images/causal_sequence/museum_causal/museum_causal_1.png"" class=""exp-image"">
                    <div class=""question-area""></div> 
                </div>","null","","","","","","","","","","","","",""
"","","","","","html-button-response","38","165457","0.0-38.0","AD8A0E02A1CE4C1BA1E09335BB8CB4BE","019cea5d-a915-7348-a336-d5fd80b93284","019cea5b-a1d2-7168-a211-b4d8162559a9","","944","
                <div class=""stimulus-container"">
                    <img src=""images/causal_sequence/museum_causal/museum_causal_1.png"" class=""exp-image"">
                    <div class=""question-area"">
                        <p style=""font-size: 20px; font-weight: bold; margin: 0;"">Is there a person in this image?</p>
                    </div>
                </div>","0","main_experiment_trial","1","museum_causal","causal_sequence","","","","","","","","",""
"","","","","","html-keyboard-response","39","170459","0.0-39.0","AD8A0E02A1CE4C1BA1E09335BB8CB4BE","019cea5d-a915-7348-a336-d5fd80b93284","019cea5b-a1d2-7168-a211-b4d8162559a9","","null","
                <div class=""stimulus-container"">
                    <img src=""images/causal_sequence/museum_causal/museum_causal_2.png"" class=""exp-image"">
                    <div class=""question-area""></div> 
                </div>","null","","","","","","","","","","","","",""
"","","","","","html-button-response","40","173461","0.0-40.0","AD8A0E02A1CE4C1BA1E09335BB8CB4BE","019cea5d-a915-7348-a336-d5fd80b93284","019cea5b-a1d2-7168-a211-b4d8162559a9","","null","
                <div class=""stimulus-container"">
                    <img src=""images/causal_sequence/museum_causal/museum_causal_2.png"" class=""exp-image"">
                    <div class=""question-area"">
                        <p style=""font-size: 20px; font-weight: bold; margin: 0;"">Is there a person in this image?</p>
                    </div>
                </div>","null","main_experiment_trial","2","museum_causal","causal_sequence","","","","","","","","",""
"","","","","","html-keyboard-response","41","178463","0.0-41.0","AD8A0E02A1CE4C1BA1E09335BB8CB4BE","019cea5d-a915-7348-a336-d5fd80b93284","019cea5b-a1d2-7168-a211-b4d8162559a9","","null","
                <div class=""stimulus-container"">
                    <img src=""images/causal_sequence/museum_causal/museum_causal_3.png"" class=""exp-image"">
                    <div class=""question-area""></div> 
                </div>","null","","","","","","","","","","","","",""
"","","","","","html-button-response","42","179972","0.0-42.0","AD8A0E02A1CE4C1BA1E09335BB8CB4BE","019cea5d-a915-7348-a336-d5fd80b93284","019cea5b-a1d2-7168-a211-b4d8162559a9","","1508","
                <div class=""stimulus-container"">
                    <img src=""images/causal_sequence/museum_causal/museum_causal_3.png"" class=""exp-image"">
                    <div class=""question-area"">
                        <p style=""font-size: 20px; font-weight: bold; margin: 0;"">Is there a person in this image?</p>
                    </div>
                </div>","0","main_experiment_trial","3","museum_causal","causal_sequence","","","","","","","","",""
"","","","","","html-keyboard-response","43","184974","0.0-43.0","AD8A0E02A1CE4C1BA1E09335BB8CB4BE","019cea5d-a915-7348-a336-d5fd80b93284","019cea5b-a1d2-7168-a211-b4d8162559a9","","null","
                <div class=""stimulus-container"">
                    <img src=""images/causal_sequence/museum_causal/museum_causal_4.png"" class=""exp-image"">
                    <div class=""question-area""></div> 
                </div>","null","","","","","","","","","","","","",""
"","","","","","html-button-response","44","186440","0.0-44.0","AD8A0E02A1CE4C1BA1E09335BB8CB4BE","019cea5d-a915-7348-a336-d5fd80b93284","019cea5b-a1d2-7168-a211-b4d8162559a9","","1465","
                <div class=""stimulus-container"">
                    <img src=""images/causal_sequence/museum_causal/museum_causal_4.png"" class=""exp-image"">
                    <div class=""question-area"">
                        <p style=""font-size: 20px; font-weight: bold; margin: 0;"">Is there a person in this image?</p>
                    </div>
                </div>","1","main_experiment_trial","4","museum_causal","causal_sequence","","","","","","","","",""
"","","","","","html-keyboard-response","45","191443","0.0-45.0","AD8A0E02A1CE4C1BA1E09335BB8CB4BE","019cea5d-a915-7348-a336-d5fd80b93284","019cea5b-a1d2-7168-a211-b4d8162559a9","","null","
                <div class=""stimulus-container"">
                    <img src=""images/causal_sequence/museum_causal/museum_causal_5.png"" class=""exp-image"">
                    <div class=""question-area""></div> 
                </div>","null","","","","","","","","","","","","",""
"","","","","","html-button-response","46","192608","0.0-46.0","AD8A0E02A1CE4C1BA1E09335BB8CB4BE","019cea5d-a915-7348-a336-d5fd80b93284","019cea5b-a1d2-7168-a211-b4d8162559a9","","1162","
                <div class=""stimulus-container"">
                    <img src=""images/causal_sequence/museum_causal/museum_causal_5.png"" class=""exp-image"">
                    <div class=""question-area"">
                        <p style=""font-size: 20px; font-weight: bold; margin: 0;"">Is there a person in this image?</p>
                    </div>
                </div>","0","main_experiment_trial","5","museum_causal","causal_sequence","","","","","","","","",""
"","","","","","html-keyboard-response","47","197611","0.0-47.0","AD8A0E02A1CE4C1BA1E09335BB8CB4BE","019cea5d-a915-7348-a336-d5fd80b93284","019cea5b-a1d2-7168-a211-b4d8162559a9","","null","
                <div class=""stimulus-container"">
                    <img src=""images/causal_sequence/museum_causal/museum_causal_6.png"" class=""exp-image"">
                    <div class=""question-area""></div> 
                </div>","null","","","","","","","","","","","","",""
"","","","","","html-button-response","48","198507","0.0-48.0","AD8A0E02A1CE4C1BA1E09335BB8CB4BE","019cea5d-a915-7348-a336-d5fd80b93284","019cea5b-a1d2-7168-a211-b4d8162559a9","","895","
                <div class=""stimulus-container"">
                    <img src=""images/causal_sequence/museum_causal/museum_causal_6.png"" class=""exp-image"">
                    <div class=""question-area"">
                        <p style=""font-size: 20px; font-weight: bold; margin: 0;"">Is there a person in this image?</p>
                    </div>
                </div>","0","main_experiment_trial","6","museum_causal","causal_sequence","","","","","","","","",""
"","","","","","html-keyboard-response","49","203510","0.0-49.0","AD8A0E02A1CE4C1BA1E09335BB8CB4BE","019cea5d-a915-7348-a336-d5fd80b93284","019cea5b-a1d2-7168-a211-b4d8162559a9","","null","
                <div class=""stimulus-container"">
                    <img src=""images/causal_sequence/museum_causal/museum_causal_7.png"" class=""exp-image"">
                    <div class=""question-area""></div> 
                </div>","null","","","","","","","","","","","","",""
"","","","","","html-button-response","50","204374","0.0-50.0","AD8A0E02A1CE4C1BA1E09335BB8CB4BE","019cea5d-a915-7348-a336-d5fd80b93284","019cea5b-a1d2-7168-a211-b4d8162559a9","","862","
                <div class=""stimulus-container"">
                    <img src=""images/causal_sequence/museum_causal/museum_causal_7.png"" class=""exp-image"">
                    <div class=""question-area"">
                        <p style=""font-size: 20px; font-weight: bold; margin: 0;"">Is there a person in this image?</p>
                    </div>
                </div>","1","main_experiment_trial","7","museum_causal","causal_sequence","","","","","","","","",""
"","","","","","html-keyboard-response","51","209378","0.0-51.0","AD8A0E02A1CE4C1BA1E09335BB8CB4BE","019cea5d-a915-7348-a336-d5fd80b93284","019cea5b-a1d2-7168-a211-b4d8162559a9","","null","
                <div class=""stimulus-container"">
                    <img src=""images/causal_sequence/museum_causal/museum_causal_8.png"" class=""exp-image"">
                    <div class=""question-area""></div> 
                </div>","null","","","","","","","","","","","","",""
"","","","","","html-button-response","52","210727","0.0-52.0","AD8A0E02A1CE4C1BA1E09335BB8CB4BE","019cea5d-a915-7348-a336-d5fd80b93284","019cea5b-a1d2-7168-a211-b4d8162559a9","","1346","
                <div class=""stimulus-container"">
                    <img src=""images/causal_sequence/museum_causal/museum_causal_8.png"" class=""exp-image"">
                    <div class=""question-area"">
                        <p style=""font-size: 20px; font-weight: bold; margin: 0;"">Is there a person in this image?</p>
                    </div>
                </div>","0","main_experiment_trial","8","museum_causal","causal_sequence","","","","","","","","",""
"","","","","","html-keyboard-response","53","215731","0.0-53.0","AD8A0E02A1CE4C1BA1E09335BB8CB4BE","019cea5d-a915-7348-a336-d5fd80b93284","019cea5b-a1d2-7168-a211-b4d8162559a9","","null","
                <div class=""stimulus-container"">
                    <img src=""images/causal_sequence/museum_causal/museum_causal_9.png"" class=""exp-image"">
                    <div class=""question-area""></div> 
                </div>","null","","","","","","","","","","","","",""
"","","","","","html-button-response","54","217023","0.0-54.0","AD8A0E02A1CE4C1BA1E09335BB8CB4BE","019cea5d-a915-7348-a336-d5fd80b93284","019cea5b-a1d2-7168-a211-b4d8162559a9","","1290","
                <div class=""stimulus-container"">
                    <img src=""images/causal_sequence/museum_causal/museum_causal_9.png"" class=""exp-image"">
                    <div class=""question-area"">
                        <p style=""font-size: 20px; font-weight: bold; margin: 0;"">Is there a person in this image?</p>
                    </div>
                </div>","1","main_experiment_trial","9","museum_causal","causal_sequence","","","","","","","","",""
"","","","","","html-keyboard-response","55","222024","0.0-55.0","AD8A0E02A1CE4C1BA1E09335BB8CB4BE","019cea5d-a915-7348-a336-d5fd80b93284","019cea5b-a1d2-7168-a211-b4d8162559a9","","null","
                <div class=""stimulus-container"">
                    <img src=""images/causal_sequence/museum_causal/museum_causal_ten.png"" class=""exp-image"">
                    <div class=""question-area""></div> 
                </div>","null","","","","","","","","","","","","",""
"","","","","","html-button-response","56","222792","0.0-56.0","AD8A0E02A1CE4C1BA1E09335BB8CB4BE","019cea5d-a915-7348-a336-d5fd80b93284","019cea5b-a1d2-7168-a211-b4d8162559a9","","766","
                <div class=""stimulus-container"">
                    <img src=""images/causal_sequence/museum_causal/museum_causal_ten.png"" class=""exp-image"">
                    <div class=""question-area"">
                        <p style=""font-size: 20px; font-weight: bold; margin: 0;"">Is there a person in this image?</p>
                    </div>
                </div>","0","main_experiment_trial","ten","museum_causal","causal_sequence","","","","","","","","",""
"","","","","","html-keyboard-response","57","223795","0.0-57.0","AD8A0E02A1CE4C1BA1E09335BB8CB4BE","019cea5d-a915-7348-a336-d5fd80b93284","019cea5b-a1d2-7168-a211-b4d8162559a9","","null","<div style=""background-color: white; width: 100vw; height: 100vh;""></div>","null","","","","","","","","","","","","",""
"","","","","","html-keyboard-response","58","228798","0.0-58.0","AD8A0E02A1CE4C1BA1E09335BB8CB4BE","019cea5d-a915-7348-a336-d5fd80b93284","019cea5b-a1d2-7168-a211-b4d8162559a9","","null","
                <div class=""stimulus-container"">
                    <img src=""images/causal_sequence/package_causal/package_causal_1.png"" class=""exp-image"">
                    <div class=""question-area""></div> 
                </div>","null","","","","","","","","","","","","",""
"","","","","","html-button-response","59","230224","0.0-59.0","AD8A0E02A1CE4C1BA1E09335BB8CB4BE","019cea5d-a915-7348-a336-d5fd80b93284","019cea5b-a1d2-7168-a211-b4d8162559a9","","1425","
                <div class=""stimulus-container"">
                    <img src=""images/causal_sequence/package_causal/package_causal_1.png"" class=""exp-image"">
                    <div class=""question-area"">
                        <p style=""font-size: 20px; font-weight: bold; margin: 0;"">Is there a person in this image?</p>
                    </div>
                </div>","0","main_experiment_trial","1","package_causal","causal_sequence","","","","","","","","",""
"","","","","","html-keyboard-response","60","235227","0.0-60.0","AD8A0E02A1CE4C1BA1E09335BB8CB4BE","019cea5d-a915-7348-a336-d5fd80b93284","019cea5b-a1d2-7168-a211-b4d8162559a9","","null","
                <div class=""stimulus-container"">
                    <img src=""images/causal_sequence/package_causal/package_causal_2.png"" class=""exp-image"">
                    <div class=""question-area""></div> 
                </div>","null","","","","","","","","","","","","",""
"","","","","","html-button-response","61","237107","0.0-61.0","AD8A0E02A1CE4C1BA1E09335BB8CB4BE","019cea5d-a915-7348-a336-d5fd80b93284","019cea5b-a1d2-7168-a211-b4d8162559a9","","1878","
                <div class=""stimulus-container"">
                    <img src=""images/causal_sequence/package_causal/package_causal_2.png"" class=""exp-image"">
                    <div class=""question-area"">
                        <p style=""font-size: 20px; font-weight: bold; margin: 0;"">Is there a person in this image?</p>
                    </div>
                </div>","0","main_experiment_trial","2","package_causal","causal_sequence","","","","","","","","",""
"","","","","","html-keyboard-response","62","242110","0.0-62.0","AD8A0E02A1CE4C1BA1E09335BB8CB4BE","019cea5d-a915-7348-a336-d5fd80b93284","019cea5b-a1d2-7168-a211-b4d8162559a9","","null","
                <div class=""stimulus-container"">
                    <img src=""images/causal_sequence/package_causal/package_causal_3.png"" class=""exp-image"">
                    <div class=""question-area""></div> 
                </div>","null","","","","","","","","","","","","",""
"","","","","","html-button-response","63","243075","0.0-63.0","AD8A0E02A1CE4C1BA1E09335BB8CB4BE","019cea5d-a915-7348-a336-d5fd80b93284","019cea5b-a1d2-7168-a211-b4d8162559a9","","964","
                <div class=""stimulus-container"">
                    <img src=""images/causal_sequence/package_causal/package_causal_3.png"" class=""exp-image"">
                    <div class=""question-area"">
                        <p style=""font-size: 20px; font-weight: bold; margin: 0;"">Is there a person in this image?</p>
                    </div>
                </div>","0","main_experiment_trial","3","package_causal","causal_sequence","","","","","","","","",""
"","","","","","html-keyboard-response","64","248078","0.0-64.0","AD8A0E02A1CE4C1BA1E09335BB8CB4BE","019cea5d-a915-7348-a336-d5fd80b93284","019cea5b-a1d2-7168-a211-b4d8162559a9","","null","
                <div class=""stimulus-container"">
                    <img src=""images/causal_sequence/package_causal/package_causal_4.png"" class=""exp-image"">
                    <div class=""question-area""></div> 
                </div>","null","","","","","","","","","","","","",""
"","","","","","html-button-response","65","249057","0.0-65.0","AD8A0E02A1CE4C1BA1E09335BB8CB4BE","019cea5d-a915-7348-a336-d5fd80b93284","019cea5b-a1d2-7168-a211-b4d8162559a9","","978","
                <div class=""stimulus-container"">
                    <img src=""images/causal_sequence/package_causal/package_causal_4.png"" class=""exp-image"">
                    <div class=""question-area"">
                        <p style=""font-size: 20px; font-weight: bold; margin: 0;"">Is there a person in this image?</p>
                    </div>
                </div>","1","main_experiment_trial","4","package_causal","causal_sequence","","","","","","","","",""
"","","","","","html-keyboard-response","66","254059","0.0-66.0","AD8A0E02A1CE4C1BA1E09335BB8CB4BE","019cea5d-a915-7348-a336-d5fd80b93284","019cea5b-a1d2-7168-a211-b4d8162559a9","","null","
                <div class=""stimulus-container"">
                    <img src=""images/causal_sequence/package_causal/package_causal_5.png"" class=""exp-image"">
                    <div class=""question-area""></div> 
                </div>","null","","","","","","","","","","","","",""
"","","","","","html-button-response","67","255575","0.0-67.0","AD8A0E02A1CE4C1BA1E09335BB8CB4BE","019cea5d-a915-7348-a336-d5fd80b93284","019cea5b-a1d2-7168-a211-b4d8162559a9","","1514","
                <div class=""stimulus-container"">
                    <img src=""images/causal_sequence/package_causal/package_causal_5.png"" class=""exp-image"">
                    <div class=""question-area"">
                        <p style=""font-size: 20px; font-weight: bold; margin: 0;"">Is there a person in this image?</p>
                    </div>
                </div>","0","main_experiment_trial","5","package_causal","causal_sequence","","","","","","","","",""
"","","","","","html-keyboard-response","68","260578","0.0-68.0","AD8A0E02A1CE4C1BA1E09335BB8CB4BE","019cea5d-a915-7348-a336-d5fd80b93284","019cea5b-a1d2-7168-a211-b4d8162559a9","","null","
                <div class=""stimulus-container"">
                    <img src=""images/causal_sequence/package_causal/package_causal_6.png"" class=""exp-image"">
                    <div class=""question-area""></div> 
                </div>","null","","","","","","","","","","","","",""
"","","","","","html-button-response","69","261591","0.0-69.0","AD8A0E02A1CE4C1BA1E09335BB8CB4BE","019cea5d-a915-7348-a336-d5fd80b93284","019cea5b-a1d2-7168-a211-b4d8162559a9","","1011","
                <div class=""stimulus-container"">
                    <img src=""images/causal_sequence/package_causal/package_causal_6.png"" class=""exp-image"">
                    <div class=""question-area"">
                        <p style=""font-size: 20px; font-weight: bold; margin: 0;"">Is there a person in this image?</p>
                    </div>
                </div>","0","main_experiment_trial","6","package_causal","causal_sequence","","","","","","","","",""
"","","","","","html-keyboard-response","70","266594","0.0-70.0","AD8A0E02A1CE4C1BA1E09335BB8CB4BE","019cea5d-a915-7348-a336-d5fd80b93284","019cea5b-a1d2-7168-a211-b4d8162559a9","","null","
                <div class=""stimulus-container"">
                    <img src=""images/causal_sequence/package_causal/package_causal_7.png"" class=""exp-image"">
                    <div class=""question-area""></div> 
                </div>","null","","","","","","","","","","","","",""
"","","","","","html-button-response","71","268525","0.0-71.0","AD8A0E02A1CE4C1BA1E09335BB8CB4BE","019cea5d-a915-7348-a336-d5fd80b93284","019cea5b-a1d2-7168-a211-b4d8162559a9","","1928","
                <div class=""stimulus-container"">
                    <img src=""images/causal_sequence/package_causal/package_causal_7.png"" class=""exp-image"">
                    <div class=""question-area"">
                        <p style=""font-size: 20px; font-weight: bold; margin: 0;"">Is there a person in this image?</p>
                    </div>
                </div>","0","main_experiment_trial","7","package_causal","causal_sequence","","","","","","","","",""
"","","","","","html-keyboard-response","72","273528","0.0-72.0","AD8A0E02A1CE4C1BA1E09335BB8CB4BE","019cea5d-a915-7348-a336-d5fd80b93284","019cea5b-a1d2-7168-a211-b4d8162559a9","","null","
                <div class=""stimulus-container"">
                    <img src=""images/causal_sequence/package_causal/package_causal_8.png"" class=""exp-image"">
                    <div class=""question-area""></div> 
                </div>","null","","","","","","","","","","","","",""
"","","","","","html-button-response","73","274591","0.0-73.0","AD8A0E02A1CE4C1BA1E09335BB8CB4BE","019cea5d-a915-7348-a336-d5fd80b93284","019cea5b-a1d2-7168-a211-b4d8162559a9","","1061","
                <div class=""stimulus-container"">
                    <img src=""images/causal_sequence/package_causal/package_causal_8.png"" class=""exp-image"">
                    <div class=""question-area"">
                        <p style=""font-size: 20px; font-weight: bold; margin: 0;"">Is there a person in this image?</p>
                    </div>
                </div>","0","main_experiment_trial","8","package_causal","causal_sequence","","","","","","","","",""
"","","","","","html-keyboard-response","74","279594","0.0-74.0","AD8A0E02A1CE4C1BA1E09335BB8CB4BE","019cea5d-a915-7348-a336-d5fd80b93284","019cea5b-a1d2-7168-a211-b4d8162559a9","","null","
                <div class=""stimulus-container"">
                    <img src=""images/causal_sequence/package_causal/package_causal_9.png"" class=""exp-image"">
                    <div class=""question-area""></div> 
                </div>","null","","","","","","","","","","","","",""
"","","","","","html-button-response","75","280507","0.0-75.0","AD8A0E02A1CE4C1BA1E09335BB8CB4BE","019cea5d-a915-7348-a336-d5fd80b93284","019cea5b-a1d2-7168-a211-b4d8162559a9","","911","
                <div class=""stimulus-container"">
                    <img src=""images/causal_sequence/package_causal/package_causal_9.png"" class=""exp-image"">
                    <div class=""question-area"">
                        <p style=""font-size: 20px; font-weight: bold; margin: 0;"">Is there a person in this image?</p>
                    </div>
                </div>","0","main_experiment_trial","9","package_causal","causal_sequence","","","","","","","","",""
"","","","","","html-keyboard-response","76","285510","0.0-76.0","AD8A0E02A1CE4C1BA1E09335BB8CB4BE","019cea5d-a915-7348-a336-d5fd80b93284","019cea5b-a1d2-7168-a211-b4d8162559a9","","null","
                <div class=""stimulus-container"">
                    <img src=""images/causal_sequence/package_causal/package_causal_ten.png"" class=""exp-image"">
                    <div class=""question-area""></div> 
                </div>","null","","","","","","","","","","","","",""
"","","","","","html-button-response","77","287790","0.0-77.0","AD8A0E02A1CE4C1BA1E09335BB8CB4BE","019cea5d-a915-7348-a336-d5fd80b93284","019cea5b-a1d2-7168-a211-b4d8162559a9","","2278","
                <div class=""stimulus-container"">
                    <img src=""images/causal_sequence/package_causal/package_causal_ten.png"" class=""exp-image"">
                    <div class=""question-area"">
                        <p style=""font-size: 20px; font-weight: bold; margin: 0;"">Is there a person in this image?</p>
                    </div>
                </div>","0","main_experiment_trial","ten","package_causal","causal_sequence","","","","","","","","",""
"","","","","","html-keyboard-response","78","288792","0.0-78.0","AD8A0E02A1CE4C1BA1E09335BB8CB4BE","019cea5d-a915-7348-a336-d5fd80b93284","019cea5b-a1d2-7168-a211-b4d8162559a9","","null","<div style=""background-color: white; width: 100vw; height: 100vh;""></div>","null","","","","","","","","","","","","",""
"","","","","","html-keyboard-response","79","293795","0.0-79.0","AD8A0E02A1CE4C1BA1E09335BB8CB4BE","019cea5d-a915-7348-a336-d5fd80b93284","019cea5b-a1d2-7168-a211-b4d8162559a9","","null","
                <div class=""stimulus-container"">
                    <img src=""images/semantic_sequence/exploring_nature_semantic/exploring_nature_semantic_1.png"" class=""exp-image"">
                    <div class=""question-area""></div> 
                </div>","null","","","","","","","","","","","","",""
"","","","","","html-button-response","80","295074","0.0-80.0","AD8A0E02A1CE4C1BA1E09335BB8CB4BE","019cea5d-a915-7348-a336-d5fd80b93284","019cea5b-a1d2-7168-a211-b4d8162559a9","","1277","
                <div class=""stimulus-container"">
                    <img src=""images/semantic_sequence/exploring_nature_semantic/exploring_nature_semantic_1.png"" class=""exp-image"">
                    <div class=""question-area"">
                        <p style=""font-size: 20px; font-weight: bold; margin: 0;"">Is there a person in this image?</p>
                    </div>
                </div>","0","main_experiment_trial","1","exploring_nature_semantic","semantic_sequence","","","","","","","","",""
"","","","","","html-keyboard-response","81","300077","0.0-81.0","AD8A0E02A1CE4C1BA1E09335BB8CB4BE","019cea5d-a915-7348-a336-d5fd80b93284","019cea5b-a1d2-7168-a211-b4d8162559a9","","null","
                <div class=""stimulus-container"">
                    <img src=""images/semantic_sequence/exploring_nature_semantic/exploring_nature_semantic_2.png"" class=""exp-image"">
                    <div class=""question-area""></div> 
                </div>","null","","","","","","","","","","","","",""
"","","","","","html-button-response","82","301509","0.0-82.0","AD8A0E02A1CE4C1BA1E09335BB8CB4BE","019cea5d-a915-7348-a336-d5fd80b93284","019cea5b-a1d2-7168-a211-b4d8162559a9","","1430","
                <div class=""stimulus-container"">
                    <img src=""images/semantic_sequence/exploring_nature_semantic/exploring_nature_semantic_2.png"" class=""exp-image"">
                    <div class=""question-area"">
                        <p style=""font-size: 20px; font-weight: bold; margin: 0;"">Is there a person in this image?</p>
                    </div>
                </div>","0","main_experiment_trial","2","exploring_nature_semantic","semantic_sequence","","","","","","","","",""
"","","","","","html-keyboard-response","83","306512","0.0-83.0","AD8A0E02A1CE4C1BA1E09335BB8CB4BE","019cea5d-a915-7348-a336-d5fd80b93284","019cea5b-a1d2-7168-a211-b4d8162559a9","","null","
                <div class=""stimulus-container"">
                    <img src=""images/semantic_sequence/exploring_nature_semantic/exploring_nature_semantic_3.png"" class=""exp-image"">
                    <div class=""question-area""></div> 
                </div>","null","","","","","","","","","","","","",""
"","","","","","html-button-response","84","307890","0.0-84.0","AD8A0E02A1CE4C1BA1E09335BB8CB4BE","019cea5d-a915-7348-a336-d5fd80b93284","019cea5b-a1d2-7168-a211-b4d8162559a9","","1376","
                <div class=""stimulus-container"">
                    <img src=""images/semantic_sequence/exploring_nature_semantic/exploring_nature_semantic_3.png"" class=""exp-image"">
                    <div class=""question-area"">
                        <p style=""font-size: 20px; font-weight: bold; margin: 0;"">Is there a person in this image?</p>
                    </div>
                </div>","0","main_experiment_trial","3","exploring_nature_semantic","semantic_sequence","","","","","","","","",""
"","","","","","html-keyboard-response","85","312893","0.0-85.0","AD8A0E02A1CE4C1BA1E09335BB8CB4BE","019cea5d-a915-7348-a336-d5fd80b93284","019cea5b-a1d2-7168-a211-b4d8162559a9","","null","
                <div class=""stimulus-container"">
                    <img src=""images/semantic_sequence/exploring_nature_semantic/exploring_nature_semantic_4.png"" class=""exp-image"">
                    <div class=""question-area""></div> 
                </div>","null","","","","","","","","","","","","",""
"","","","","","html-button-response","86","313875","0.0-86.0","AD8A0E02A1CE4C1BA1E09335BB8CB4BE","019cea5d-a915-7348-a336-d5fd80b93284","019cea5b-a1d2-7168-a211-b4d8162559a9","","980","
                <div class=""stimulus-container"">
                    <img src=""images/semantic_sequence/exploring_nature_semantic/exploring_nature_semantic_4.png"" class=""exp-image"">
                    <div class=""question-area"">
                        <p style=""font-size: 20px; font-weight: bold; margin: 0;"">Is there a person in this image?</p>
                    </div>
                </div>","0","main_experiment_trial","4","exploring_nature_semantic","semantic_sequence","","","","","","","","",""
"","","","","","html-keyboard-response","87","318877","0.0-87.0","AD8A0E02A1CE4C1BA1E09335BB8CB4BE","019cea5d-a915-7348-a336-d5fd80b93284","019cea5b-a1d2-7168-a211-b4d8162559a9","","null","
                <div class=""stimulus-container"">
                    <img src=""images/semantic_sequence/exploring_nature_semantic/exploring_nature_semantic_5.png"" class=""exp-image"">
                    <div class=""question-area""></div> 
                </div>","null","","","","","","","","","","","","",""
"","","","","","html-button-response","88","321881","0.0-88.0","AD8A0E02A1CE4C1BA1E09335BB8CB4BE","019cea5d-a915-7348-a336-d5fd80b93284","019cea5b-a1d2-7168-a211-b4d8162559a9","","null","
                <div class=""stimulus-container"">
                    <img src=""images/semantic_sequence/exploring_nature_semantic/exploring_nature_semantic_5.png"" class=""exp-image"">
                    <div class=""question-area"">
                        <p style=""font-size: 20px; font-weight: bold; margin: 0;"">Is there a person in this image?</p>
                    </div>
                </div>","null","main_experiment_trial","5","exploring_nature_semantic","semantic_sequence","","","","","","","","",""
"","","","","","html-keyboard-response","89","326884","0.0-89.0","AD8A0E02A1CE4C1BA1E09335BB8CB4BE","019cea5d-a915-7348-a336-d5fd80b93284","019cea5b-a1d2-7168-a211-b4d8162559a9","","null","
                <div class=""stimulus-container"">
                    <img src=""images/semantic_sequence/exploring_nature_semantic/exploring_nature_semantic_6.png"" class=""exp-image"">
                    <div class=""question-area""></div> 
                </div>","null","","","","","","","","","","","","",""
"","","","","","html-button-response","90","328541","0.0-90.0","AD8A0E02A1CE4C1BA1E09335BB8CB4BE","019cea5d-a915-7348-a336-d5fd80b93284","019cea5b-a1d2-7168-a211-b4d8162559a9","","1655","
                <div class=""stimulus-container"">
                    <img src=""images/semantic_sequence/exploring_nature_semantic/exploring_nature_semantic_6.png"" class=""exp-image"">
                    <div class=""question-area"">
                        <p style=""font-size: 20px; font-weight: bold; margin: 0;"">Is there a person in this image?</p>
                    </div>
                </div>","0","main_experiment_trial","6","exploring_nature_semantic","semantic_sequence","","","","","","","","",""
"","","","","","html-keyboard-response","91","333544","0.0-91.0","AD8A0E02A1CE4C1BA1E09335BB8CB4BE","019cea5d-a915-7348-a336-d5fd80b93284","019cea5b-a1d2-7168-a211-b4d8162559a9","","null","
                <div class=""stimulus-container"">
                    <img src=""images/semantic_sequence/exploring_nature_semantic/exploring_nature_semantic_7.png"" class=""exp-image"">
                    <div class=""question-area""></div> 
                </div>","null","","","","","","","","","","","","",""
"","","","","","html-button-response","92","334675","0.0-92.0","AD8A0E02A1CE4C1BA1E09335BB8CB4BE","019cea5d-a915-7348-a336-d5fd80b93284","019cea5b-a1d2-7168-a211-b4d8162559a9","","1129","
                <div class=""stimulus-container"">
                    <img src=""images/semantic_sequence/exploring_nature_semantic/exploring_nature_semantic_7.png"" class=""exp-image"">
                    <div class=""question-area"">
                        <p style=""font-size: 20px; font-weight: bold; margin: 0;"">Is there a person in this image?</p>
                    </div>
                </div>","0","main_experiment_trial","7","exploring_nature_semantic","semantic_sequence","","","","","","","","",""
"","","","","","html-keyboard-response","93","339679","0.0-93.0","AD8A0E02A1CE4C1BA1E09335BB8CB4BE","019cea5d-a915-7348-a336-d5fd80b93284","019cea5b-a1d2-7168-a211-b4d8162559a9","","null","
                <div class=""stimulus-container"">
                    <img src=""images/semantic_sequence/exploring_nature_semantic/exploring_nature_semantic_8.png"" class=""exp-image"">
                    <div class=""question-area""></div> 
                </div>","null","","","","","","","","","","","","",""
"","","","","","html-button-response","94","341041","0.0-94.0","AD8A0E02A1CE4C1BA1E09335BB8CB4BE","019cea5d-a915-7348-a336-d5fd80b93284","019cea5b-a1d2-7168-a211-b4d8162559a9","","1360","
                <div class=""stimulus-container"">
                    <img src=""images/semantic_sequence/exploring_nature_semantic/exploring_nature_semantic_8.png"" class=""exp-image"">
                    <div class=""question-area"">
                        <p style=""font-size: 20px; font-weight: bold; margin: 0;"">Is there a person in this image?</p>
                    </div>
                </div>","0","main_experiment_trial","8","exploring_nature_semantic","semantic_sequence","","","","","","","","",""
"","","","","","html-keyboard-response","95","346042","0.0-95.0","AD8A0E02A1CE4C1BA1E09335BB8CB4BE","019cea5d-a915-7348-a336-d5fd80b93284","019cea5b-a1d2-7168-a211-b4d8162559a9","","null","
                <div class=""stimulus-container"">
                    <img src=""images/semantic_sequence/exploring_nature_semantic/exploring_nature_semantic_9.png"" class=""exp-image"">
                    <div class=""question-area""></div> 
                </div>","null","","","","","","","","","","","","",""
"","","","","","html-button-response","96","346706","0.0-96.0","AD8A0E02A1CE4C1BA1E09335BB8CB4BE","019cea5d-a915-7348-a336-d5fd80b93284","019cea5b-a1d2-7168-a211-b4d8162559a9","","662","
                <div class=""stimulus-container"">
                    <img src=""images/semantic_sequence/exploring_nature_semantic/exploring_nature_semantic_9.png"" class=""exp-image"">
                    <div class=""question-area"">
                        <p style=""font-size: 20px; font-weight: bold; margin: 0;"">Is there a person in this image?</p>
                    </div>
                </div>","0","main_experiment_trial","9","exploring_nature_semantic","semantic_sequence","","","","","","","","",""
"","","","","","html-keyboard-response","97","351708","0.0-97.0","AD8A0E02A1CE4C1BA1E09335BB8CB4BE","019cea5d-a915-7348-a336-d5fd80b93284","019cea5b-a1d2-7168-a211-b4d8162559a9","","null","
                <div class=""stimulus-container"">
                    <img src=""images/semantic_sequence/exploring_nature_semantic/exploring_nature_semantic_ten.png"" class=""exp-image"">
                    <div class=""question-area""></div> 
                </div>","null","","","","","","","","","","","","",""
"","","","","","html-button-response","98","353073","0.0-98.0","AD8A0E02A1CE4C1BA1E09335BB8CB4BE","019cea5d-a915-7348-a336-d5fd80b93284","019cea5b-a1d2-7168-a211-b4d8162559a9","","1363","
                <div class=""stimulus-container"">
                    <img src=""images/semantic_sequence/exploring_nature_semantic/exploring_nature_semantic_ten.png"" class=""exp-image"">
                    <div class=""question-area"">
                        <p style=""font-size: 20px; font-weight: bold; margin: 0;"">Is there a person in this image?</p>
                    </div>
                </div>","0","main_experiment_trial","ten","exploring_nature_semantic","semantic_sequence","","","","","","","","",""
"","","","","","html-keyboard-response","99","354075","0.0-99.0","AD8A0E02A1CE4C1BA1E09335BB8CB4BE","019cea5d-a915-7348-a336-d5fd80b93284","019cea5b-a1d2-7168-a211-b4d8162559a9","","null","<div style=""background-color: white; width: 100vw; height: 100vh;""></div>","null","","","","","","","","","","","","",""
"","","","","","html-keyboard-response","100","359078","0.0-100.0","AD8A0E02A1CE4C1BA1E09335BB8CB4BE","019cea5d-a915-7348-a336-d5fd80b93284","019cea5b-a1d2-7168-a211-b4d8162559a9","","null","
                <div class=""stimulus-container"">
                    <img src=""images/semantic_sequence/self_care_activities_semantic/self_care_activities_semantic_1.png"" class=""exp-image"">
                    <div class=""question-area""></div> 
                </div>","null","","","","","","","","","","","","",""
"","","","","","html-button-response","101","360354","0.0-101.0","AD8A0E02A1CE4C1BA1E09335BB8CB4BE","019cea5d-a915-7348-a336-d5fd80b93284","019cea5b-a1d2-7168-a211-b4d8162559a9","","1276","
                <div class=""stimulus-container"">
                    <img src=""images/semantic_sequence/self_care_activities_semantic/self_care_activities_semantic_1.png"" class=""exp-image"">
                    <div class=""question-area"">
                        <p style=""font-size: 20px; font-weight: bold; margin: 0;"">Is there a person in this image?</p>
                    </div>
                </div>","0","main_experiment_trial","1","self_care_activities_semantic","semantic_sequence","","","","","","","","",""
"","","","","","html-keyboard-response","102","365357","0.0-102.0","AD8A0E02A1CE4C1BA1E09335BB8CB4BE","019cea5d-a915-7348-a336-d5fd80b93284","019cea5b-a1d2-7168-a211-b4d8162559a9","","null","
                <div class=""stimulus-container"">
                    <img src=""images/semantic_sequence/self_care_activities_semantic/self_care_activities_semantic_2.png"" class=""exp-image"">
                    <div class=""question-area""></div> 
                </div>","null","","","","","","","","","","","","",""
"","","","","","html-button-response","103","365940","0.0-103.0","AD8A0E02A1CE4C1BA1E09335BB8CB4BE","019cea5d-a915-7348-a336-d5fd80b93284","019cea5b-a1d2-7168-a211-b4d8162559a9","","581","
                <div class=""stimulus-container"">
                    <img src=""images/semantic_sequence/self_care_activities_semantic/self_care_activities_semantic_2.png"" class=""exp-image"">
                    <div class=""question-area"">
                        <p style=""font-size: 20px; font-weight: bold; margin: 0;"">Is there a person in this image?</p>
                    </div>
                </div>","0","main_experiment_trial","2","self_care_activities_semantic","semantic_sequence","","","","","","","","",""
"","","","","","html-keyboard-response","104","370944","0.0-104.0","AD8A0E02A1CE4C1BA1E09335BB8CB4BE","019cea5d-a915-7348-a336-d5fd80b93284","019cea5b-a1d2-7168-a211-b4d8162559a9","","null","
                <div class=""stimulus-container"">
                    <img src=""images/semantic_sequence/self_care_activities_semantic/self_care_activities_semantic_3.png"" class=""exp-image"">
                    <div class=""question-area""></div> 
                </div>","null","","","","","","","","","","","","",""
"","","","","","html-button-response","105","373948","0.0-105.0","AD8A0E02A1CE4C1BA1E09335BB8CB4BE","019cea5d-a915-7348-a336-d5fd80b93284","019cea5b-a1d2-7168-a211-b4d8162559a9","","null","
                <div class=""stimulus-container"">
                    <img src=""images/semantic_sequence/self_care_activities_semantic/self_care_activities_semantic_3.png"" class=""exp-image"">
                    <div class=""question-area"">
                        <p style=""font-size: 20px; font-weight: bold; margin: 0;"">Is there a person in this image?</p>
                    </div>
                </div>","null","main_experiment_trial","3","self_care_activities_semantic","semantic_sequence","","","","","","","","",""
"","","","","","html-keyboard-response","106","378951","0.0-106.0","AD8A0E02A1CE4C1BA1E09335BB8CB4BE","019cea5d-a915-7348-a336-d5fd80b93284","019cea5b-a1d2-7168-a211-b4d8162559a9","","null","
                <div class=""stimulus-container"">
                    <img src=""images/semantic_sequence/self_care_activities_semantic/self_care_activities_semantic_4.png"" class=""exp-image"">
                    <div class=""question-area""></div> 
                </div>","null","","","","","","","","","","","","",""
"","","","","","html-button-response","107","379656","0.0-107.0","AD8A0E02A1CE4C1BA1E09335BB8CB4BE","019cea5d-a915-7348-a336-d5fd80b93284","019cea5b-a1d2-7168-a211-b4d8162559a9","","703","
                <div class=""stimulus-container"">
                    <img src=""images/semantic_sequence/self_care_activities_semantic/self_care_activities_semantic_4.png"" class=""exp-image"">
                    <div class=""question-area"">
                        <p style=""font-size: 20px; font-weight: bold; margin: 0;"">Is there a person in this image?</p>
                    </div>
                </div>","0","main_experiment_trial","4","self_care_activities_semantic","semantic_sequence","","","","","","","","",""
"","","","","","html-keyboard-response","108","384658","0.0-108.0","AD8A0E02A1CE4C1BA1E09335BB8CB4BE","019cea5d-a915-7348-a336-d5fd80b93284","019cea5b-a1d2-7168-a211-b4d8162559a9","","null","
                <div class=""stimulus-container"">
                    <img src=""images/semantic_sequence/self_care_activities_semantic/self_care_activities_semantic_5.png"" class=""exp-image"">
                    <div class=""question-area""></div> 
                </div>","null","","","","","","","","","","","","",""
"","","","","","html-button-response","109","386373","0.0-109.0","AD8A0E02A1CE4C1BA1E09335BB8CB4BE","019cea5d-a915-7348-a336-d5fd80b93284","019cea5b-a1d2-7168-a211-b4d8162559a9","","1714","
                <div class=""stimulus-container"">
                    <img src=""images/semantic_sequence/self_care_activities_semantic/self_care_activities_semantic_5.png"" class=""exp-image"">
                    <div class=""question-area"">
                        <p style=""font-size: 20px; font-weight: bold; margin: 0;"">Is there a person in this image?</p>
                    </div>
                </div>","0","main_experiment_trial","5","self_care_activities_semantic","semantic_sequence","","","","","","","","",""
"","","","","","html-keyboard-response","110","391377","0.0-110.0","AD8A0E02A1CE4C1BA1E09335BB8CB4BE","019cea5d-a915-7348-a336-d5fd80b93284","019cea5b-a1d2-7168-a211-b4d8162559a9","","null","
                <div class=""stimulus-container"">
                    <img src=""images/semantic_sequence/self_care_activities_semantic/self_care_activities_semantic_6.png"" class=""exp-image"">
                    <div class=""question-area""></div> 
                </div>","null","","","","","","","","","","","","",""
"","","","","","html-button-response","111","394290","0.0-111.0","AD8A0E02A1CE4C1BA1E09335BB8CB4BE","019cea5d-a915-7348-a336-d5fd80b93284","019cea5b-a1d2-7168-a211-b4d8162559a9","","2910","
                <div class=""stimulus-container"">
                    <img src=""images/semantic_sequence/self_care_activities_semantic/self_care_activities_semantic_6.png"" class=""exp-image"">
                    <div class=""question-area"">
                        <p style=""font-size: 20px; font-weight: bold; margin: 0;"">Is there a person in this image?</p>
                    </div>
                </div>","1","main_experiment_trial","6","self_care_activities_semantic","semantic_sequence","","","","","","","","",""
"","","","","","html-keyboard-response","112","399293","0.0-112.0","AD8A0E02A1CE4C1BA1E09335BB8CB4BE","019cea5d-a915-7348-a336-d5fd80b93284","019cea5b-a1d2-7168-a211-b4d8162559a9","","null","
                <div class=""stimulus-container"">
                    <img src=""images/semantic_sequence/self_care_activities_semantic/self_care_activities_semantic_7.png"" class=""exp-image"">
                    <div class=""question-area""></div> 
                </div>","null","","","","","","","","","","","","",""
"","","","","","html-button-response","113","400373","0.0-113.0","AD8A0E02A1CE4C1BA1E09335BB8CB4BE","019cea5d-a915-7348-a336-d5fd80b93284","019cea5b-a1d2-7168-a211-b4d8162559a9","","1079","
                <div class=""stimulus-container"">
                    <img src=""images/semantic_sequence/self_care_activities_semantic/self_care_activities_semantic_7.png"" class=""exp-image"">
                    <div class=""question-area"">
                        <p style=""font-size: 20px; font-weight: bold; margin: 0;"">Is there a person in this image?</p>
                    </div>
                </div>","0","main_experiment_trial","7","self_care_activities_semantic","semantic_sequence","","","","","","","","",""
"","","","","","html-keyboard-response","114","405376","0.0-114.0","AD8A0E02A1CE4C1BA1E09335BB8CB4BE","019cea5d-a915-7348-a336-d5fd80b93284","019cea5b-a1d2-7168-a211-b4d8162559a9","","null","
                <div class=""stimulus-container"">
                    <img src=""images/semantic_sequence/self_care_activities_semantic/self_care_activities_semantic_8.png"" class=""exp-image"">
                    <div class=""question-area""></div> 
                </div>","null","","","","","","","","","","","","",""
"","","","","","html-button-response","115","406124","0.0-115.0","AD8A0E02A1CE4C1BA1E09335BB8CB4BE","019cea5d-a915-7348-a336-d5fd80b93284","019cea5b-a1d2-7168-a211-b4d8162559a9","","746","
                <div class=""stimulus-container"">
                    <img src=""images/semantic_sequence/self_care_activities_semantic/self_care_activities_semantic_8.png"" class=""exp-image"">
                    <div class=""question-area"">
                        <p style=""font-size: 20px; font-weight: bold; margin: 0;"">Is there a person in this image?</p>
                    </div>
                </div>","0","main_experiment_trial","8","self_care_activities_semantic","semantic_sequence","","","","","","","","",""
"","","","","","html-keyboard-response","116","411127","0.0-116.0","AD8A0E02A1CE4C1BA1E09335BB8CB4BE","019cea5d-a915-7348-a336-d5fd80b93284","019cea5b-a1d2-7168-a211-b4d8162559a9","","null","
                <div class=""stimulus-container"">
                    <img src=""images/semantic_sequence/self_care_activities_semantic/self_care_activities_semantic_9.png"" class=""exp-image"">
                    <div class=""question-area""></div> 
                </div>","null","","","","","","","","","","","","",""
"","","","","","html-button-response","117","412555","0.0-117.0","AD8A0E02A1CE4C1BA1E09335BB8CB4BE","019cea5d-a915-7348-a336-d5fd80b93284","019cea5b-a1d2-7168-a211-b4d8162559a9","","1427","
                <div class=""stimulus-container"">
                    <img src=""images/semantic_sequence/self_care_activities_semantic/self_care_activities_semantic_9.png"" class=""exp-image"">
                    <div class=""question-area"">
                        <p style=""font-size: 20px; font-weight: bold; margin: 0;"">Is there a person in this image?</p>
                    </div>
                </div>","0","main_experiment_trial","9","self_care_activities_semantic","semantic_sequence","","","","","","","","",""
"","","","","","html-keyboard-response","118","417557","0.0-118.0","AD8A0E02A1CE4C1BA1E09335BB8CB4BE","019cea5d-a915-7348-a336-d5fd80b93284","019cea5b-a1d2-7168-a211-b4d8162559a9","","null","
                <div class=""stimulus-container"">
                    <img src=""images/semantic_sequence/self_care_activities_semantic/self_care_activities_semantic_ten.png"" class=""exp-image"">
                    <div class=""question-area""></div> 
                </div>","null","","","","","","","","","","","","",""
"","","","","","html-button-response","119","418724","0.0-119.0","AD8A0E02A1CE4C1BA1E09335BB8CB4BE","019cea5d-a915-7348-a336-d5fd80b93284","019cea5b-a1d2-7168-a211-b4d8162559a9","","1165","
                <div class=""stimulus-container"">
                    <img src=""images/semantic_sequence/self_care_activities_semantic/self_care_activities_semantic_ten.png"" class=""exp-image"">
                    <div class=""question-area"">
                        <p style=""font-size: 20px; font-weight: bold; margin: 0;"">Is there a person in this image?</p>
                    </div>
                </div>","0","main_experiment_trial","ten","self_care_activities_semantic","semantic_sequence","","","","","","","","",""
"","","","","","html-keyboard-response","120","419726","0.0-120.0","AD8A0E02A1CE4C1BA1E09335BB8CB4BE","019cea5d-a915-7348-a336-d5fd80b93284","019cea5b-a1d2-7168-a211-b4d8162559a9","","null","<div style=""background-color: white; width: 100vw; height: 100vh;""></div>","null","","","","","","","","","","","","",""
"","","","","","html-keyboard-response","121","424729","0.0-121.0","AD8A0E02A1CE4C1BA1E09335BB8CB4BE","019cea5d-a915-7348-a336-d5fd80b93284","019cea5b-a1d2-7168-a211-b4d8162559a9","","null","
                <div class=""stimulus-container"">
                    <img src=""images/semantic_sequence/kitchen_operations_semantic/kitchen_operations_semantic_1.png"" class=""exp-image"">
                    <div class=""question-area""></div> 
                </div>","null","","","","","","","","","","","","",""
"","","","","","html-button-response","122","426456","0.0-122.0","AD8A0E02A1CE4C1BA1E09335BB8CB4BE","019cea5d-a915-7348-a336-d5fd80b93284","019cea5b-a1d2-7168-a211-b4d8162559a9","","1725","
                <div class=""stimulus-container"">
                    <img src=""images/semantic_sequence/kitchen_operations_semantic/kitchen_operations_semantic_1.png"" class=""exp-image"">
                    <div class=""question-area"">
                        <p style=""font-size: 20px; font-weight: bold; margin: 0;"">Is there a person in this image?</p>
                    </div>
                </div>","0","main_experiment_trial","1","kitchen_operations_semantic","semantic_sequence","","","","","","","","",""
"","","","","","html-keyboard-response","123","431460","0.0-123.0","AD8A0E02A1CE4C1BA1E09335BB8CB4BE","019cea5d-a915-7348-a336-d5fd80b93284","019cea5b-a1d2-7168-a211-b4d8162559a9","","null","
                <div class=""stimulus-container"">
                    <img src=""images/semantic_sequence/kitchen_operations_semantic/kitchen_operations_semantic_2.png"" class=""exp-image"">
                    <div class=""question-area""></div> 
                </div>","null","","","","","","","","","","","","",""
"","","","","","html-button-response","124","432006","0.0-124.0","AD8A0E02A1CE4C1BA1E09335BB8CB4BE","019cea5d-a915-7348-a336-d5fd80b93284","019cea5b-a1d2-7168-a211-b4d8162559a9","","545","
                <div class=""stimulus-container"">
                    <img src=""images/semantic_sequence/kitchen_operations_semantic/kitchen_operations_semantic_2.png"" class=""exp-image"">
                    <div class=""question-area"">
                        <p style=""font-size: 20px; font-weight: bold; margin: 0;"">Is there a person in this image?</p>
                    </div>
                </div>","0","main_experiment_trial","2","kitchen_operations_semantic","semantic_sequence","","","","","","","","",""
"","","","","","html-keyboard-response","125","437009","0.0-125.0","AD8A0E02A1CE4C1BA1E09335BB8CB4BE","019cea5d-a915-7348-a336-d5fd80b93284","019cea5b-a1d2-7168-a211-b4d8162559a9","","null","
                <div class=""stimulus-container"">
                    <img src=""images/semantic_sequence/kitchen_operations_semantic/kitchen_operations_semantic_3.png"" class=""exp-image"">
                    <div class=""question-area""></div> 
                </div>","null","","","","","","","","","","","","",""
"","","","","","html-button-response","126","438390","0.0-126.0","AD8A0E02A1CE4C1BA1E09335BB8CB4BE","019cea5d-a915-7348-a336-d5fd80b93284","019cea5b-a1d2-7168-a211-b4d8162559a9","","1379","
                <div class=""stimulus-container"">
                    <img src=""images/semantic_sequence/kitchen_operations_semantic/kitchen_operations_semantic_3.png"" class=""exp-image"">
                    <div class=""question-area"">
                        <p style=""font-size: 20px; font-weight: bold; margin: 0;"">Is there a person in this image?</p>
                    </div>
                </div>","0","main_experiment_trial","3","kitchen_operations_semantic","semantic_sequence","","","","","","","","",""
"","","","","","html-keyboard-response","127","443393","0.0-127.0","AD8A0E02A1CE4C1BA1E09335BB8CB4BE","019cea5d-a915-7348-a336-d5fd80b93284","019cea5b-a1d2-7168-a211-b4d8162559a9","","null","
                <div class=""stimulus-container"">
                    <img src=""images/semantic_sequence/kitchen_operations_semantic/kitchen_operations_semantic_4.png"" class=""exp-image"">
                    <div class=""question-area""></div> 
                </div>","null","","","","","","","","","","","","",""
"","","","","","html-button-response","128","444221","0.0-128.0","AD8A0E02A1CE4C1BA1E09335BB8CB4BE","019cea5d-a915-7348-a336-d5fd80b93284","019cea5b-a1d2-7168-a211-b4d8162559a9","","827","
                <div class=""stimulus-container"">
                    <img src=""images/semantic_sequence/kitchen_operations_semantic/kitchen_operations_semantic_4.png"" class=""exp-image"">
                    <div class=""question-area"">
                        <p style=""font-size: 20px; font-weight: bold; margin: 0;"">Is there a person in this image?</p>
                    </div>
                </div>","0","main_experiment_trial","4","kitchen_operations_semantic","semantic_sequence","","","","","","","","",""
"","","","","","html-keyboard-response","129","449224","0.0-129.0","AD8A0E02A1CE4C1BA1E09335BB8CB4BE","019cea5d-a915-7348-a336-d5fd80b93284","019cea5b-a1d2-7168-a211-b4d8162559a9","","null","
                <div class=""stimulus-container"">
                    <img src=""images/semantic_sequence/kitchen_operations_semantic/kitchen_operations_semantic_5.png"" class=""exp-image"">
                    <div class=""question-area""></div> 
                </div>","null","","","","","","","","","","","","",""
"","","","","","html-button-response","130","450421","0.0-130.0","AD8A0E02A1CE4C1BA1E09335BB8CB4BE","019cea5d-a915-7348-a336-d5fd80b93284","019cea5b-a1d2-7168-a211-b4d8162559a9","","1195","
                <div class=""stimulus-container"">
                    <img src=""images/semantic_sequence/kitchen_operations_semantic/kitchen_operations_semantic_5.png"" class=""exp-image"">
                    <div class=""question-area"">
                        <p style=""font-size: 20px; font-weight: bold; margin: 0;"">Is there a person in this image?</p>
                    </div>
                </div>","0","main_experiment_trial","5","kitchen_operations_semantic","semantic_sequence","","","","","","","","",""
"","","","","","html-keyboard-response","131","455424","0.0-131.0","AD8A0E02A1CE4C1BA1E09335BB8CB4BE","019cea5d-a915-7348-a336-d5fd80b93284","019cea5b-a1d2-7168-a211-b4d8162559a9","","null","
                <div class=""stimulus-container"">
                    <img src=""images/semantic_sequence/kitchen_operations_semantic/kitchen_operations_semantic_6.png"" class=""exp-image"">
                    <div class=""question-area""></div> 
                </div>","null","","","","","","","","","","","","",""
"","","","","","html-button-response","132","456305","0.0-132.0","AD8A0E02A1CE4C1BA1E09335BB8CB4BE","019cea5d-a915-7348-a336-d5fd80b93284","019cea5b-a1d2-7168-a211-b4d8162559a9","","878","
                <div class=""stimulus-container"">
                    <img src=""images/semantic_sequence/kitchen_operations_semantic/kitchen_operations_semantic_6.png"" class=""exp-image"">
                    <div class=""question-area"">
                        <p style=""font-size: 20px; font-weight: bold; margin: 0;"">Is there a person in this image?</p>
                    </div>
                </div>","0","main_experiment_trial","6","kitchen_operations_semantic","semantic_sequence","","","","","","","","",""
"","","","","","html-keyboard-response","133","461308","0.0-133.0","AD8A0E02A1CE4C1BA1E09335BB8CB4BE","019cea5d-a915-7348-a336-d5fd80b93284","019cea5b-a1d2-7168-a211-b4d8162559a9","","null","
                <div class=""stimulus-container"">
                    <img src=""images/semantic_sequence/kitchen_operations_semantic/kitchen_operations_semantic_7.png"" class=""exp-image"">
                    <div class=""question-area""></div> 
                </div>","null","","","","","","","","","","","","",""
"","","","","","html-button-response","134","462789","0.0-134.0","AD8A0E02A1CE4C1BA1E09335BB8CB4BE","019cea5d-a915-7348-a336-d5fd80b93284","019cea5b-a1d2-7168-a211-b4d8162559a9","","1479","
                <div class=""stimulus-container"">
                    <img src=""images/semantic_sequence/kitchen_operations_semantic/kitchen_operations_semantic_7.png"" class=""exp-image"">
                    <div class=""question-area"">
                        <p style=""font-size: 20px; font-weight: bold; margin: 0;"">Is there a person in this image?</p>
                    </div>
                </div>","0","main_experiment_trial","7","kitchen_operations_semantic","semantic_sequence","","","","","","","","",""
"","","","","","html-keyboard-response","135","467791","0.0-135.0","AD8A0E02A1CE4C1BA1E09335BB8CB4BE","019cea5d-a915-7348-a336-d5fd80b93284","019cea5b-a1d2-7168-a211-b4d8162559a9","","null","
                <div class=""stimulus-container"">
                    <img src=""images/semantic_sequence/kitchen_operations_semantic/kitchen_operations_semantic_8.png"" class=""exp-image"">
                    <div class=""question-area""></div> 
                </div>","null","","","","","","","","","","","","",""
"","","","","","html-button-response","136","469639","0.0-136.0","AD8A0E02A1CE4C1BA1E09335BB8CB4BE","019cea5d-a915-7348-a336-d5fd80b93284","019cea5b-a1d2-7168-a211-b4d8162559a9","","1846","
                <div class=""stimulus-container"">
                    <img src=""images/semantic_sequence/kitchen_operations_semantic/kitchen_operations_semantic_8.png"" class=""exp-image"">
                    <div class=""question-area"">
                        <p style=""font-size: 20px; font-weight: bold; margin: 0;"">Is there a person in this image?</p>
                    </div>
                </div>","0","main_experiment_trial","8","kitchen_operations_semantic","semantic_sequence","","","","","","","","",""
"","","","","","html-keyboard-response","137","474641","0.0-137.0","AD8A0E02A1CE4C1BA1E09335BB8CB4BE","019cea5d-a915-7348-a336-d5fd80b93284","019cea5b-a1d2-7168-a211-b4d8162559a9","","null","
                <div class=""stimulus-container"">
                    <img src=""images/semantic_sequence/kitchen_operations_semantic/kitchen_operations_semantic_9.png"" class=""exp-image"">
                    <div class=""question-area""></div> 
                </div>","null","","","","","","","","","","","","",""
"","","","","","html-button-response","138","475405","0.0-138.0","AD8A0E02A1CE4C1BA1E09335BB8CB4BE","019cea5d-a915-7348-a336-d5fd80b93284","019cea5b-a1d2-7168-a211-b4d8162559a9","","763","
                <div class=""stimulus-container"">
                    <img src=""images/semantic_sequence/kitchen_operations_semantic/kitchen_operations_semantic_9.png"" class=""exp-image"">
                    <div class=""question-area"">
                        <p style=""font-size: 20px; font-weight: bold; margin: 0;"">Is there a person in this image?</p>
                    </div>
                </div>","0","main_experiment_trial","9","kitchen_operations_semantic","semantic_sequence","","","","","","","","",""
"","","","","","html-keyboard-response","139","480407","0.0-139.0","AD8A0E02A1CE4C1BA1E09335BB8CB4BE","019cea5d-a915-7348-a336-d5fd80b93284","019cea5b-a1d2-7168-a211-b4d8162559a9","","null","
                <div class=""stimulus-container"">
                    <img src=""images/semantic_sequence/kitchen_operations_semantic/kitchen_operations_semantic_ten.png"" class=""exp-image"">
                    <div class=""question-area""></div> 
                </div>","null","","","","","","","","","","","","",""
"","","","","","html-button-response","140","481223","0.0-140.0","AD8A0E02A1CE4C1BA1E09335BB8CB4BE","019cea5d-a915-7348-a336-d5fd80b93284","019cea5b-a1d2-7168-a211-b4d8162559a9","","814","
                <div class=""stimulus-container"">
                    <img src=""images/semantic_sequence/kitchen_operations_semantic/kitchen_operations_semantic_ten.png"" class=""exp-image"">
                    <div class=""question-area"">
                        <p style=""font-size: 20px; font-weight: bold; margin: 0;"">Is there a person in this image?</p>
                    </div>
                </div>","0","main_experiment_trial","ten","kitchen_operations_semantic","semantic_sequence","","","","","","","","",""
"","","","","","html-keyboard-response","141","482225","0.0-141.0","AD8A0E02A1CE4C1BA1E09335BB8CB4BE","019cea5d-a915-7348-a336-d5fd80b93284","019cea5b-a1d2-7168-a211-b4d8162559a9","","null","<div style=""background-color: white; width: 100vw; height: 100vh;""></div>","null","","","","","","","","","","","","",""
"","","","","","html-keyboard-response","142","487228","0.0-142.0","AD8A0E02A1CE4C1BA1E09335BB8CB4BE","019cea5d-a915-7348-a336-d5fd80b93284","019cea5b-a1d2-7168-a211-b4d8162559a9","","null","
                <div class=""stimulus-container"">
                    <img src=""images/schematic_sequence/hotel_scheme/hotel_scheme_1.png"" class=""exp-image"">
                    <div class=""question-area""></div> 
                </div>","null","","","","","","","","","","","","",""
"","","","","","html-button-response","143","488189","0.0-143.0","AD8A0E02A1CE4C1BA1E09335BB8CB4BE","019cea5d-a915-7348-a336-d5fd80b93284","019cea5b-a1d2-7168-a211-b4d8162559a9","","959","
                <div class=""stimulus-container"">
                    <img src=""images/schematic_sequence/hotel_scheme/hotel_scheme_1.png"" class=""exp-image"">
                    <div class=""question-area"">
                        <p style=""font-size: 20px; font-weight: bold; margin: 0;"">Is there a person in this image?</p>
                    </div>
                </div>","1","main_experiment_trial","1","hotel_scheme","schematic_sequence","","","","","","","","",""
"","","","","","html-keyboard-response","144","493196","0.0-144.0","AD8A0E02A1CE4C1BA1E09335BB8CB4BE","019cea5d-a915-7348-a336-d5fd80b93284","019cea5b-a1d2-7168-a211-b4d8162559a9","","null","
                <div class=""stimulus-container"">
                    <img src=""images/schematic_sequence/hotel_scheme/hotel_scheme_2.png"" class=""exp-image"">
                    <div class=""question-area""></div> 
                </div>","null","","","","","","","","","","","","",""
"","","","","","html-button-response","145","494574","0.0-145.0","AD8A0E02A1CE4C1BA1E09335BB8CB4BE","019cea5d-a915-7348-a336-d5fd80b93284","019cea5b-a1d2-7168-a211-b4d8162559a9","","1377","
                <div class=""stimulus-container"">
                    <img src=""images/schematic_sequence/hotel_scheme/hotel_scheme_2.png"" class=""exp-image"">
                    <div class=""question-area"">
                        <p style=""font-size: 20px; font-weight: bold; margin: 0;"">Is there a person in this image?</p>
                    </div>
                </div>","0","main_experiment_trial","2","hotel_scheme","schematic_sequence","","","","","","","","",""
"","","","","","html-keyboard-response","146","499579","0.0-146.0","AD8A0E02A1CE4C1BA1E09335BB8CB4BE","019cea5d-a915-7348-a336-d5fd80b93284","019cea5b-a1d2-7168-a211-b4d8162559a9","","null","
                <div class=""stimulus-container"">
                    <img src=""images/schematic_sequence/hotel_scheme/hotel_scheme_3.png"" class=""exp-image"">
                    <div class=""question-area""></div> 
                </div>","null","","","","","","","","","","","","",""
"","","","","","html-button-response","147","500387","0.0-147.0","AD8A0E02A1CE4C1BA1E09335BB8CB4BE","019cea5d-a915-7348-a336-d5fd80b93284","019cea5b-a1d2-7168-a211-b4d8162559a9","","806","
                <div class=""stimulus-container"">
                    <img src=""images/schematic_sequence/hotel_scheme/hotel_scheme_3.png"" class=""exp-image"">
                    <div class=""question-area"">
                        <p style=""font-size: 20px; font-weight: bold; margin: 0;"">Is there a person in this image?</p>
                    </div>
                </div>","0","main_experiment_trial","3","hotel_scheme","schematic_sequence","","","","","","","","",""
"","","","","","html-keyboard-response","148","505390","0.0-148.0","AD8A0E02A1CE4C1BA1E09335BB8CB4BE","019cea5d-a915-7348-a336-d5fd80b93284","019cea5b-a1d2-7168-a211-b4d8162559a9","","null","
                <div class=""stimulus-container"">
                    <img src=""images/schematic_sequence/hotel_scheme/hotel_scheme_4.png"" class=""exp-image"">
                    <div class=""question-area""></div> 
                </div>","null","","","","","","","","","","","","",""
"","","","","","html-button-response","149","508172","0.0-149.0","AD8A0E02A1CE4C1BA1E09335BB8CB4BE","019cea5d-a915-7348-a336-d5fd80b93284","019cea5b-a1d2-7168-a211-b4d8162559a9","","2780","
                <div class=""stimulus-container"">
                    <img src=""images/schematic_sequence/hotel_scheme/hotel_scheme_4.png"" class=""exp-image"">
                    <div class=""question-area"">
                        <p style=""font-size: 20px; font-weight: bold; margin: 0;"">Is there a person in this image?</p>
                    </div>
                </div>","1","main_experiment_trial","4","hotel_scheme","schematic_sequence","","","","","","","","",""
"","","","","","html-keyboard-response","150","513175","0.0-150.0","AD8A0E02A1CE4C1BA1E09335BB8CB4BE","019cea5d-a915-7348-a336-d5fd80b93284","019cea5b-a1d2-7168-a211-b4d8162559a9","","null","
                <div class=""stimulus-container"">
                    <img src=""images/schematic_sequence/hotel_scheme/hotel_scheme_5.png"" class=""exp-image"">
                    <div class=""question-area""></div> 
                </div>","null","","","","","","","","","","","","",""
"","","","","","html-button-response","151","514173","0.0-151.0","AD8A0E02A1CE4C1BA1E09335BB8CB4BE","019cea5d-a915-7348-a336-d5fd80b93284","019cea5b-a1d2-7168-a211-b4d8162559a9","","996","
                <div class=""stimulus-container"">
                    <img src=""images/schematic_sequence/hotel_scheme/hotel_scheme_5.png"" class=""exp-image"">
                    <div class=""question-area"">
                        <p style=""font-size: 20px; font-weight: bold; margin: 0;"">Is there a person in this image?</p>
                    </div>
                </div>","0","main_experiment_trial","5","hotel_scheme","schematic_sequence","","","","","","","","",""
"","","","","","html-keyboard-response","152","519175","0.0-152.0","AD8A0E02A1CE4C1BA1E09335BB8CB4BE","019cea5d-a915-7348-a336-d5fd80b93284","019cea5b-a1d2-7168-a211-b4d8162559a9","","null","
                <div class=""stimulus-container"">
                    <img src=""images/schematic_sequence/hotel_scheme/hotel_scheme_6.png"" class=""exp-image"">
                    <div class=""question-area""></div> 
                </div>","null","","","","","","","","","","","","",""
"","","","","","html-button-response","153","520138","0.0-153.0","AD8A0E02A1CE4C1BA1E09335BB8CB4BE","019cea5d-a915-7348-a336-d5fd80b93284","019cea5b-a1d2-7168-a211-b4d8162559a9","","962","
                <div class=""stimulus-container"">
                    <img src=""images/schematic_sequence/hotel_scheme/hotel_scheme_6.png"" class=""exp-image"">
                    <div class=""question-area"">
                        <p style=""font-size: 20px; font-weight: bold; margin: 0;"">Is there a person in this image?</p>
                    </div>
                </div>","0","main_experiment_trial","6","hotel_scheme","schematic_sequence","","","","","","","","",""
"","","","","","html-keyboard-response","154","525141","0.0-154.0","AD8A0E02A1CE4C1BA1E09335BB8CB4BE","019cea5d-a915-7348-a336-d5fd80b93284","019cea5b-a1d2-7168-a211-b4d8162559a9","","null","
                <div class=""stimulus-container"">
                    <img src=""images/schematic_sequence/hotel_scheme/hotel_scheme_7.png"" class=""exp-image"">
                    <div class=""question-area""></div> 
                </div>","null","","","","","","","","","","","","",""
"","","","","","html-button-response","155","526038","0.0-155.0","AD8A0E02A1CE4C1BA1E09335BB8CB4BE","019cea5d-a915-7348-a336-d5fd80b93284","019cea5b-a1d2-7168-a211-b4d8162559a9","","894","
                <div class=""stimulus-container"">
                    <img src=""images/schematic_sequence/hotel_scheme/hotel_scheme_7.png"" class=""exp-image"">
                    <div class=""question-area"">
                        <p style=""font-size: 20px; font-weight: bold; margin: 0;"">Is there a person in this image?</p>
                    </div>
                </div>","0","main_experiment_trial","7","hotel_scheme","schematic_sequence","","","","","","","","",""
"","","","","","html-keyboard-response","156","531040","0.0-156.0","AD8A0E02A1CE4C1BA1E09335BB8CB4BE","019cea5d-a915-7348-a336-d5fd80b93284","019cea5b-a1d2-7168-a211-b4d8162559a9","","null","
                <div class=""stimulus-container"">
                    <img src=""images/schematic_sequence/hotel_scheme/hotel_scheme_8.png"" class=""exp-image"">
                    <div class=""question-area""></div> 
                </div>","null","","","","","","","","","","","","",""
"","","","","","html-button-response","157","531889","0.0-157.0","AD8A0E02A1CE4C1BA1E09335BB8CB4BE","019cea5d-a915-7348-a336-d5fd80b93284","019cea5b-a1d2-7168-a211-b4d8162559a9","","847","
                <div class=""stimulus-container"">
                    <img src=""images/schematic_sequence/hotel_scheme/hotel_scheme_8.png"" class=""exp-image"">
                    <div class=""question-area"">
                        <p style=""font-size: 20px; font-weight: bold; margin: 0;"">Is there a person in this image?</p>
                    </div>
                </div>","0","main_experiment_trial","8","hotel_scheme","schematic_sequence","","","","","","","","",""
"","","","","","html-keyboard-response","158","536892","0.0-158.0","AD8A0E02A1CE4C1BA1E09335BB8CB4BE","019cea5d-a915-7348-a336-d5fd80b93284","019cea5b-a1d2-7168-a211-b4d8162559a9","","null","
                <div class=""stimulus-container"">
                    <img src=""images/schematic_sequence/hotel_scheme/hotel_scheme_9.png"" class=""exp-image"">
                    <div class=""question-area""></div> 
                </div>","null","","","","","","","","","","","","",""
"","","","","","html-button-response","159","539894","0.0-159.0","AD8A0E02A1CE4C1BA1E09335BB8CB4BE","019cea5d-a915-7348-a336-d5fd80b93284","019cea5b-a1d2-7168-a211-b4d8162559a9","","null","
                <div class=""stimulus-container"">
                    <img src=""images/schematic_sequence/hotel_scheme/hotel_scheme_9.png"" class=""exp-image"">
                    <div class=""question-area"">
                        <p style=""font-size: 20px; font-weight: bold; margin: 0;"">Is there a person in this image?</p>
                    </div>
                </div>","null","main_experiment_trial","9","hotel_scheme","schematic_sequence","","","","","","","","",""
"","","","","","html-keyboard-response","160","544898","0.0-160.0","AD8A0E02A1CE4C1BA1E09335BB8CB4BE","019cea5d-a915-7348-a336-d5fd80b93284","019cea5b-a1d2-7168-a211-b4d8162559a9","","null","
                <div class=""stimulus-container"">
                    <img src=""images/schematic_sequence/hotel_scheme/hotel_scheme_ten.png"" class=""exp-image"">
                    <div class=""question-area""></div> 
                </div>","null","","","","","","","","","","","","",""
"","","","","","html-button-response","161","545804","0.0-161.0","AD8A0E02A1CE4C1BA1E09335BB8CB4BE","019cea5d-a915-7348-a336-d5fd80b93284","019cea5b-a1d2-7168-a211-b4d8162559a9","","905","
                <div class=""stimulus-container"">
                    <img src=""images/schematic_sequence/hotel_scheme/hotel_scheme_ten.png"" class=""exp-image"">
                    <div class=""question-area"">
                        <p style=""font-size: 20px; font-weight: bold; margin: 0;"">Is there a person in this image?</p>
                    </div>
                </div>","0","main_experiment_trial","ten","hotel_scheme","schematic_sequence","","","","","","","","",""
"","","","","","html-keyboard-response","162","546806","0.0-162.0","AD8A0E02A1CE4C1BA1E09335BB8CB4BE","019cea5d-a915-7348-a336-d5fd80b93284","019cea5b-a1d2-7168-a211-b4d8162559a9","","null","<div style=""background-color: white; width: 100vw; height: 100vh;""></div>","null","","","","","","","","","","","","",""
"","","","","","html-keyboard-response","163","551809","0.0-163.0","AD8A0E02A1CE4C1BA1E09335BB8CB4BE","019cea5d-a915-7348-a336-d5fd80b93284","019cea5b-a1d2-7168-a211-b4d8162559a9","","null","
                <div class=""stimulus-container"">
                    <img src=""images/semantic_sequence/physical_activity_semantic/physical_activity_semantic_1.png"" class=""exp-image"">
                    <div class=""question-area""></div> 
                </div>","null","","","","","","","","","","","","",""
"","","","","","html-button-response","164","552958","0.0-164.0","AD8A0E02A1CE4C1BA1E09335BB8CB4BE","019cea5d-a915-7348-a336-d5fd80b93284","019cea5b-a1d2-7168-a211-b4d8162559a9","","1147","
                <div class=""stimulus-container"">
                    <img src=""images/semantic_sequence/physical_activity_semantic/physical_activity_semantic_1.png"" class=""exp-image"">
                    <div class=""question-area"">
                        <p style=""font-size: 20px; font-weight: bold; margin: 0;"">Is there a person in this image?</p>
                    </div>
                </div>","0","main_experiment_trial","1","physical_activity_semantic","semantic_sequence","","","","","","","","",""
"","","","","","html-keyboard-response","165","557961","0.0-165.0","AD8A0E02A1CE4C1BA1E09335BB8CB4BE","019cea5d-a915-7348-a336-d5fd80b93284","019cea5b-a1d2-7168-a211-b4d8162559a9","","null","
                <div class=""stimulus-container"">
                    <img src=""images/semantic_sequence/physical_activity_semantic/physical_activity_semantic_2.png"" class=""exp-image"">
                    <div class=""question-area""></div> 
                </div>","null","","","","","","","","","","","","",""
"","","","","","html-button-response","166","559806","0.0-166.0","AD8A0E02A1CE4C1BA1E09335BB8CB4BE","019cea5d-a915-7348-a336-d5fd80b93284","019cea5b-a1d2-7168-a211-b4d8162559a9","","1843","
                <div class=""stimulus-container"">
                    <img src=""images/semantic_sequence/physical_activity_semantic/physical_activity_semantic_2.png"" class=""exp-image"">
                    <div class=""question-area"">
                        <p style=""font-size: 20px; font-weight: bold; margin: 0;"">Is there a person in this image?</p>
                    </div>
                </div>","0","main_experiment_trial","2","physical_activity_semantic","semantic_sequence","","","","","","","","",""
"","","","","","html-keyboard-response","167","564808","0.0-167.0","AD8A0E02A1CE4C1BA1E09335BB8CB4BE","019cea5d-a915-7348-a336-d5fd80b93284","019cea5b-a1d2-7168-a211-b4d8162559a9","","null","
                <div class=""stimulus-container"">
                    <img src=""images/semantic_sequence/physical_activity_semantic/physical_activity_semantic_3.png"" class=""exp-image"">
                    <div class=""question-area""></div> 
                </div>","null","","","","","","","","","","","","",""
"","","","","","html-button-response","168","565373","0.0-168.0","AD8A0E02A1CE4C1BA1E09335BB8CB4BE","019cea5d-a915-7348-a336-d5fd80b93284","019cea5b-a1d2-7168-a211-b4d8162559a9","","563","
                <div class=""stimulus-container"">
                    <img src=""images/semantic_sequence/physical_activity_semantic/physical_activity_semantic_3.png"" class=""exp-image"">
                    <div class=""question-area"">
                        <p style=""font-size: 20px; font-weight: bold; margin: 0;"">Is there a person in this image?</p>
                    </div>
                </div>","0","main_experiment_trial","3","physical_activity_semantic","semantic_sequence","","","","","","","","",""
"","","","","","html-keyboard-response","169","570376","0.0-169.0","AD8A0E02A1CE4C1BA1E09335BB8CB4BE","019cea5d-a915-7348-a336-d5fd80b93284","019cea5b-a1d2-7168-a211-b4d8162559a9","","null","
                <div class=""stimulus-container"">
                    <img src=""images/semantic_sequence/physical_activity_semantic/physical_activity_semantic_4.png"" class=""exp-image"">
                    <div class=""question-area""></div> 
                </div>","null","","","","","","","","","","","","",""
"","","","","","html-button-response","170","571757","0.0-170.0","AD8A0E02A1CE4C1BA1E09335BB8CB4BE","019cea5d-a915-7348-a336-d5fd80b93284","019cea5b-a1d2-7168-a211-b4d8162559a9","","1379","
                <div class=""stimulus-container"">
                    <img src=""images/semantic_sequence/physical_activity_semantic/physical_activity_semantic_4.png"" class=""exp-image"">
                    <div class=""question-area"">
                        <p style=""font-size: 20px; font-weight: bold; margin: 0;"">Is there a person in this image?</p>
                    </div>
                </div>","0","main_experiment_trial","4","physical_activity_semantic","semantic_sequence","","","","","","","","",""
"","","","","","html-keyboard-response","171","576760","0.0-171.0","AD8A0E02A1CE4C1BA1E09335BB8CB4BE","019cea5d-a915-7348-a336-d5fd80b93284","019cea5b-a1d2-7168-a211-b4d8162559a9","","null","
                <div class=""stimulus-container"">
                    <img src=""images/semantic_sequence/physical_activity_semantic/physical_activity_semantic_5.png"" class=""exp-image"">
                    <div class=""question-area""></div> 
                </div>","null","","","","","","","","","","","","",""
"","","","","","html-button-response","172","577856","0.0-172.0","AD8A0E02A1CE4C1BA1E09335BB8CB4BE","019cea5d-a915-7348-a336-d5fd80b93284","019cea5b-a1d2-7168-a211-b4d8162559a9","","1094","
                <div class=""stimulus-container"">
                    <img src=""images/semantic_sequence/physical_activity_semantic/physical_activity_semantic_5.png"" class=""exp-image"">
                    <div class=""question-area"">
                        <p style=""font-size: 20px; font-weight: bold; margin: 0;"">Is there a person in this image?</p>
                    </div>
                </div>","0","main_experiment_trial","5","physical_activity_semantic","semantic_sequence","","","","","","","","",""
"","","","","","html-keyboard-response","173","582860","0.0-173.0","AD8A0E02A1CE4C1BA1E09335BB8CB4BE","019cea5d-a915-7348-a336-d5fd80b93284","019cea5b-a1d2-7168-a211-b4d8162559a9","","null","
                <div class=""stimulus-container"">
                    <img src=""images/semantic_sequence/physical_activity_semantic/physical_activity_semantic_6.png"" class=""exp-image"">
                    <div class=""question-area""></div> 
                </div>","null","","","","","","","","","","","","",""
"","","","","","html-button-response","174","583723","0.0-174.0","AD8A0E02A1CE4C1BA1E09335BB8CB4BE","019cea5d-a915-7348-a336-d5fd80b93284","019cea5b-a1d2-7168-a211-b4d8162559a9","","861","
                <div class=""stimulus-container"">
                    <img src=""images/semantic_sequence/physical_activity_semantic/physical_activity_semantic_6.png"" class=""exp-image"">
                    <div class=""question-area"">
                        <p style=""font-size: 20px; font-weight: bold; margin: 0;"">Is there a person in this image?</p>
                    </div>
                </div>","0","main_experiment_trial","6","physical_activity_semantic","semantic_sequence","","","","","","","","",""
