"success","timeout","failed_images","failed_audio","failed_video","trial_type","trial_index","time_elapsed","internal_node_id","subject_id","study_id","session_id","view_history","rt","stimulus","response","task","image_index","folder","sequence_type","valuable_image_index","reward_type","chosen_image_index","target_X","correct_choice"
"true","false","[]","[]","[]","preload","0","19234","0.0-0.0","C083122313ED412FA4EB27591D1A7887","019cf80f-4a2d-7372-a8ff-81e94f159dc2","019cf80d-4266-7117-8a51-54e13c84aca4","","","","","","","","","","","","",""
"","","","","","instructions","1","30238","0.0-1.0","C083122313ED412FA4EB27591D1A7887","019cf80f-4a2d-7372-a8ff-81e94f159dc2","019cf80d-4266-7117-8a51-54e13c84aca4","[{""page_index"":0,""viewing_time"":11003}]","11003","","","","","","","","","","",""
"","","","","","instructions","2","51154","0.0-2.0","C083122313ED412FA4EB27591D1A7887","019cf80f-4a2d-7372-a8ff-81e94f159dc2","019cf80d-4266-7117-8a51-54e13c84aca4","[{""page_index"":0,""viewing_time"":20916}]","20916","","","","","","","","","","",""
"true","","","","","fullscreen","3","53649","0.0-3.0","C083122313ED412FA4EB27591D1A7887","019cf80f-4a2d-7372-a8ff-81e94f159dc2","019cf80d-4266-7117-8a51-54e13c84aca4","","1483","","","","","","","","","","",""
"","","","","","instructions","4","67573","0.0-4.0","C083122313ED412FA4EB27591D1A7887","019cf80f-4a2d-7372-a8ff-81e94f159dc2","019cf80d-4266-7117-8a51-54e13c84aca4","[{""page_index"":0,""viewing_time"":13924}]","13924","","","","","","","","","","",""
"","","","","","instructions","5","70342","0.0-5.0","C083122313ED412FA4EB27591D1A7887","019cf80f-4a2d-7372-a8ff-81e94f159dc2","019cf80d-4266-7117-8a51-54e13c84aca4","[{""page_index"":0,""viewing_time"":2768}]","2768","","","","","","","","","","",""
"","","","","","html-keyboard-response","6","74356","0.0-6.0","C083122313ED412FA4EB27591D1A7887","019cf80f-4a2d-7372-a8ff-81e94f159dc2","019cf80d-4266-7117-8a51-54e13c84aca4","","null","
                <div class=""stimulus-container"">
                    <img src=""images/instructions/movie_1.png"" class=""exp-image"">
                    <div class=""question-area""></div> 
                </div>","null","","","","","","","","",""
"","","","","","html-button-response","7","76721","0.0-7.0","C083122313ED412FA4EB27591D1A7887","019cf80f-4a2d-7372-a8ff-81e94f159dc2","019cf80d-4266-7117-8a51-54e13c84aca4","","2365","
                <div class=""stimulus-container"">
                    <img src=""images/instructions/movie_1.png"" class=""exp-image"">
                    <div class=""question-area"">
                        <p style=""font-size: 20px; font-weight: bold; margin: 0;"">Was there a person in this image?</p>
                    </div>
                </div>","0","example_question","1","","","","","","",""
"","","","","","html-keyboard-response","8","80735","0.0-8.0","C083122313ED412FA4EB27591D1A7887","019cf80f-4a2d-7372-a8ff-81e94f159dc2","019cf80d-4266-7117-8a51-54e13c84aca4","","null","
                <div class=""stimulus-container"">
                    <img src=""images/instructions/movie_2.png"" class=""exp-image"">
                    <div class=""question-area""></div> 
                </div>","null","","","","","","","","",""
"","","","","","html-button-response","9","81473","0.0-9.0","C083122313ED412FA4EB27591D1A7887","019cf80f-4a2d-7372-a8ff-81e94f159dc2","019cf80d-4266-7117-8a51-54e13c84aca4","","737","
                <div class=""stimulus-container"">
                    <img src=""images/instructions/movie_2.png"" class=""exp-image"">
                    <div class=""question-area"">
                        <p style=""font-size: 20px; font-weight: bold; margin: 0;"">Was there a person in this image?</p>
                    </div>
                </div>","0","example_question","2","","","","","","",""
"","","","","","html-keyboard-response","10","85477","0.0-10.0","C083122313ED412FA4EB27591D1A7887","019cf80f-4a2d-7372-a8ff-81e94f159dc2","019cf80d-4266-7117-8a51-54e13c84aca4","","null","
                <div class=""stimulus-container"">
                    <img src=""images/instructions/movie_3.png"" class=""exp-image"">
                    <div class=""question-area""></div> 
                </div>","null","","","","","","","","",""
"","","","","","html-button-response","11","86156","0.0-11.0","C083122313ED412FA4EB27591D1A7887","019cf80f-4a2d-7372-a8ff-81e94f159dc2","019cf80d-4266-7117-8a51-54e13c84aca4","","679","
                <div class=""stimulus-container"">
                    <img src=""images/instructions/movie_3.png"" class=""exp-image"">
                    <div class=""question-area"">
                        <p style=""font-size: 20px; font-weight: bold; margin: 0;"">Was there a person in this image?</p>
                    </div>
                </div>","0","example_question","3","","","","","","",""
"","","","","","html-keyboard-response","12","90173","0.0-12.0","C083122313ED412FA4EB27591D1A7887","019cf80f-4a2d-7372-a8ff-81e94f159dc2","019cf80d-4266-7117-8a51-54e13c84aca4","","null","
                <div class=""stimulus-container"">
                    <img src=""images/instructions/movie_4.png"" class=""exp-image"">
                    <div class=""question-area""></div> 
                </div>","null","","","","","","","","",""
"","","","","","html-button-response","13","91175","0.0-13.0","C083122313ED412FA4EB27591D1A7887","019cf80f-4a2d-7372-a8ff-81e94f159dc2","019cf80d-4266-7117-8a51-54e13c84aca4","","1002","
                <div class=""stimulus-container"">
                    <img src=""images/instructions/movie_4.png"" class=""exp-image"">
                    <div class=""question-area"">
                        <p style=""font-size: 20px; font-weight: bold; margin: 0;"">Was there a person in this image?</p>
                    </div>
                </div>","0","example_question","4","","","","","","",""
"","","","","","instructions","14","94524","0.0-14.0","C083122313ED412FA4EB27591D1A7887","019cf80f-4a2d-7372-a8ff-81e94f159dc2","019cf80d-4266-7117-8a51-54e13c84aca4","[{""page_index"":0,""viewing_time"":3349}]","3349","","","","","","","","","","",""
"","","","","","instructions","15","101024","0.0-15.0","C083122313ED412FA4EB27591D1A7887","019cf80f-4a2d-7372-a8ff-81e94f159dc2","019cf80d-4266-7117-8a51-54e13c84aca4","[{""page_index"":0,""viewing_time"":6499}]","6500","","","","","","","","","","",""
"","","","","","html-keyboard-response","16","102035","0.0-16.0","C083122313ED412FA4EB27591D1A7887","019cf80f-4a2d-7372-a8ff-81e94f159dc2","019cf80d-4266-7117-8a51-54e13c84aca4","","null","<div style=""background-color: white; width: 100vw; height: 100vh;""></div>","null","","","","","","","","",""
"","","","","","html-keyboard-response","17","107041","0.0-17.0","C083122313ED412FA4EB27591D1A7887","019cf80f-4a2d-7372-a8ff-81e94f159dc2","019cf80d-4266-7117-8a51-54e13c84aca4","","null","
                <div class=""stimulus-container"">
                    <img src=""images/semantic_sequence/kitchen_operations_semantic/kitchen_operations_semantic_1.png"" class=""exp-image"">
                    <div class=""question-area""></div> 
                </div>","null","","","","","","","","",""
"","","","","","html-button-response","18","108321","0.0-18.0","C083122313ED412FA4EB27591D1A7887","019cf80f-4a2d-7372-a8ff-81e94f159dc2","019cf80d-4266-7117-8a51-54e13c84aca4","","1279","
                <div class=""stimulus-container"">
                    <img src=""images/semantic_sequence/kitchen_operations_semantic/kitchen_operations_semantic_1.png"" class=""exp-image"">
                    <div class=""question-area"">
                        <p style=""font-size: 20px; font-weight: bold; margin: 0;"">Is there a person in this image?</p>
                    </div>
                </div>","0","main_experiment_trial","1","kitchen_operations_semantic","semantic_sequence","","","","",""
"","","","","","html-keyboard-response","19","113327","0.0-19.0","C083122313ED412FA4EB27591D1A7887","019cf80f-4a2d-7372-a8ff-81e94f159dc2","019cf80d-4266-7117-8a51-54e13c84aca4","","null","
                <div class=""stimulus-container"">
                    <img src=""images/semantic_sequence/kitchen_operations_semantic/kitchen_operations_semantic_2.png"" class=""exp-image"">
                    <div class=""question-area""></div> 
                </div>","null","","","","","","","","",""
"","","","","","html-button-response","20","114058","0.0-20.0","C083122313ED412FA4EB27591D1A7887","019cf80f-4a2d-7372-a8ff-81e94f159dc2","019cf80d-4266-7117-8a51-54e13c84aca4","","731","
                <div class=""stimulus-container"">
                    <img src=""images/semantic_sequence/kitchen_operations_semantic/kitchen_operations_semantic_2.png"" class=""exp-image"">
                    <div class=""question-area"">
                        <p style=""font-size: 20px; font-weight: bold; margin: 0;"">Is there a person in this image?</p>
                    </div>
                </div>","0","main_experiment_trial","2","kitchen_operations_semantic","semantic_sequence","","","","",""
"","","","","","html-keyboard-response","21","119062","0.0-21.0","C083122313ED412FA4EB27591D1A7887","019cf80f-4a2d-7372-a8ff-81e94f159dc2","019cf80d-4266-7117-8a51-54e13c84aca4","","null","
                <div class=""stimulus-container"">
                    <img src=""images/semantic_sequence/kitchen_operations_semantic/kitchen_operations_semantic_3.png"" class=""exp-image"">
                    <div class=""question-area""></div> 
                </div>","null","","","","","","","","",""
"","","","","","html-button-response","22","119819","0.0-22.0","C083122313ED412FA4EB27591D1A7887","019cf80f-4a2d-7372-a8ff-81e94f159dc2","019cf80d-4266-7117-8a51-54e13c84aca4","","756","
                <div class=""stimulus-container"">
                    <img src=""images/semantic_sequence/kitchen_operations_semantic/kitchen_operations_semantic_3.png"" class=""exp-image"">
                    <div class=""question-area"">
                        <p style=""font-size: 20px; font-weight: bold; margin: 0;"">Is there a person in this image?</p>
                    </div>
                </div>","0","main_experiment_trial","3","kitchen_operations_semantic","semantic_sequence","","","","",""
"","","","","","html-keyboard-response","23","124822","0.0-23.0","C083122313ED412FA4EB27591D1A7887","019cf80f-4a2d-7372-a8ff-81e94f159dc2","019cf80d-4266-7117-8a51-54e13c84aca4","","null","
                <div class=""stimulus-container"">
                    <img src=""images/semantic_sequence/kitchen_operations_semantic/kitchen_operations_semantic_4.png"" class=""exp-image"">
                    <div class=""question-area""></div> 
                </div>","null","","","","","","","","",""
"","","","","","html-button-response","24","125422","0.0-24.0","C083122313ED412FA4EB27591D1A7887","019cf80f-4a2d-7372-a8ff-81e94f159dc2","019cf80d-4266-7117-8a51-54e13c84aca4","","600","
                <div class=""stimulus-container"">
                    <img src=""images/semantic_sequence/kitchen_operations_semantic/kitchen_operations_semantic_4.png"" class=""exp-image"">
                    <div class=""question-area"">
                        <p style=""font-size: 20px; font-weight: bold; margin: 0;"">Is there a person in this image?</p>
                    </div>
                </div>","0","main_experiment_trial","4","kitchen_operations_semantic","semantic_sequence","","","","",""
"","","","","","html-keyboard-response","25","130426","0.0-25.0","C083122313ED412FA4EB27591D1A7887","019cf80f-4a2d-7372-a8ff-81e94f159dc2","019cf80d-4266-7117-8a51-54e13c84aca4","","null","
                <div class=""stimulus-container"">
                    <img src=""images/semantic_sequence/kitchen_operations_semantic/kitchen_operations_semantic_5.png"" class=""exp-image"">
                    <div class=""question-area""></div> 
                </div>","null","","","","","","","","",""
"","","","","","html-button-response","26","130990","0.0-26.0","C083122313ED412FA4EB27591D1A7887","019cf80f-4a2d-7372-a8ff-81e94f159dc2","019cf80d-4266-7117-8a51-54e13c84aca4","","564","
                <div class=""stimulus-container"">
                    <img src=""images/semantic_sequence/kitchen_operations_semantic/kitchen_operations_semantic_5.png"" class=""exp-image"">
                    <div class=""question-area"">
                        <p style=""font-size: 20px; font-weight: bold; margin: 0;"">Is there a person in this image?</p>
                    </div>
                </div>","0","main_experiment_trial","5","kitchen_operations_semantic","semantic_sequence","","","","",""
"","","","","","html-keyboard-response","27","135992","0.0-27.0","C083122313ED412FA4EB27591D1A7887","019cf80f-4a2d-7372-a8ff-81e94f159dc2","019cf80d-4266-7117-8a51-54e13c84aca4","","null","
                <div class=""stimulus-container"">
                    <img src=""images/semantic_sequence/kitchen_operations_semantic/kitchen_operations_semantic_6.png"" class=""exp-image"">
                    <div class=""question-area""></div> 
                </div>","null","","","","","","","","",""
"","","","","","html-button-response","28","136838","0.0-28.0","C083122313ED412FA4EB27591D1A7887","019cf80f-4a2d-7372-a8ff-81e94f159dc2","019cf80d-4266-7117-8a51-54e13c84aca4","","846","
                <div class=""stimulus-container"">
                    <img src=""images/semantic_sequence/kitchen_operations_semantic/kitchen_operations_semantic_6.png"" class=""exp-image"">
                    <div class=""question-area"">
                        <p style=""font-size: 20px; font-weight: bold; margin: 0;"">Is there a person in this image?</p>
                    </div>
                </div>","0","main_experiment_trial","6","kitchen_operations_semantic","semantic_sequence","","","","",""
"","","","","","html-keyboard-response","29","141843","0.0-29.0","C083122313ED412FA4EB27591D1A7887","019cf80f-4a2d-7372-a8ff-81e94f159dc2","019cf80d-4266-7117-8a51-54e13c84aca4","","null","
                <div class=""stimulus-container"">
                    <img src=""images/semantic_sequence/kitchen_operations_semantic/kitchen_operations_semantic_7.png"" class=""exp-image"">
                    <div class=""question-area""></div> 
                </div>","null","","","","","","","","",""
"","","","","","html-button-response","30","143023","0.0-30.0","C083122313ED412FA4EB27591D1A7887","019cf80f-4a2d-7372-a8ff-81e94f159dc2","019cf80d-4266-7117-8a51-54e13c84aca4","","1180","
                <div class=""stimulus-container"">
                    <img src=""images/semantic_sequence/kitchen_operations_semantic/kitchen_operations_semantic_7.png"" class=""exp-image"">
                    <div class=""question-area"">
                        <p style=""font-size: 20px; font-weight: bold; margin: 0;"">Is there a person in this image?</p>
                    </div>
                </div>","0","main_experiment_trial","7","kitchen_operations_semantic","semantic_sequence","","","","",""
"","","","","","html-keyboard-response","31","148038","0.0-31.0","C083122313ED412FA4EB27591D1A7887","019cf80f-4a2d-7372-a8ff-81e94f159dc2","019cf80d-4266-7117-8a51-54e13c84aca4","","null","
                <div class=""stimulus-container"">
                    <img src=""images/semantic_sequence/kitchen_operations_semantic/kitchen_operations_semantic_8.png"" class=""exp-image"">
                    <div class=""question-area""></div> 
                </div>","null","","","","","","","","",""
"","","","","","html-button-response","32","151047","0.0-32.0","C083122313ED412FA4EB27591D1A7887","019cf80f-4a2d-7372-a8ff-81e94f159dc2","019cf80d-4266-7117-8a51-54e13c84aca4","","null","
                <div class=""stimulus-container"">
                    <img src=""images/semantic_sequence/kitchen_operations_semantic/kitchen_operations_semantic_8.png"" class=""exp-image"">
                    <div class=""question-area"">
                        <p style=""font-size: 20px; font-weight: bold; margin: 0;"">Is there a person in this image?</p>
                    </div>
                </div>","null","main_experiment_trial","8","kitchen_operations_semantic","semantic_sequence","","","","",""
"","","","","","html-keyboard-response","33","156055","0.0-33.0","C083122313ED412FA4EB27591D1A7887","019cf80f-4a2d-7372-a8ff-81e94f159dc2","019cf80d-4266-7117-8a51-54e13c84aca4","","null","
                <div class=""stimulus-container"">
                    <img src=""images/semantic_sequence/kitchen_operations_semantic/kitchen_operations_semantic_9.png"" class=""exp-image"">
                    <div class=""question-area""></div> 
                </div>","null","","","","","","","","",""
"","","","","","html-button-response","34","157106","0.0-34.0","C083122313ED412FA4EB27591D1A7887","019cf80f-4a2d-7372-a8ff-81e94f159dc2","019cf80d-4266-7117-8a51-54e13c84aca4","","1051","
                <div class=""stimulus-container"">
                    <img src=""images/semantic_sequence/kitchen_operations_semantic/kitchen_operations_semantic_9.png"" class=""exp-image"">
                    <div class=""question-area"">
                        <p style=""font-size: 20px; font-weight: bold; margin: 0;"">Is there a person in this image?</p>
                    </div>
                </div>","0","main_experiment_trial","9","kitchen_operations_semantic","semantic_sequence","","","","",""
"","","","","","html-keyboard-response","35","162112","0.0-35.0","C083122313ED412FA4EB27591D1A7887","019cf80f-4a2d-7372-a8ff-81e94f159dc2","019cf80d-4266-7117-8a51-54e13c84aca4","","null","
                <div class=""stimulus-container"">
                    <img src=""images/semantic_sequence/kitchen_operations_semantic/kitchen_operations_semantic_ten.png"" class=""exp-image"">
                    <div class=""question-area""></div> 
                </div>","null","","","","","","","","",""
"","","","","","html-button-response","36","164355","0.0-36.0","C083122313ED412FA4EB27591D1A7887","019cf80f-4a2d-7372-a8ff-81e94f159dc2","019cf80d-4266-7117-8a51-54e13c84aca4","","2242","
                <div class=""stimulus-container"">
                    <img src=""images/semantic_sequence/kitchen_operations_semantic/kitchen_operations_semantic_ten.png"" class=""exp-image"">
                    <div class=""question-area"">
                        <p style=""font-size: 20px; font-weight: bold; margin: 0;"">Is there a person in this image?</p>
                    </div>
                </div>","0","main_experiment_trial","ten","kitchen_operations_semantic","semantic_sequence","","","","",""
"","","","","","html-keyboard-response","37","165368","0.0-37.0","C083122313ED412FA4EB27591D1A7887","019cf80f-4a2d-7372-a8ff-81e94f159dc2","019cf80d-4266-7117-8a51-54e13c84aca4","","null","<div style=""background-color: white; width: 100vw; height: 100vh;""></div>","null","","","","","","","","",""
"","","","","","html-keyboard-response","38","170380","0.0-38.0","C083122313ED412FA4EB27591D1A7887","019cf80f-4a2d-7372-a8ff-81e94f159dc2","019cf80d-4266-7117-8a51-54e13c84aca4","","null","
                <div class=""stimulus-container"">
                    <img src=""images/semantic_sequence/visiting_cities_semantic/visiting_cities_semantic_1.png"" class=""exp-image"">
                    <div class=""question-area""></div> 
                </div>","null","","","","","","","","",""
"","","","","","html-button-response","39","171640","0.0-39.0","C083122313ED412FA4EB27591D1A7887","019cf80f-4a2d-7372-a8ff-81e94f159dc2","019cf80d-4266-7117-8a51-54e13c84aca4","","1259","
                <div class=""stimulus-container"">
                    <img src=""images/semantic_sequence/visiting_cities_semantic/visiting_cities_semantic_1.png"" class=""exp-image"">
                    <div class=""question-area"">
                        <p style=""font-size: 20px; font-weight: bold; margin: 0;"">Is there a person in this image?</p>
                    </div>
                </div>","0","main_experiment_trial","1","visiting_cities_semantic","semantic_sequence","","","","",""
"","","","","","html-keyboard-response","40","176647","0.0-40.0","C083122313ED412FA4EB27591D1A7887","019cf80f-4a2d-7372-a8ff-81e94f159dc2","019cf80d-4266-7117-8a51-54e13c84aca4","","null","
                <div class=""stimulus-container"">
                    <img src=""images/semantic_sequence/visiting_cities_semantic/visiting_cities_semantic_2.png"" class=""exp-image"">
                    <div class=""question-area""></div> 
                </div>","null","","","","","","","","",""
"","","","","","html-button-response","41","177406","0.0-41.0","C083122313ED412FA4EB27591D1A7887","019cf80f-4a2d-7372-a8ff-81e94f159dc2","019cf80d-4266-7117-8a51-54e13c84aca4","","758","
                <div class=""stimulus-container"">
                    <img src=""images/semantic_sequence/visiting_cities_semantic/visiting_cities_semantic_2.png"" class=""exp-image"">
                    <div class=""question-area"">
                        <p style=""font-size: 20px; font-weight: bold; margin: 0;"">Is there a person in this image?</p>
                    </div>
                </div>","1","main_experiment_trial","2","visiting_cities_semantic","semantic_sequence","","","","",""
"","","","","","html-keyboard-response","42","182417","0.0-42.0","C083122313ED412FA4EB27591D1A7887","019cf80f-4a2d-7372-a8ff-81e94f159dc2","019cf80d-4266-7117-8a51-54e13c84aca4","","null","
                <div class=""stimulus-container"">
                    <img src=""images/semantic_sequence/visiting_cities_semantic/visiting_cities_semantic_3.png"" class=""exp-image"">
                    <div class=""question-area""></div> 
                </div>","null","","","","","","","","",""
"","","","","","html-button-response","43","184242","0.0-43.0","C083122313ED412FA4EB27591D1A7887","019cf80f-4a2d-7372-a8ff-81e94f159dc2","019cf80d-4266-7117-8a51-54e13c84aca4","","1825","
                <div class=""stimulus-container"">
                    <img src=""images/semantic_sequence/visiting_cities_semantic/visiting_cities_semantic_3.png"" class=""exp-image"">
                    <div class=""question-area"">
                        <p style=""font-size: 20px; font-weight: bold; margin: 0;"">Is there a person in this image?</p>
                    </div>
                </div>","1","main_experiment_trial","3","visiting_cities_semantic","semantic_sequence","","","","",""
"","","","","","html-keyboard-response","44","189246","0.0-44.0","C083122313ED412FA4EB27591D1A7887","019cf80f-4a2d-7372-a8ff-81e94f159dc2","019cf80d-4266-7117-8a51-54e13c84aca4","","null","
                <div class=""stimulus-container"">
                    <img src=""images/semantic_sequence/visiting_cities_semantic/visiting_cities_semantic_4.png"" class=""exp-image"">
                    <div class=""question-area""></div> 
                </div>","null","","","","","","","","",""
"","","","","","html-button-response","45","189908","0.0-45.0","C083122313ED412FA4EB27591D1A7887","019cf80f-4a2d-7372-a8ff-81e94f159dc2","019cf80d-4266-7117-8a51-54e13c84aca4","","662","
                <div class=""stimulus-container"">
                    <img src=""images/semantic_sequence/visiting_cities_semantic/visiting_cities_semantic_4.png"" class=""exp-image"">
                    <div class=""question-area"">
                        <p style=""font-size: 20px; font-weight: bold; margin: 0;"">Is there a person in this image?</p>
                    </div>
                </div>","1","main_experiment_trial","4","visiting_cities_semantic","semantic_sequence","","","","",""
"","","","","","html-keyboard-response","46","194916","0.0-46.0","C083122313ED412FA4EB27591D1A7887","019cf80f-4a2d-7372-a8ff-81e94f159dc2","019cf80d-4266-7117-8a51-54e13c84aca4","","null","
                <div class=""stimulus-container"">
                    <img src=""images/semantic_sequence/visiting_cities_semantic/visiting_cities_semantic_5.png"" class=""exp-image"">
                    <div class=""question-area""></div> 
                </div>","null","","","","","","","","",""
"","","","","","html-button-response","47","196937","0.0-47.0","C083122313ED412FA4EB27591D1A7887","019cf80f-4a2d-7372-a8ff-81e94f159dc2","019cf80d-4266-7117-8a51-54e13c84aca4","","2020","
                <div class=""stimulus-container"">
                    <img src=""images/semantic_sequence/visiting_cities_semantic/visiting_cities_semantic_5.png"" class=""exp-image"">
                    <div class=""question-area"">
                        <p style=""font-size: 20px; font-weight: bold; margin: 0;"">Is there a person in this image?</p>
                    </div>
                </div>","0","main_experiment_trial","5","visiting_cities_semantic","semantic_sequence","","","","",""
"","","","","","html-keyboard-response","48","201944","0.0-48.0","C083122313ED412FA4EB27591D1A7887","019cf80f-4a2d-7372-a8ff-81e94f159dc2","019cf80d-4266-7117-8a51-54e13c84aca4","","null","
                <div class=""stimulus-container"">
                    <img src=""images/semantic_sequence/visiting_cities_semantic/visiting_cities_semantic_6.png"" class=""exp-image"">
                    <div class=""question-area""></div> 
                </div>","null","","","","","","","","",""
"","","","","","html-button-response","49","204287","0.0-49.0","C083122313ED412FA4EB27591D1A7887","019cf80f-4a2d-7372-a8ff-81e94f159dc2","019cf80d-4266-7117-8a51-54e13c84aca4","","2342","
                <div class=""stimulus-container"">
                    <img src=""images/semantic_sequence/visiting_cities_semantic/visiting_cities_semantic_6.png"" class=""exp-image"">
                    <div class=""question-area"">
                        <p style=""font-size: 20px; font-weight: bold; margin: 0;"">Is there a person in this image?</p>
                    </div>
                </div>","1","main_experiment_trial","6","visiting_cities_semantic","semantic_sequence","","","","",""
"","","","","","html-keyboard-response","50","209293","0.0-50.0","C083122313ED412FA4EB27591D1A7887","019cf80f-4a2d-7372-a8ff-81e94f159dc2","019cf80d-4266-7117-8a51-54e13c84aca4","","null","
                <div class=""stimulus-container"">
                    <img src=""images/semantic_sequence/visiting_cities_semantic/visiting_cities_semantic_7.png"" class=""exp-image"">
                    <div class=""question-area""></div> 
                </div>","null","","","","","","","","",""
"","","","","","html-button-response","51","211640","0.0-51.0","C083122313ED412FA4EB27591D1A7887","019cf80f-4a2d-7372-a8ff-81e94f159dc2","019cf80d-4266-7117-8a51-54e13c84aca4","","2347","
                <div class=""stimulus-container"">
                    <img src=""images/semantic_sequence/visiting_cities_semantic/visiting_cities_semantic_7.png"" class=""exp-image"">
                    <div class=""question-area"">
                        <p style=""font-size: 20px; font-weight: bold; margin: 0;"">Is there a person in this image?</p>
                    </div>
                </div>","0","main_experiment_trial","7","visiting_cities_semantic","semantic_sequence","","","","",""
"","","","","","html-keyboard-response","52","216648","0.0-52.0","C083122313ED412FA4EB27591D1A7887","019cf80f-4a2d-7372-a8ff-81e94f159dc2","019cf80d-4266-7117-8a51-54e13c84aca4","","null","
                <div class=""stimulus-container"">
                    <img src=""images/semantic_sequence/visiting_cities_semantic/visiting_cities_semantic_8.png"" class=""exp-image"">
                    <div class=""question-area""></div> 
                </div>","null","","","","","","","","",""
"","","","","","html-button-response","53","218091","0.0-53.0","C083122313ED412FA4EB27591D1A7887","019cf80f-4a2d-7372-a8ff-81e94f159dc2","019cf80d-4266-7117-8a51-54e13c84aca4","","1442","
                <div class=""stimulus-container"">
                    <img src=""images/semantic_sequence/visiting_cities_semantic/visiting_cities_semantic_8.png"" class=""exp-image"">
                    <div class=""question-area"">
                        <p style=""font-size: 20px; font-weight: bold; margin: 0;"">Is there a person in this image?</p>
                    </div>
                </div>","0","main_experiment_trial","8","visiting_cities_semantic","semantic_sequence","","","","",""
"","","","","","html-keyboard-response","54","223107","0.0-54.0","C083122313ED412FA4EB27591D1A7887","019cf80f-4a2d-7372-a8ff-81e94f159dc2","019cf80d-4266-7117-8a51-54e13c84aca4","","null","
                <div class=""stimulus-container"">
                    <img src=""images/semantic_sequence/visiting_cities_semantic/visiting_cities_semantic_9.png"" class=""exp-image"">
                    <div class=""question-area""></div> 
                </div>","null","","","","","","","","",""
"","","","","","html-button-response","55","224626","0.0-55.0","C083122313ED412FA4EB27591D1A7887","019cf80f-4a2d-7372-a8ff-81e94f159dc2","019cf80d-4266-7117-8a51-54e13c84aca4","","1519","
                <div class=""stimulus-container"">
                    <img src=""images/semantic_sequence/visiting_cities_semantic/visiting_cities_semantic_9.png"" class=""exp-image"">
                    <div class=""question-area"">
                        <p style=""font-size: 20px; font-weight: bold; margin: 0;"">Is there a person in this image?</p>
                    </div>
                </div>","0","main_experiment_trial","9","visiting_cities_semantic","semantic_sequence","","","","",""
"","","","","","html-keyboard-response","56","229633","0.0-56.0","C083122313ED412FA4EB27591D1A7887","019cf80f-4a2d-7372-a8ff-81e94f159dc2","019cf80d-4266-7117-8a51-54e13c84aca4","","null","
                <div class=""stimulus-container"">
                    <img src=""images/semantic_sequence/visiting_cities_semantic/visiting_cities_semantic_ten.png"" class=""exp-image"">
                    <div class=""question-area""></div> 
                </div>","null","","","","","","","","",""
"","","","","","html-button-response","57","231640","0.0-57.0","C083122313ED412FA4EB27591D1A7887","019cf80f-4a2d-7372-a8ff-81e94f159dc2","019cf80d-4266-7117-8a51-54e13c84aca4","","2006","
                <div class=""stimulus-container"">
                    <img src=""images/semantic_sequence/visiting_cities_semantic/visiting_cities_semantic_ten.png"" class=""exp-image"">
                    <div class=""question-area"">
                        <p style=""font-size: 20px; font-weight: bold; margin: 0;"">Is there a person in this image?</p>
                    </div>
                </div>","0","main_experiment_trial","ten","visiting_cities_semantic","semantic_sequence","","","","",""
"","","","","","html-keyboard-response","58","232641","0.0-58.0","C083122313ED412FA4EB27591D1A7887","019cf80f-4a2d-7372-a8ff-81e94f159dc2","019cf80d-4266-7117-8a51-54e13c84aca4","","null","<div style=""background-color: white; width: 100vw; height: 100vh;""></div>","null","","","","","","","","",""
"","","","","","html-keyboard-response","59","237642","0.0-59.0","C083122313ED412FA4EB27591D1A7887","019cf80f-4a2d-7372-a8ff-81e94f159dc2","019cf80d-4266-7117-8a51-54e13c84aca4","","null","
                <div class=""stimulus-container"">
                    <img src=""images/schematic_sequence/flight_scheme/flight_scheme_1.png"" class=""exp-image"">
                    <div class=""question-area""></div> 
                </div>","null","","","","","","","","",""
"","","","","","html-button-response","60","239559","0.0-60.0","C083122313ED412FA4EB27591D1A7887","019cf80f-4a2d-7372-a8ff-81e94f159dc2","019cf80d-4266-7117-8a51-54e13c84aca4","","1916","
                <div class=""stimulus-container"">
                    <img src=""images/schematic_sequence/flight_scheme/flight_scheme_1.png"" class=""exp-image"">
                    <div class=""question-area"">
                        <p style=""font-size: 20px; font-weight: bold; margin: 0;"">Is there a person in this image?</p>
                    </div>
                </div>","0","main_experiment_trial","1","flight_scheme","schematic_sequence","","","","",""
"","","","","","html-keyboard-response","61","244562","0.0-61.0","C083122313ED412FA4EB27591D1A7887","019cf80f-4a2d-7372-a8ff-81e94f159dc2","019cf80d-4266-7117-8a51-54e13c84aca4","","null","
                <div class=""stimulus-container"">
                    <img src=""images/schematic_sequence/flight_scheme/flight_scheme_2.png"" class=""exp-image"">
                    <div class=""question-area""></div> 
                </div>","null","","","","","","","","",""
"","","","","","html-button-response","62","245392","0.0-62.0","C083122313ED412FA4EB27591D1A7887","019cf80f-4a2d-7372-a8ff-81e94f159dc2","019cf80d-4266-7117-8a51-54e13c84aca4","","829","
                <div class=""stimulus-container"">
                    <img src=""images/schematic_sequence/flight_scheme/flight_scheme_2.png"" class=""exp-image"">
                    <div class=""question-area"">
                        <p style=""font-size: 20px; font-weight: bold; margin: 0;"">Is there a person in this image?</p>
                    </div>
                </div>","1","main_experiment_trial","2","flight_scheme","schematic_sequence","","","","",""
"","","","","","html-keyboard-response","63","250394","0.0-63.0","C083122313ED412FA4EB27591D1A7887","019cf80f-4a2d-7372-a8ff-81e94f159dc2","019cf80d-4266-7117-8a51-54e13c84aca4","","null","
                <div class=""stimulus-container"">
                    <img src=""images/schematic_sequence/flight_scheme/flight_scheme_3.png"" class=""exp-image"">
                    <div class=""question-area""></div> 
                </div>","null","","","","","","","","",""
"","","","","","html-button-response","64","251138","0.0-64.0","C083122313ED412FA4EB27591D1A7887","019cf80f-4a2d-7372-a8ff-81e94f159dc2","019cf80d-4266-7117-8a51-54e13c84aca4","","744","
                <div class=""stimulus-container"">
                    <img src=""images/schematic_sequence/flight_scheme/flight_scheme_3.png"" class=""exp-image"">
                    <div class=""question-area"">
                        <p style=""font-size: 20px; font-weight: bold; margin: 0;"">Is there a person in this image?</p>
                    </div>
                </div>","0","main_experiment_trial","3","flight_scheme","schematic_sequence","","","","",""
"","","","","","html-keyboard-response","65","256154","0.0-65.0","C083122313ED412FA4EB27591D1A7887","019cf80f-4a2d-7372-a8ff-81e94f159dc2","019cf80d-4266-7117-8a51-54e13c84aca4","","null","
                <div class=""stimulus-container"">
                    <img src=""images/schematic_sequence/flight_scheme/flight_scheme_4.png"" class=""exp-image"">
                    <div class=""question-area""></div> 
                </div>","null","","","","","","","","",""
"","","","","","html-button-response","66","257908","0.0-66.0","C083122313ED412FA4EB27591D1A7887","019cf80f-4a2d-7372-a8ff-81e94f159dc2","019cf80d-4266-7117-8a51-54e13c84aca4","","1753","
                <div class=""stimulus-container"">
                    <img src=""images/schematic_sequence/flight_scheme/flight_scheme_4.png"" class=""exp-image"">
                    <div class=""question-area"">
                        <p style=""font-size: 20px; font-weight: bold; margin: 0;"">Is there a person in this image?</p>
                    </div>
                </div>","0","main_experiment_trial","4","flight_scheme","schematic_sequence","","","","",""
"","","","","","html-keyboard-response","67","262923","0.0-67.0","C083122313ED412FA4EB27591D1A7887","019cf80f-4a2d-7372-a8ff-81e94f159dc2","019cf80d-4266-7117-8a51-54e13c84aca4","","null","
                <div class=""stimulus-container"">
                    <img src=""images/schematic_sequence/flight_scheme/flight_scheme_5.png"" class=""exp-image"">
                    <div class=""question-area""></div> 
                </div>","null","","","","","","","","",""
"","","","","","html-button-response","68","264306","0.0-68.0","C083122313ED412FA4EB27591D1A7887","019cf80f-4a2d-7372-a8ff-81e94f159dc2","019cf80d-4266-7117-8a51-54e13c84aca4","","1383","
                <div class=""stimulus-container"">
                    <img src=""images/schematic_sequence/flight_scheme/flight_scheme_5.png"" class=""exp-image"">
                    <div class=""question-area"">
                        <p style=""font-size: 20px; font-weight: bold; margin: 0;"">Is there a person in this image?</p>
                    </div>
                </div>","0","main_experiment_trial","5","flight_scheme","schematic_sequence","","","","",""
"","","","","","html-keyboard-response","69","269321","0.0-69.0","C083122313ED412FA4EB27591D1A7887","019cf80f-4a2d-7372-a8ff-81e94f159dc2","019cf80d-4266-7117-8a51-54e13c84aca4","","null","
                <div class=""stimulus-container"">
                    <img src=""images/schematic_sequence/flight_scheme/flight_scheme_6.png"" class=""exp-image"">
                    <div class=""question-area""></div> 
                </div>","null","","","","","","","","",""
"","","","","","html-button-response","70","271155","0.0-70.0","C083122313ED412FA4EB27591D1A7887","019cf80f-4a2d-7372-a8ff-81e94f159dc2","019cf80d-4266-7117-8a51-54e13c84aca4","","1834","
                <div class=""stimulus-container"">
                    <img src=""images/schematic_sequence/flight_scheme/flight_scheme_6.png"" class=""exp-image"">
                    <div class=""question-area"">
                        <p style=""font-size: 20px; font-weight: bold; margin: 0;"">Is there a person in this image?</p>
                    </div>
                </div>","1","main_experiment_trial","6","flight_scheme","schematic_sequence","","","","",""
"","","","","","html-keyboard-response","71","276162","0.0-71.0","C083122313ED412FA4EB27591D1A7887","019cf80f-4a2d-7372-a8ff-81e94f159dc2","019cf80d-4266-7117-8a51-54e13c84aca4","","null","
                <div class=""stimulus-container"">
                    <img src=""images/schematic_sequence/flight_scheme/flight_scheme_7.png"" class=""exp-image"">
                    <div class=""question-area""></div> 
                </div>","null","","","","","","","","",""
"","","","","","html-button-response","72","277573","0.0-72.0","C083122313ED412FA4EB27591D1A7887","019cf80f-4a2d-7372-a8ff-81e94f159dc2","019cf80d-4266-7117-8a51-54e13c84aca4","","1411","
                <div class=""stimulus-container"">
                    <img src=""images/schematic_sequence/flight_scheme/flight_scheme_7.png"" class=""exp-image"">
                    <div class=""question-area"">
                        <p style=""font-size: 20px; font-weight: bold; margin: 0;"">Is there a person in this image?</p>
                    </div>
                </div>","1","main_experiment_trial","7","flight_scheme","schematic_sequence","","","","",""
"","","","","","html-keyboard-response","73","282587","0.0-73.0","C083122313ED412FA4EB27591D1A7887","019cf80f-4a2d-7372-a8ff-81e94f159dc2","019cf80d-4266-7117-8a51-54e13c84aca4","","null","
                <div class=""stimulus-container"">
                    <img src=""images/schematic_sequence/flight_scheme/flight_scheme_8.png"" class=""exp-image"">
                    <div class=""question-area""></div> 
                </div>","null","","","","","","","","",""
"","","","","","html-button-response","74","285172","0.0-74.0","C083122313ED412FA4EB27591D1A7887","019cf80f-4a2d-7372-a8ff-81e94f159dc2","019cf80d-4266-7117-8a51-54e13c84aca4","","2585","
                <div class=""stimulus-container"">
                    <img src=""images/schematic_sequence/flight_scheme/flight_scheme_8.png"" class=""exp-image"">
                    <div class=""question-area"">
                        <p style=""font-size: 20px; font-weight: bold; margin: 0;"">Is there a person in this image?</p>
                    </div>
                </div>","1","main_experiment_trial","8","flight_scheme","schematic_sequence","","","","",""
"","","","","","html-keyboard-response","75","290177","0.0-75.0","C083122313ED412FA4EB27591D1A7887","019cf80f-4a2d-7372-a8ff-81e94f159dc2","019cf80d-4266-7117-8a51-54e13c84aca4","","null","
                <div class=""stimulus-container"">
                    <img src=""images/schematic_sequence/flight_scheme/flight_scheme_9.png"" class=""exp-image"">
                    <div class=""question-area""></div> 
                </div>","null","","","","","","","","",""
"","","","","","html-button-response","76","292771","0.0-76.0","C083122313ED412FA4EB27591D1A7887","019cf80f-4a2d-7372-a8ff-81e94f159dc2","019cf80d-4266-7117-8a51-54e13c84aca4","","2593","
                <div class=""stimulus-container"">
                    <img src=""images/schematic_sequence/flight_scheme/flight_scheme_9.png"" class=""exp-image"">
                    <div class=""question-area"">
                        <p style=""font-size: 20px; font-weight: bold; margin: 0;"">Is there a person in this image?</p>
                    </div>
                </div>","0","main_experiment_trial","9","flight_scheme","schematic_sequence","","","","",""
"","","","","","html-keyboard-response","77","297772","0.0-77.0","C083122313ED412FA4EB27591D1A7887","019cf80f-4a2d-7372-a8ff-81e94f159dc2","019cf80d-4266-7117-8a51-54e13c84aca4","","null","
                <div class=""stimulus-container"">
                    <img src=""images/schematic_sequence/flight_scheme/flight_scheme_ten.png"" class=""exp-image"">
                    <div class=""question-area""></div> 
                </div>","null","","","","","","","","",""
"","","","","","html-button-response","78","299487","0.0-78.0","C083122313ED412FA4EB27591D1A7887","019cf80f-4a2d-7372-a8ff-81e94f159dc2","019cf80d-4266-7117-8a51-54e13c84aca4","","1715","
                <div class=""stimulus-container"">
                    <img src=""images/schematic_sequence/flight_scheme/flight_scheme_ten.png"" class=""exp-image"">
                    <div class=""question-area"">
                        <p style=""font-size: 20px; font-weight: bold; margin: 0;"">Is there a person in this image?</p>
                    </div>
                </div>","0","main_experiment_trial","ten","flight_scheme","schematic_sequence","","","","",""
"","","","","","html-keyboard-response","79","300493","0.0-79.0","C083122313ED412FA4EB27591D1A7887","019cf80f-4a2d-7372-a8ff-81e94f159dc2","019cf80d-4266-7117-8a51-54e13c84aca4","","null","<div style=""background-color: white; width: 100vw; height: 100vh;""></div>","null","","","","","","","","",""
"","","","","","html-keyboard-response","80","305503","0.0-80.0","C083122313ED412FA4EB27591D1A7887","019cf80f-4a2d-7372-a8ff-81e94f159dc2","019cf80d-4266-7117-8a51-54e13c84aca4","","null","
                <div class=""stimulus-container"">
                    <img src=""images/semantic_sequence/housework_semantic/housework_semantic_1.png"" class=""exp-image"">
                    <div class=""question-area""></div> 
                </div>","null","","","","","","","","",""
"","","","","","html-button-response","81","308105","0.0-81.0","C083122313ED412FA4EB27591D1A7887","019cf80f-4a2d-7372-a8ff-81e94f159dc2","019cf80d-4266-7117-8a51-54e13c84aca4","","2601","
                <div class=""stimulus-container"">
                    <img src=""images/semantic_sequence/housework_semantic/housework_semantic_1.png"" class=""exp-image"">
                    <div class=""question-area"">
                        <p style=""font-size: 20px; font-weight: bold; margin: 0;"">Is there a person in this image?</p>
                    </div>
                </div>","0","main_experiment_trial","1","housework_semantic","semantic_sequence","","","","",""
"","","","","","html-keyboard-response","82","313109","0.0-82.0","C083122313ED412FA4EB27591D1A7887","019cf80f-4a2d-7372-a8ff-81e94f159dc2","019cf80d-4266-7117-8a51-54e13c84aca4","","null","
                <div class=""stimulus-container"">
                    <img src=""images/semantic_sequence/housework_semantic/housework_semantic_2.png"" class=""exp-image"">
                    <div class=""question-area""></div> 
                </div>","null","","","","","","","","",""
"","","","","","html-button-response","83","314972","0.0-83.0","C083122313ED412FA4EB27591D1A7887","019cf80f-4a2d-7372-a8ff-81e94f159dc2","019cf80d-4266-7117-8a51-54e13c84aca4","","1863","
                <div class=""stimulus-container"">
                    <img src=""images/semantic_sequence/housework_semantic/housework_semantic_2.png"" class=""exp-image"">
                    <div class=""question-area"">
                        <p style=""font-size: 20px; font-weight: bold; margin: 0;"">Is there a person in this image?</p>
                    </div>
                </div>","0","main_experiment_trial","2","housework_semantic","semantic_sequence","","","","",""
"","","","","","html-keyboard-response","84","319975","0.0-84.0","C083122313ED412FA4EB27591D1A7887","019cf80f-4a2d-7372-a8ff-81e94f159dc2","019cf80d-4266-7117-8a51-54e13c84aca4","","null","
                <div class=""stimulus-container"">
                    <img src=""images/semantic_sequence/housework_semantic/housework_semantic_3.png"" class=""exp-image"">
                    <div class=""question-area""></div> 
                </div>","null","","","","","","","","",""
"","","","","","html-button-response","85","320741","0.0-85.0","C083122313ED412FA4EB27591D1A7887","019cf80f-4a2d-7372-a8ff-81e94f159dc2","019cf80d-4266-7117-8a51-54e13c84aca4","","765","
                <div class=""stimulus-container"">
                    <img src=""images/semantic_sequence/housework_semantic/housework_semantic_3.png"" class=""exp-image"">
                    <div class=""question-area"">
                        <p style=""font-size: 20px; font-weight: bold; margin: 0;"">Is there a person in this image?</p>
                    </div>
                </div>","0","main_experiment_trial","3","housework_semantic","semantic_sequence","","","","",""
"","","","","","html-keyboard-response","86","325750","0.0-86.0","C083122313ED412FA4EB27591D1A7887","019cf80f-4a2d-7372-a8ff-81e94f159dc2","019cf80d-4266-7117-8a51-54e13c84aca4","","null","
                <div class=""stimulus-container"">
                    <img src=""images/semantic_sequence/housework_semantic/housework_semantic_4.png"" class=""exp-image"">
                    <div class=""question-area""></div> 
                </div>","null","","","","","","","","",""
"","","","","","html-button-response","87","327989","0.0-87.0","C083122313ED412FA4EB27591D1A7887","019cf80f-4a2d-7372-a8ff-81e94f159dc2","019cf80d-4266-7117-8a51-54e13c84aca4","","2238","
                <div class=""stimulus-container"">
                    <img src=""images/semantic_sequence/housework_semantic/housework_semantic_4.png"" class=""exp-image"">
                    <div class=""question-area"">
                        <p style=""font-size: 20px; font-weight: bold; margin: 0;"">Is there a person in this image?</p>
                    </div>
                </div>","0","main_experiment_trial","4","housework_semantic","semantic_sequence","","","","",""
"","","","","","html-keyboard-response","88","333000","0.0-88.0","C083122313ED412FA4EB27591D1A7887","019cf80f-4a2d-7372-a8ff-81e94f159dc2","019cf80d-4266-7117-8a51-54e13c84aca4","","null","
                <div class=""stimulus-container"">
                    <img src=""images/semantic_sequence/housework_semantic/housework_semantic_5.png"" class=""exp-image"">
                    <div class=""question-area""></div> 
                </div>","null","","","","","","","","",""
"","","","","","html-button-response","89","335292","0.0-89.0","C083122313ED412FA4EB27591D1A7887","019cf80f-4a2d-7372-a8ff-81e94f159dc2","019cf80d-4266-7117-8a51-54e13c84aca4","","2292","
                <div class=""stimulus-container"">
                    <img src=""images/semantic_sequence/housework_semantic/housework_semantic_5.png"" class=""exp-image"">
                    <div class=""question-area"">
                        <p style=""font-size: 20px; font-weight: bold; margin: 0;"">Is there a person in this image?</p>
                    </div>
                </div>","0","main_experiment_trial","5","housework_semantic","semantic_sequence","","","","",""
"","","","","","html-keyboard-response","90","340297","0.0-90.0","C083122313ED412FA4EB27591D1A7887","019cf80f-4a2d-7372-a8ff-81e94f159dc2","019cf80d-4266-7117-8a51-54e13c84aca4","","null","
                <div class=""stimulus-container"">
                    <img src=""images/semantic_sequence/housework_semantic/housework_semantic_6.png"" class=""exp-image"">
                    <div class=""question-area""></div> 
                </div>","null","","","","","","","","",""
"","","","","","html-button-response","91","341623","0.0-91.0","C083122313ED412FA4EB27591D1A7887","019cf80f-4a2d-7372-a8ff-81e94f159dc2","019cf80d-4266-7117-8a51-54e13c84aca4","","1326","
                <div class=""stimulus-container"">
                    <img src=""images/semantic_sequence/housework_semantic/housework_semantic_6.png"" class=""exp-image"">
                    <div class=""question-area"">
                        <p style=""font-size: 20px; font-weight: bold; margin: 0;"">Is there a person in this image?</p>
                    </div>
                </div>","0","main_experiment_trial","6","housework_semantic","semantic_sequence","","","","",""
"","","","","","html-keyboard-response","92","346631","0.0-92.0","C083122313ED412FA4EB27591D1A7887","019cf80f-4a2d-7372-a8ff-81e94f159dc2","019cf80d-4266-7117-8a51-54e13c84aca4","","null","
                <div class=""stimulus-container"">
                    <img src=""images/semantic_sequence/housework_semantic/housework_semantic_7.png"" class=""exp-image"">
                    <div class=""question-area""></div> 
                </div>","null","","","","","","","","",""
"","","","","","html-button-response","93","348473","0.0-93.0","C083122313ED412FA4EB27591D1A7887","019cf80f-4a2d-7372-a8ff-81e94f159dc2","019cf80d-4266-7117-8a51-54e13c84aca4","","1841","
                <div class=""stimulus-container"">
                    <img src=""images/semantic_sequence/housework_semantic/housework_semantic_7.png"" class=""exp-image"">
                    <div class=""question-area"">
                        <p style=""font-size: 20px; font-weight: bold; margin: 0;"">Is there a person in this image?</p>
                    </div>
                </div>","0","main_experiment_trial","7","housework_semantic","semantic_sequence","","","","",""
"","","","","","html-keyboard-response","94","353480","0.0-94.0","C083122313ED412FA4EB27591D1A7887","019cf80f-4a2d-7372-a8ff-81e94f159dc2","019cf80d-4266-7117-8a51-54e13c84aca4","","null","
                <div class=""stimulus-container"">
                    <img src=""images/semantic_sequence/housework_semantic/housework_semantic_8.png"" class=""exp-image"">
                    <div class=""question-area""></div> 
                </div>","null","","","","","","","","",""
"","","","","","html-button-response","95","355870","0.0-95.0","C083122313ED412FA4EB27591D1A7887","019cf80f-4a2d-7372-a8ff-81e94f159dc2","019cf80d-4266-7117-8a51-54e13c84aca4","","2390","
                <div class=""stimulus-container"">
                    <img src=""images/semantic_sequence/housework_semantic/housework_semantic_8.png"" class=""exp-image"">
                    <div class=""question-area"">
                        <p style=""font-size: 20px; font-weight: bold; margin: 0;"">Is there a person in this image?</p>
                    </div>
                </div>","0","main_experiment_trial","8","housework_semantic","semantic_sequence","","","","",""
"","","","","","html-keyboard-response","96","360878","0.0-96.0","C083122313ED412FA4EB27591D1A7887","019cf80f-4a2d-7372-a8ff-81e94f159dc2","019cf80d-4266-7117-8a51-54e13c84aca4","","null","
                <div class=""stimulus-container"">
                    <img src=""images/semantic_sequence/housework_semantic/housework_semantic_9.png"" class=""exp-image"">
                    <div class=""question-area""></div> 
                </div>","null","","","","","","","","",""
"","","","","","html-button-response","97","362855","0.0-97.0","C083122313ED412FA4EB27591D1A7887","019cf80f-4a2d-7372-a8ff-81e94f159dc2","019cf80d-4266-7117-8a51-54e13c84aca4","","1977","
                <div class=""stimulus-container"">
                    <img src=""images/semantic_sequence/housework_semantic/housework_semantic_9.png"" class=""exp-image"">
                    <div class=""question-area"">
                        <p style=""font-size: 20px; font-weight: bold; margin: 0;"">Is there a person in this image?</p>
                    </div>
                </div>","0","main_experiment_trial","9","housework_semantic","semantic_sequence","","","","",""
"","","","","","html-keyboard-response","98","367870","0.0-98.0","C083122313ED412FA4EB27591D1A7887","019cf80f-4a2d-7372-a8ff-81e94f159dc2","019cf80d-4266-7117-8a51-54e13c84aca4","","null","
                <div class=""stimulus-container"">
                    <img src=""images/semantic_sequence/housework_semantic/housework_semantic_ten.png"" class=""exp-image"">
                    <div class=""question-area""></div> 
                </div>","null","","","","","","","","",""
"","","","","","html-button-response","99","368905","0.0-99.0","C083122313ED412FA4EB27591D1A7887","019cf80f-4a2d-7372-a8ff-81e94f159dc2","019cf80d-4266-7117-8a51-54e13c84aca4","","1034","
                <div class=""stimulus-container"">
                    <img src=""images/semantic_sequence/housework_semantic/housework_semantic_ten.png"" class=""exp-image"">
                    <div class=""question-area"">
                        <p style=""font-size: 20px; font-weight: bold; margin: 0;"">Is there a person in this image?</p>
                    </div>
                </div>","0","main_experiment_trial","ten","housework_semantic","semantic_sequence","","","","",""
"","","","","","html-keyboard-response","100","369917","0.0-100.0","C083122313ED412FA4EB27591D1A7887","019cf80f-4a2d-7372-a8ff-81e94f159dc2","019cf80d-4266-7117-8a51-54e13c84aca4","","null","<div style=""background-color: white; width: 100vw; height: 100vh;""></div>","null","","","","","","","","",""
"","","","","","html-keyboard-response","101","374922","0.0-101.0","C083122313ED412FA4EB27591D1A7887","019cf80f-4a2d-7372-a8ff-81e94f159dc2","019cf80d-4266-7117-8a51-54e13c84aca4","","null","
                <div class=""stimulus-container"">
                    <img src=""images/schematic_sequence/interview_scheme/interview_scheme_1.png"" class=""exp-image"">
                    <div class=""question-area""></div> 
                </div>","null","","","","","","","","",""
"","","","","","html-button-response","102","376052","0.0-102.0","C083122313ED412FA4EB27591D1A7887","019cf80f-4a2d-7372-a8ff-81e94f159dc2","019cf80d-4266-7117-8a51-54e13c84aca4","","1129","
                <div class=""stimulus-container"">
                    <img src=""images/schematic_sequence/interview_scheme/interview_scheme_1.png"" class=""exp-image"">
                    <div class=""question-area"">
                        <p style=""font-size: 20px; font-weight: bold; margin: 0;"">Is there a person in this image?</p>
                    </div>
                </div>","1","main_experiment_trial","1","interview_scheme","schematic_sequence","","","","",""
"","","","","","html-keyboard-response","103","381058","0.0-103.0","C083122313ED412FA4EB27591D1A7887","019cf80f-4a2d-7372-a8ff-81e94f159dc2","019cf80d-4266-7117-8a51-54e13c84aca4","","null","
                <div class=""stimulus-container"">
                    <img src=""images/schematic_sequence/interview_scheme/interview_scheme_2.png"" class=""exp-image"">
                    <div class=""question-area""></div> 
                </div>","null","","","","","","","","",""
"","","","","","html-button-response","104","381708","0.0-104.0","C083122313ED412FA4EB27591D1A7887","019cf80f-4a2d-7372-a8ff-81e94f159dc2","019cf80d-4266-7117-8a51-54e13c84aca4","","649","
                <div class=""stimulus-container"">
                    <img src=""images/schematic_sequence/interview_scheme/interview_scheme_2.png"" class=""exp-image"">
                    <div class=""question-area"">
                        <p style=""font-size: 20px; font-weight: bold; margin: 0;"">Is there a person in this image?</p>
                    </div>
                </div>","0","main_experiment_trial","2","interview_scheme","schematic_sequence","","","","",""
"","","","","","html-keyboard-response","105","386713","0.0-105.0","C083122313ED412FA4EB27591D1A7887","019cf80f-4a2d-7372-a8ff-81e94f159dc2","019cf80d-4266-7117-8a51-54e13c84aca4","","null","
                <div class=""stimulus-container"">
                    <img src=""images/schematic_sequence/interview_scheme/interview_scheme_3.png"" class=""exp-image"">
                    <div class=""question-area""></div> 
                </div>","null","","","","","","","","",""
"","","","","","html-button-response","106","389729","0.0-106.0","C083122313ED412FA4EB27591D1A7887","019cf80f-4a2d-7372-a8ff-81e94f159dc2","019cf80d-4266-7117-8a51-54e13c84aca4","","null","
                <div class=""stimulus-container"">
                    <img src=""images/schematic_sequence/interview_scheme/interview_scheme_3.png"" class=""exp-image"">
                    <div class=""question-area"">
                        <p style=""font-size: 20px; font-weight: bold; margin: 0;"">Is there a person in this image?</p>
                    </div>
                </div>","null","main_experiment_trial","3","interview_scheme","schematic_sequence","","","","",""
"","","","","","html-keyboard-response","107","394737","0.0-107.0","C083122313ED412FA4EB27591D1A7887","019cf80f-4a2d-7372-a8ff-81e94f159dc2","019cf80d-4266-7117-8a51-54e13c84aca4","","null","
                <div class=""stimulus-container"">
                    <img src=""images/schematic_sequence/interview_scheme/interview_scheme_4.png"" class=""exp-image"">
                    <div class=""question-area""></div> 
                </div>","null","","","","","","","","",""
"","","","","","html-button-response","108","397738","0.0-108.0","C083122313ED412FA4EB27591D1A7887","019cf80f-4a2d-7372-a8ff-81e94f159dc2","019cf80d-4266-7117-8a51-54e13c84aca4","","null","
                <div class=""stimulus-container"">
                    <img src=""images/schematic_sequence/interview_scheme/interview_scheme_4.png"" class=""exp-image"">
                    <div class=""question-area"">
                        <p style=""font-size: 20px; font-weight: bold; margin: 0;"">Is there a person in this image?</p>
                    </div>
                </div>","null","main_experiment_trial","4","interview_scheme","schematic_sequence","","","","",""
"","","","","","html-keyboard-response","109","402745","0.0-109.0","C083122313ED412FA4EB27591D1A7887","019cf80f-4a2d-7372-a8ff-81e94f159dc2","019cf80d-4266-7117-8a51-54e13c84aca4","","null","
                <div class=""stimulus-container"">
                    <img src=""images/schematic_sequence/interview_scheme/interview_scheme_5.png"" class=""exp-image"">
                    <div class=""question-area""></div> 
                </div>","null","","","","","","","","",""
"","","","","","html-button-response","110","403755","0.0-110.0","C083122313ED412FA4EB27591D1A7887","019cf80f-4a2d-7372-a8ff-81e94f159dc2","019cf80d-4266-7117-8a51-54e13c84aca4","","1009","
                <div class=""stimulus-container"">
                    <img src=""images/schematic_sequence/interview_scheme/interview_scheme_5.png"" class=""exp-image"">
                    <div class=""question-area"">
                        <p style=""font-size: 20px; font-weight: bold; margin: 0;"">Is there a person in this image?</p>
                    </div>
                </div>","0","main_experiment_trial","5","interview_scheme","schematic_sequence","","","","",""
"","","","","","html-keyboard-response","111","408756","0.0-111.0","C083122313ED412FA4EB27591D1A7887","019cf80f-4a2d-7372-a8ff-81e94f159dc2","019cf80d-4266-7117-8a51-54e13c84aca4","","null","
                <div class=""stimulus-container"">
                    <img src=""images/schematic_sequence/interview_scheme/interview_scheme_6.png"" class=""exp-image"">
                    <div class=""question-area""></div> 
                </div>","null","","","","","","","","",""
"","","","","","html-button-response","112","410408","0.0-112.0","C083122313ED412FA4EB27591D1A7887","019cf80f-4a2d-7372-a8ff-81e94f159dc2","019cf80d-4266-7117-8a51-54e13c84aca4","","1651","
                <div class=""stimulus-container"">
                    <img src=""images/schematic_sequence/interview_scheme/interview_scheme_6.png"" class=""exp-image"">
                    <div class=""question-area"">
                        <p style=""font-size: 20px; font-weight: bold; margin: 0;"">Is there a person in this image?</p>
                    </div>
                </div>","0","main_experiment_trial","6","interview_scheme","schematic_sequence","","","","",""
"","","","","","html-keyboard-response","113","415413","0.0-113.0","C083122313ED412FA4EB27591D1A7887","019cf80f-4a2d-7372-a8ff-81e94f159dc2","019cf80d-4266-7117-8a51-54e13c84aca4","","null","
                <div class=""stimulus-container"">
                    <img src=""images/schematic_sequence/interview_scheme/interview_scheme_7.png"" class=""exp-image"">
                    <div class=""question-area""></div> 
                </div>","null","","","","","","","","",""
"","","","","","html-button-response","114","416642","0.0-114.0","C083122313ED412FA4EB27591D1A7887","019cf80f-4a2d-7372-a8ff-81e94f159dc2","019cf80d-4266-7117-8a51-54e13c84aca4","","1228","
                <div class=""stimulus-container"">
                    <img src=""images/schematic_sequence/interview_scheme/interview_scheme_7.png"" class=""exp-image"">
                    <div class=""question-area"">
                        <p style=""font-size: 20px; font-weight: bold; margin: 0;"">Is there a person in this image?</p>
                    </div>
                </div>","0","main_experiment_trial","7","interview_scheme","schematic_sequence","","","","",""
"","","","","","html-keyboard-response","115","421645","0.0-115.0","C083122313ED412FA4EB27591D1A7887","019cf80f-4a2d-7372-a8ff-81e94f159dc2","019cf80d-4266-7117-8a51-54e13c84aca4","","null","
                <div class=""stimulus-container"">
                    <img src=""images/schematic_sequence/interview_scheme/interview_scheme_8.png"" class=""exp-image"">
                    <div class=""question-area""></div> 
                </div>","null","","","","","","","","",""
"","","","","","html-button-response","116","422876","0.0-116.0","C083122313ED412FA4EB27591D1A7887","019cf80f-4a2d-7372-a8ff-81e94f159dc2","019cf80d-4266-7117-8a51-54e13c84aca4","","1230","
                <div class=""stimulus-container"">
                    <img src=""images/schematic_sequence/interview_scheme/interview_scheme_8.png"" class=""exp-image"">
                    <div class=""question-area"">
                        <p style=""font-size: 20px; font-weight: bold; margin: 0;"">Is there a person in this image?</p>
                    </div>
                </div>","0","main_experiment_trial","8","interview_scheme","schematic_sequence","","","","",""
"","","","","","html-keyboard-response","117","427879","0.0-117.0","C083122313ED412FA4EB27591D1A7887","019cf80f-4a2d-7372-a8ff-81e94f159dc2","019cf80d-4266-7117-8a51-54e13c84aca4","","null","
                <div class=""stimulus-container"">
                    <img src=""images/schematic_sequence/interview_scheme/interview_scheme_9.png"" class=""exp-image"">
                    <div class=""question-area""></div> 
                </div>","null","","","","","","","","",""
"","","","","","html-button-response","118","429857","0.0-118.0","C083122313ED412FA4EB27591D1A7887","019cf80f-4a2d-7372-a8ff-81e94f159dc2","019cf80d-4266-7117-8a51-54e13c84aca4","","1978","
                <div class=""stimulus-container"">
                    <img src=""images/schematic_sequence/interview_scheme/interview_scheme_9.png"" class=""exp-image"">
                    <div class=""question-area"">
                        <p style=""font-size: 20px; font-weight: bold; margin: 0;"">Is there a person in this image?</p>
                    </div>
                </div>","0","main_experiment_trial","9","interview_scheme","schematic_sequence","","","","",""
"","","","","","html-keyboard-response","119","434873","0.0-119.0","C083122313ED412FA4EB27591D1A7887","019cf80f-4a2d-7372-a8ff-81e94f159dc2","019cf80d-4266-7117-8a51-54e13c84aca4","","null","
                <div class=""stimulus-container"">
                    <img src=""images/schematic_sequence/interview_scheme/interview_scheme_ten.png"" class=""exp-image"">
                    <div class=""question-area""></div> 
                </div>","null","","","","","","","","",""
"","","","","","html-button-response","120","435859","0.0-120.0","C083122313ED412FA4EB27591D1A7887","019cf80f-4a2d-7372-a8ff-81e94f159dc2","019cf80d-4266-7117-8a51-54e13c84aca4","","986","
                <div class=""stimulus-container"">
                    <img src=""images/schematic_sequence/interview_scheme/interview_scheme_ten.png"" class=""exp-image"">
                    <div class=""question-area"">
                        <p style=""font-size: 20px; font-weight: bold; margin: 0;"">Is there a person in this image?</p>
                    </div>
                </div>","0","main_experiment_trial","ten","interview_scheme","schematic_sequence","","","","",""
"","","","","","html-keyboard-response","121","436869","0.0-121.0","C083122313ED412FA4EB27591D1A7887","019cf80f-4a2d-7372-a8ff-81e94f159dc2","019cf80d-4266-7117-8a51-54e13c84aca4","","null","<div style=""background-color: white; width: 100vw; height: 100vh;""></div>","null","","","","","","","","",""
"","","","","","html-keyboard-response","122","441884","0.0-122.0","C083122313ED412FA4EB27591D1A7887","019cf80f-4a2d-7372-a8ff-81e94f159dc2","019cf80d-4266-7117-8a51-54e13c84aca4","","null","
                <div class=""stimulus-container"">
                    <img src=""images/semantic_sequence/redecorating_a_house_semantic/redecorating_a_house_semantic_1.png"" class=""exp-image"">
                    <div class=""question-area""></div> 
                </div>","null","","","","","","","","",""
"","","","","","html-button-response","123","442692","0.0-123.0","C083122313ED412FA4EB27591D1A7887","019cf80f-4a2d-7372-a8ff-81e94f159dc2","019cf80d-4266-7117-8a51-54e13c84aca4","","807","
                <div class=""stimulus-container"">
                    <img src=""images/semantic_sequence/redecorating_a_house_semantic/redecorating_a_house_semantic_1.png"" class=""exp-image"">
                    <div class=""question-area"">
                        <p style=""font-size: 20px; font-weight: bold; margin: 0;"">Is there a person in this image?</p>
                    </div>
                </div>","0","main_experiment_trial","1","redecorating_a_house_semantic","semantic_sequence","","","","",""
"","","","","","html-keyboard-response","124","447699","0.0-124.0","C083122313ED412FA4EB27591D1A7887","019cf80f-4a2d-7372-a8ff-81e94f159dc2","019cf80d-4266-7117-8a51-54e13c84aca4","","null","
                <div class=""stimulus-container"">
                    <img src=""images/semantic_sequence/redecorating_a_house_semantic/redecorating_a_house_semantic_2.png"" class=""exp-image"">
                    <div class=""question-area""></div> 
                </div>","null","","","","","","","","",""
"","","","","","html-button-response","125","448457","0.0-125.0","C083122313ED412FA4EB27591D1A7887","019cf80f-4a2d-7372-a8ff-81e94f159dc2","019cf80d-4266-7117-8a51-54e13c84aca4","","757","
                <div class=""stimulus-container"">
                    <img src=""images/semantic_sequence/redecorating_a_house_semantic/redecorating_a_house_semantic_2.png"" class=""exp-image"">
                    <div class=""question-area"">
                        <p style=""font-size: 20px; font-weight: bold; margin: 0;"">Is there a person in this image?</p>
                    </div>
                </div>","0","main_experiment_trial","2","redecorating_a_house_semantic","semantic_sequence","","","","",""
"","","","","","html-keyboard-response","126","453467","0.0-126.0","C083122313ED412FA4EB27591D1A7887","019cf80f-4a2d-7372-a8ff-81e94f159dc2","019cf80d-4266-7117-8a51-54e13c84aca4","","null","
                <div class=""stimulus-container"">
                    <img src=""images/semantic_sequence/redecorating_a_house_semantic/redecorating_a_house_semantic_3.png"" class=""exp-image"">
                    <div class=""question-area""></div> 
                </div>","null","","","","","","","","",""
"","","","","","html-button-response","127","454142","0.0-127.0","C083122313ED412FA4EB27591D1A7887","019cf80f-4a2d-7372-a8ff-81e94f159dc2","019cf80d-4266-7117-8a51-54e13c84aca4","","675","
                <div class=""stimulus-container"">
                    <img src=""images/semantic_sequence/redecorating_a_house_semantic/redecorating_a_house_semantic_3.png"" class=""exp-image"">
                    <div class=""question-area"">
                        <p style=""font-size: 20px; font-weight: bold; margin: 0;"">Is there a person in this image?</p>
                    </div>
                </div>","0","main_experiment_trial","3","redecorating_a_house_semantic","semantic_sequence","","","","",""
"","","","","","html-keyboard-response","128","459149","0.0-128.0","C083122313ED412FA4EB27591D1A7887","019cf80f-4a2d-7372-a8ff-81e94f159dc2","019cf80d-4266-7117-8a51-54e13c84aca4","","null","
                <div class=""stimulus-container"">
                    <img src=""images/semantic_sequence/redecorating_a_house_semantic/redecorating_a_house_semantic_4.png"" class=""exp-image"">
                    <div class=""question-area""></div> 
                </div>","null","","","","","","","","",""
"","","","","","html-button-response","129","460110","0.0-129.0","C083122313ED412FA4EB27591D1A7887","019cf80f-4a2d-7372-a8ff-81e94f159dc2","019cf80d-4266-7117-8a51-54e13c84aca4","","960","
                <div class=""stimulus-container"">
                    <img src=""images/semantic_sequence/redecorating_a_house_semantic/redecorating_a_house_semantic_4.png"" class=""exp-image"">
                    <div class=""question-area"">
                        <p style=""font-size: 20px; font-weight: bold; margin: 0;"">Is there a person in this image?</p>
                    </div>
                </div>","0","main_experiment_trial","4","redecorating_a_house_semantic","semantic_sequence","","","","",""
"","","","","","html-keyboard-response","130","465118","0.0-130.0","C083122313ED412FA4EB27591D1A7887","019cf80f-4a2d-7372-a8ff-81e94f159dc2","019cf80d-4266-7117-8a51-54e13c84aca4","","null","
                <div class=""stimulus-container"">
                    <img src=""images/semantic_sequence/redecorating_a_house_semantic/redecorating_a_house_semantic_5.png"" class=""exp-image"">
                    <div class=""question-area""></div> 
                </div>","null","","","","","","","","",""
"","","","","","html-button-response","131","467340","0.0-131.0","C083122313ED412FA4EB27591D1A7887","019cf80f-4a2d-7372-a8ff-81e94f159dc2","019cf80d-4266-7117-8a51-54e13c84aca4","","2221","
                <div class=""stimulus-container"">
                    <img src=""images/semantic_sequence/redecorating_a_house_semantic/redecorating_a_house_semantic_5.png"" class=""exp-image"">
                    <div class=""question-area"">
                        <p style=""font-size: 20px; font-weight: bold; margin: 0;"">Is there a person in this image?</p>
                    </div>
                </div>","0","main_experiment_trial","5","redecorating_a_house_semantic","semantic_sequence","","","","",""
"","","","","","html-keyboard-response","132","472342","0.0-132.0","C083122313ED412FA4EB27591D1A7887","019cf80f-4a2d-7372-a8ff-81e94f159dc2","019cf80d-4266-7117-8a51-54e13c84aca4","","null","
                <div class=""stimulus-container"">
                    <img src=""images/semantic_sequence/redecorating_a_house_semantic/redecorating_a_house_semantic_6.png"" class=""exp-image"">
                    <div class=""question-area""></div> 
                </div>","null","","","","","","","","",""
"","","","","","html-button-response","133","473339","0.0-133.0","C083122313ED412FA4EB27591D1A7887","019cf80f-4a2d-7372-a8ff-81e94f159dc2","019cf80d-4266-7117-8a51-54e13c84aca4","","996","
                <div class=""stimulus-container"">
                    <img src=""images/semantic_sequence/redecorating_a_house_semantic/redecorating_a_house_semantic_6.png"" class=""exp-image"">
                    <div class=""question-area"">
                        <p style=""font-size: 20px; font-weight: bold; margin: 0;"">Is there a person in this image?</p>
                    </div>
                </div>","0","main_experiment_trial","6","redecorating_a_house_semantic","semantic_sequence","","","","",""
"","","","","","html-keyboard-response","134","478345","0.0-134.0","C083122313ED412FA4EB27591D1A7887","019cf80f-4a2d-7372-a8ff-81e94f159dc2","019cf80d-4266-7117-8a51-54e13c84aca4","","null","
                <div class=""stimulus-container"">
                    <img src=""images/semantic_sequence/redecorating_a_house_semantic/redecorating_a_house_semantic_7.png"" class=""exp-image"">
                    <div class=""question-area""></div> 
                </div>","null","","","","","","","","",""
"","","","","","html-button-response","135","480225","0.0-135.0","C083122313ED412FA4EB27591D1A7887","019cf80f-4a2d-7372-a8ff-81e94f159dc2","019cf80d-4266-7117-8a51-54e13c84aca4","","1879","
                <div class=""stimulus-container"">
                    <img src=""images/semantic_sequence/redecorating_a_house_semantic/redecorating_a_house_semantic_7.png"" class=""exp-image"">
                    <div class=""question-area"">
                        <p style=""font-size: 20px; font-weight: bold; margin: 0;"">Is there a person in this image?</p>
                    </div>
                </div>","0","main_experiment_trial","7","redecorating_a_house_semantic","semantic_sequence","","","","",""
"","","","","","html-keyboard-response","136","485239","0.0-136.0","C083122313ED412FA4EB27591D1A7887","019cf80f-4a2d-7372-a8ff-81e94f159dc2","019cf80d-4266-7117-8a51-54e13c84aca4","","null","
                <div class=""stimulus-container"">
                    <img src=""images/semantic_sequence/redecorating_a_house_semantic/redecorating_a_house_semantic_8.png"" class=""exp-image"">
                    <div class=""question-area""></div> 
                </div>","null","","","","","","","","",""
"","","","","","html-button-response","137","485875","0.0-137.0","C083122313ED412FA4EB27591D1A7887","019cf80f-4a2d-7372-a8ff-81e94f159dc2","019cf80d-4266-7117-8a51-54e13c84aca4","","636","
                <div class=""stimulus-container"">
                    <img src=""images/semantic_sequence/redecorating_a_house_semantic/redecorating_a_house_semantic_8.png"" class=""exp-image"">
                    <div class=""question-area"">
                        <p style=""font-size: 20px; font-weight: bold; margin: 0;"">Is there a person in this image?</p>
                    </div>
                </div>","0","main_experiment_trial","8","redecorating_a_house_semantic","semantic_sequence","","","","",""
"","","","","","html-keyboard-response","138","490876","0.0-138.0","C083122313ED412FA4EB27591D1A7887","019cf80f-4a2d-7372-a8ff-81e94f159dc2","019cf80d-4266-7117-8a51-54e13c84aca4","","null","
                <div class=""stimulus-container"">
                    <img src=""images/semantic_sequence/redecorating_a_house_semantic/redecorating_a_house_semantic_9.png"" class=""exp-image"">
                    <div class=""question-area""></div> 
                </div>","null","","","","","","","","",""
"","","","","","html-button-response","139","492092","0.0-139.0","C083122313ED412FA4EB27591D1A7887","019cf80f-4a2d-7372-a8ff-81e94f159dc2","019cf80d-4266-7117-8a51-54e13c84aca4","","1216","
                <div class=""stimulus-container"">
                    <img src=""images/semantic_sequence/redecorating_a_house_semantic/redecorating_a_house_semantic_9.png"" class=""exp-image"">
                    <div class=""question-area"">
                        <p style=""font-size: 20px; font-weight: bold; margin: 0;"">Is there a person in this image?</p>
                    </div>
                </div>","0","main_experiment_trial","9","redecorating_a_house_semantic","semantic_sequence","","","","",""
"","","","","","html-keyboard-response","140","497093","0.0-140.0","C083122313ED412FA4EB27591D1A7887","019cf80f-4a2d-7372-a8ff-81e94f159dc2","019cf80d-4266-7117-8a51-54e13c84aca4","","null","
                <div class=""stimulus-container"">
                    <img src=""images/semantic_sequence/redecorating_a_house_semantic/redecorating_a_house_semantic_ten.png"" class=""exp-image"">
                    <div class=""question-area""></div> 
                </div>","null","","","","","","","","",""
"","","","","","html-button-response","141","498093","0.0-141.0","C083122313ED412FA4EB27591D1A7887","019cf80f-4a2d-7372-a8ff-81e94f159dc2","019cf80d-4266-7117-8a51-54e13c84aca4","","1000","
                <div class=""stimulus-container"">
                    <img src=""images/semantic_sequence/redecorating_a_house_semantic/redecorating_a_house_semantic_ten.png"" class=""exp-image"">
                    <div class=""question-area"">
                        <p style=""font-size: 20px; font-weight: bold; margin: 0;"">Is there a person in this image?</p>
                    </div>
                </div>","0","main_experiment_trial","ten","redecorating_a_house_semantic","semantic_sequence","","","","",""
"","","","","","html-keyboard-response","142","499107","0.0-142.0","C083122313ED412FA4EB27591D1A7887","019cf80f-4a2d-7372-a8ff-81e94f159dc2","019cf80d-4266-7117-8a51-54e13c84aca4","","null","<div style=""background-color: white; width: 100vw; height: 100vh;""></div>","null","","","","","","","","",""
"","","","","","html-keyboard-response","143","504121","0.0-143.0","C083122313ED412FA4EB27591D1A7887","019cf80f-4a2d-7372-a8ff-81e94f159dc2","019cf80d-4266-7117-8a51-54e13c84aca4","","null","
                <div class=""stimulus-container"">
                    <img src=""images/schematic_sequence/supermarket_scheme/supermarket_scheme_1.png"" class=""exp-image"">
                    <div class=""question-area""></div> 
                </div>","null","","","","","","","","",""
"","","","","","html-button-response","144","505908","0.0-144.0","C083122313ED412FA4EB27591D1A7887","019cf80f-4a2d-7372-a8ff-81e94f159dc2","019cf80d-4266-7117-8a51-54e13c84aca4","","1787","
                <div class=""stimulus-container"">
                    <img src=""images/schematic_sequence/supermarket_scheme/supermarket_scheme_1.png"" class=""exp-image"">
                    <div class=""question-area"">
                        <p style=""font-size: 20px; font-weight: bold; margin: 0;"">Is there a person in this image?</p>
                    </div>
                </div>","1","main_experiment_trial","1","supermarket_scheme","schematic_sequence","","","","",""
"","","","","","html-keyboard-response","145","510925","0.0-145.0","C083122313ED412FA4EB27591D1A7887","019cf80f-4a2d-7372-a8ff-81e94f159dc2","019cf80d-4266-7117-8a51-54e13c84aca4","","null","
                <div class=""stimulus-container"">
                    <img src=""images/schematic_sequence/supermarket_scheme/supermarket_scheme_2.png"" class=""exp-image"">
                    <div class=""question-area""></div> 
                </div>","null","","","","","","","","",""
"","","","","","html-button-response","146","511524","0.0-146.0","C083122313ED412FA4EB27591D1A7887","019cf80f-4a2d-7372-a8ff-81e94f159dc2","019cf80d-4266-7117-8a51-54e13c84aca4","","598","
                <div class=""stimulus-container"">
                    <img src=""images/schematic_sequence/supermarket_scheme/supermarket_scheme_2.png"" class=""exp-image"">
                    <div class=""question-area"">
                        <p style=""font-size: 20px; font-weight: bold; margin: 0;"">Is there a person in this image?</p>
                    </div>
                </div>","1","main_experiment_trial","2","supermarket_scheme","schematic_sequence","","","","",""
"","","","","","html-keyboard-response","147","516530","0.0-147.0","C083122313ED412FA4EB27591D1A7887","019cf80f-4a2d-7372-a8ff-81e94f159dc2","019cf80d-4266-7117-8a51-54e13c84aca4","","null","
                <div class=""stimulus-container"">
                    <img src=""images/schematic_sequence/supermarket_scheme/supermarket_scheme_3.png"" class=""exp-image"">
                    <div class=""question-area""></div> 
                </div>","null","","","","","","","","",""
"","","","","","html-button-response","148","517508","0.0-148.0","C083122313ED412FA4EB27591D1A7887","019cf80f-4a2d-7372-a8ff-81e94f159dc2","019cf80d-4266-7117-8a51-54e13c84aca4","","978","
                <div class=""stimulus-container"">
                    <img src=""images/schematic_sequence/supermarket_scheme/supermarket_scheme_3.png"" class=""exp-image"">
                    <div class=""question-area"">
                        <p style=""font-size: 20px; font-weight: bold; margin: 0;"">Is there a person in this image?</p>
                    </div>
                </div>","1","main_experiment_trial","3","supermarket_scheme","schematic_sequence","","","","",""
"","","","","","html-keyboard-response","149","522521","0.0-149.0","C083122313ED412FA4EB27591D1A7887","019cf80f-4a2d-7372-a8ff-81e94f159dc2","019cf80d-4266-7117-8a51-54e13c84aca4","","null","
                <div class=""stimulus-container"">
                    <img src=""images/schematic_sequence/supermarket_scheme/supermarket_scheme_4.png"" class=""exp-image"">
                    <div class=""question-area""></div> 
                </div>","null","","","","","","","","",""
"","","","","","html-button-response","150","523491","0.0-150.0","C083122313ED412FA4EB27591D1A7887","019cf80f-4a2d-7372-a8ff-81e94f159dc2","019cf80d-4266-7117-8a51-54e13c84aca4","","969","
                <div class=""stimulus-container"">
                    <img src=""images/schematic_sequence/supermarket_scheme/supermarket_scheme_4.png"" class=""exp-image"">
                    <div class=""question-area"">
                        <p style=""font-size: 20px; font-weight: bold; margin: 0;"">Is there a person in this image?</p>
                    </div>
                </div>","0","main_experiment_trial","4","supermarket_scheme","schematic_sequence","","","","",""
"","","","","","html-keyboard-response","151","528496","0.0-151.0","C083122313ED412FA4EB27591D1A7887","019cf80f-4a2d-7372-a8ff-81e94f159dc2","019cf80d-4266-7117-8a51-54e13c84aca4","","null","
                <div class=""stimulus-container"">
                    <img src=""images/schematic_sequence/supermarket_scheme/supermarket_scheme_5.png"" class=""exp-image"">
                    <div class=""question-area""></div> 
                </div>","null","","","","","","","","",""
"","","","","","html-button-response","152","530056","0.0-152.0","C083122313ED412FA4EB27591D1A7887","019cf80f-4a2d-7372-a8ff-81e94f159dc2","019cf80d-4266-7117-8a51-54e13c84aca4","","1559","
                <div class=""stimulus-container"">
                    <img src=""images/schematic_sequence/supermarket_scheme/supermarket_scheme_5.png"" class=""exp-image"">
                    <div class=""question-area"">
                        <p style=""font-size: 20px; font-weight: bold; margin: 0;"">Is there a person in this image?</p>
                    </div>
                </div>","1","main_experiment_trial","5","supermarket_scheme","schematic_sequence","","","","",""
"","","","","","html-keyboard-response","153","535059","0.0-153.0","C083122313ED412FA4EB27591D1A7887","019cf80f-4a2d-7372-a8ff-81e94f159dc2","019cf80d-4266-7117-8a51-54e13c84aca4","","null","
                <div class=""stimulus-container"">
                    <img src=""images/schematic_sequence/supermarket_scheme/supermarket_scheme_6.png"" class=""exp-image"">
                    <div class=""question-area""></div> 
                </div>","null","","","","","","","","",""
"","","","","","html-button-response","154","537224","0.0-154.0","C083122313ED412FA4EB27591D1A7887","019cf80f-4a2d-7372-a8ff-81e94f159dc2","019cf80d-4266-7117-8a51-54e13c84aca4","","2164","
                <div class=""stimulus-container"">
                    <img src=""images/schematic_sequence/supermarket_scheme/supermarket_scheme_6.png"" class=""exp-image"">
                    <div class=""question-area"">
                        <p style=""font-size: 20px; font-weight: bold; margin: 0;"">Is there a person in this image?</p>
                    </div>
                </div>","0","main_experiment_trial","6","supermarket_scheme","schematic_sequence","","","","",""
"","","","","","html-keyboard-response","155","542238","0.0-155.0","C083122313ED412FA4EB27591D1A7887","019cf80f-4a2d-7372-a8ff-81e94f159dc2","019cf80d-4266-7117-8a51-54e13c84aca4","","null","
                <div class=""stimulus-container"">
                    <img src=""images/schematic_sequence/supermarket_scheme/supermarket_scheme_7.png"" class=""exp-image"">
                    <div class=""question-area""></div> 
                </div>","null","","","","","","","","",""
"","","","","","html-button-response","156","542959","0.0-156.0","C083122313ED412FA4EB27591D1A7887","019cf80f-4a2d-7372-a8ff-81e94f159dc2","019cf80d-4266-7117-8a51-54e13c84aca4","","721","
                <div class=""stimulus-container"">
                    <img src=""images/schematic_sequence/supermarket_scheme/supermarket_scheme_7.png"" class=""exp-image"">
                    <div class=""question-area"">
                        <p style=""font-size: 20px; font-weight: bold; margin: 0;"">Is there a person in this image?</p>
                    </div>
                </div>","0","main_experiment_trial","7","supermarket_scheme","schematic_sequence","","","","",""
"","","","","","html-keyboard-response","157","547966","0.0-157.0","C083122313ED412FA4EB27591D1A7887","019cf80f-4a2d-7372-a8ff-81e94f159dc2","019cf80d-4266-7117-8a51-54e13c84aca4","","null","
                <div class=""stimulus-container"">
                    <img src=""images/schematic_sequence/supermarket_scheme/supermarket_scheme_8.png"" class=""exp-image"">
                    <div class=""question-area""></div> 
                </div>","null","","","","","","","","",""
"","","","","","html-button-response","158","550610","0.0-158.0","C083122313ED412FA4EB27591D1A7887","019cf80f-4a2d-7372-a8ff-81e94f159dc2","019cf80d-4266-7117-8a51-54e13c84aca4","","2643","
                <div class=""stimulus-container"">
                    <img src=""images/schematic_sequence/supermarket_scheme/supermarket_scheme_8.png"" class=""exp-image"">
                    <div class=""question-area"">
                        <p style=""font-size: 20px; font-weight: bold; margin: 0;"">Is there a person in this image?</p>
                    </div>
                </div>","0","main_experiment_trial","8","supermarket_scheme","schematic_sequence","","","","",""
"","","","","","html-keyboard-response","159","555622","0.0-159.0","C083122313ED412FA4EB27591D1A7887","019cf80f-4a2d-7372-a8ff-81e94f159dc2","019cf80d-4266-7117-8a51-54e13c84aca4","","null","
                <div class=""stimulus-container"">
                    <img src=""images/schematic_sequence/supermarket_scheme/supermarket_scheme_9.png"" class=""exp-image"">
                    <div class=""question-area""></div> 
                </div>","null","","","","","","","","",""
"","","","","","html-button-response","160","557171","0.0-160.0","C083122313ED412FA4EB27591D1A7887","019cf80f-4a2d-7372-a8ff-81e94f159dc2","019cf80d-4266-7117-8a51-54e13c84aca4","","1549","
                <div class=""stimulus-container"">
                    <img src=""images/schematic_sequence/supermarket_scheme/supermarket_scheme_9.png"" class=""exp-image"">
                    <div class=""question-area"">
                        <p style=""font-size: 20px; font-weight: bold; margin: 0;"">Is there a person in this image?</p>
                    </div>
                </div>","0","main_experiment_trial","9","supermarket_scheme","schematic_sequence","","","","",""
"","","","","","html-keyboard-response","161","562184","0.0-161.0","C083122313ED412FA4EB27591D1A7887","019cf80f-4a2d-7372-a8ff-81e94f159dc2","019cf80d-4266-7117-8a51-54e13c84aca4","","null","
                <div class=""stimulus-container"">
                    <img src=""images/schematic_sequence/supermarket_scheme/supermarket_scheme_ten.png"" class=""exp-image"">
                    <div class=""question-area""></div> 
                </div>","null","","","","","","","","",""
"","","","","","html-button-response","162","563605","0.0-162.0","C083122313ED412FA4EB27591D1A7887","019cf80f-4a2d-7372-a8ff-81e94f159dc2","019cf80d-4266-7117-8a51-54e13c84aca4","","1420","
                <div class=""stimulus-container"">
                    <img src=""images/schematic_sequence/supermarket_scheme/supermarket_scheme_ten.png"" class=""exp-image"">
                    <div class=""question-area"">
                        <p style=""font-size: 20px; font-weight: bold; margin: 0;"">Is there a person in this image?</p>
                    </div>
                </div>","1","main_experiment_trial","ten","supermarket_scheme","schematic_sequence","","","","",""
"","","","","","html-keyboard-response","163","564606","0.0-163.0","C083122313ED412FA4EB27591D1A7887","019cf80f-4a2d-7372-a8ff-81e94f159dc2","019cf80d-4266-7117-8a51-54e13c84aca4","","null","<div style=""background-color: white; width: 100vw; height: 100vh;""></div>","null","","","","","","","","",""
"","","","","","html-keyboard-response","164","569615","0.0-164.0","C083122313ED412FA4EB27591D1A7887","019cf80f-4a2d-7372-a8ff-81e94f159dc2","019cf80d-4266-7117-8a51-54e13c84aca4","","null","
                <div class=""stimulus-container"">
                    <img src=""images/schematic_sequence/dinner_party_scheme/dinner_party_scheme_1.png"" class=""exp-image"">
                    <div class=""question-area""></div> 
                </div>","null","","","","","","","","",""
"","","","","","html-button-response","165","570359","0.0-165.0","C083122313ED412FA4EB27591D1A7887","019cf80f-4a2d-7372-a8ff-81e94f159dc2","019cf80d-4266-7117-8a51-54e13c84aca4","","743","
                <div class=""stimulus-container"">
                    <img src=""images/schematic_sequence/dinner_party_scheme/dinner_party_scheme_1.png"" class=""exp-image"">
                    <div class=""question-area"">
                        <p style=""font-size: 20px; font-weight: bold; margin: 0;"">Is there a person in this image?</p>
                    </div>
                </div>","0","main_experiment_trial","1","dinner_party_scheme","schematic_sequence","","","","",""
"","","","","","html-keyboard-response","166","575373","0.0-166.0","C083122313ED412FA4EB27591D1A7887","019cf80f-4a2d-7372-a8ff-81e94f159dc2","019cf80d-4266-7117-8a51-54e13c84aca4","","null","
                <div class=""stimulus-container"">
                    <img src=""images/schematic_sequence/dinner_party_scheme/dinner_party_scheme_2.png"" class=""exp-image"">
                    <div class=""question-area""></div> 
                </div>","null","","","","","","","","",""
"","","","","","html-button-response","167","576674","0.0-167.0","C083122313ED412FA4EB27591D1A7887","019cf80f-4a2d-7372-a8ff-81e94f159dc2","019cf80d-4266-7117-8a51-54e13c84aca4","","1300","
                <div class=""stimulus-container"">
                    <img src=""images/schematic_sequence/dinner_party_scheme/dinner_party_scheme_2.png"" class=""exp-image"">
                    <div class=""question-area"">
                        <p style=""font-size: 20px; font-weight: bold; margin: 0;"">Is there a person in this image?</p>
                    </div>
                </div>","0","main_experiment_trial","2","dinner_party_scheme","schematic_sequence","","","","",""
"","","","","","html-keyboard-response","168","581683","0.0-168.0","C083122313ED412FA4EB27591D1A7887","019cf80f-4a2d-7372-a8ff-81e94f159dc2","019cf80d-4266-7117-8a51-54e13c84aca4","","null","
                <div class=""stimulus-container"">
                    <img src=""images/schematic_sequence/dinner_party_scheme/dinner_party_scheme_3.png"" class=""exp-image"">
                    <div class=""question-area""></div> 
                </div>","null","","","","","","","","",""
"","","","","","html-button-response","169","582894","0.0-169.0","C083122313ED412FA4EB27591D1A7887","019cf80f-4a2d-7372-a8ff-81e94f159dc2","019cf80d-4266-7117-8a51-54e13c84aca4","","1210","
                <div class=""stimulus-container"">
                    <img src=""images/schematic_sequence/dinner_party_scheme/dinner_party_scheme_3.png"" class=""exp-image"">
                    <div class=""question-area"">
                        <p style=""font-size: 20px; font-weight: bold; margin: 0;"">Is there a person in this image?</p>
                    </div>
                </div>","0","main_experiment_trial","3","dinner_party_scheme","schematic_sequence","","","","",""
"","","","","","html-keyboard-response","170","587899","0.0-170.0","C083122313ED412FA4EB27591D1A7887","019cf80f-4a2d-7372-a8ff-81e94f159dc2","019cf80d-4266-7117-8a51-54e13c84aca4","","null","
                <div class=""stimulus-container"">
                    <img src=""images/schematic_sequence/dinner_party_scheme/dinner_party_scheme_4.png"" class=""exp-image"">
                    <div class=""question-area""></div> 
                </div>","null","","","","","","","","",""
"","","","","","html-button-response","171","589809","0.0-171.0","C083122313ED412FA4EB27591D1A7887","019cf80f-4a2d-7372-a8ff-81e94f159dc2","019cf80d-4266-7117-8a51-54e13c84aca4","","1909","
                <div class=""stimulus-container"">
                    <img src=""images/schematic_sequence/dinner_party_scheme/dinner_party_scheme_4.png"" class=""exp-image"">
                    <div class=""question-area"">
                        <p style=""font-size: 20px; font-weight: bold; margin: 0;"">Is there a person in this image?</p>
                    </div>
                </div>","0","main_experiment_trial","4","dinner_party_scheme","schematic_sequence","","","","",""
"","","","","","html-keyboard-response","172","594814","0.0-172.0","C083122313ED412FA4EB27591D1A7887","019cf80f-4a2d-7372-a8ff-81e94f159dc2","019cf80d-4266-7117-8a51-54e13c84aca4","","null","
                <div class=""stimulus-container"">
                    <img src=""images/schematic_sequence/dinner_party_scheme/dinner_party_scheme_5.png"" class=""exp-image"">
                    <div class=""question-area""></div> 
                </div>","null","","","","","","","","",""
"","","","","","html-button-response","173","595942","0.0-173.0","C083122313ED412FA4EB27591D1A7887","019cf80f-4a2d-7372-a8ff-81e94f159dc2","019cf80d-4266-7117-8a51-54e13c84aca4","","1128","
                <div class=""stimulus-container"">
                    <img src=""images/schematic_sequence/dinner_party_scheme/dinner_party_scheme_5.png"" class=""exp-image"">
                    <div class=""question-area"">
                        <p style=""font-size: 20px; font-weight: bold; margin: 0;"">Is there a person in this image?</p>
                    </div>
                </div>","0","main_experiment_trial","5","dinner_party_scheme","schematic_sequence","","","","",""
"","","","","","html-keyboard-response","174","600955","0.0-174.0","C083122313ED412FA4EB27591D1A7887","019cf80f-4a2d-7372-a8ff-81e94f159dc2","019cf80d-4266-7117-8a51-54e13c84aca4","","null","
                <div class=""stimulus-container"">
                    <img src=""images/schematic_sequence/dinner_party_scheme/dinner_party_scheme_6.png"" class=""exp-image"">
                    <div class=""question-area""></div> 
                </div>","null","","","","","","","","",""
"","","","","","html-button-response","175","602059","0.0-175.0","C083122313ED412FA4EB27591D1A7887","019cf80f-4a2d-7372-a8ff-81e94f159dc2","019cf80d-4266-7117-8a51-54e13c84aca4","","1104","
                <div class=""stimulus-container"">
                    <img src=""images/schematic_sequence/dinner_party_scheme/dinner_party_scheme_6.png"" class=""exp-image"">
                    <div class=""question-area"">
                        <p style=""font-size: 20px; font-weight: bold; margin: 0;"">Is there a person in this image?</p>
                    </div>
                </div>","0","main_experiment_trial","6","dinner_party_scheme","schematic_sequence","","","","",""
"","","","","","html-keyboard-response","176","607075","0.0-176.0","C083122313ED412FA4EB27591D1A7887","019cf80f-4a2d-7372-a8ff-81e94f159dc2","019cf80d-4266-7117-8a51-54e13c84aca4","","null","
                <div class=""stimulus-container"">
                    <img src=""images/schematic_sequence/dinner_party_scheme/dinner_party_scheme_7.png"" class=""exp-image"">
                    <div class=""question-area""></div> 
                </div>","null","","","","","","","","",""
"","","","","","html-button-response","177","607974","0.0-177.0","C083122313ED412FA4EB27591D1A7887","019cf80f-4a2d-7372-a8ff-81e94f159dc2","019cf80d-4266-7117-8a51-54e13c84aca4","","899","
                <div class=""stimulus-container"">
                    <img src=""images/schematic_sequence/dinner_party_scheme/dinner_party_scheme_7.png"" class=""exp-image"">
                    <div class=""question-area"">
                        <p style=""font-size: 20px; font-weight: bold; margin: 0;"">Is there a person in this image?</p>
                    </div>
                </div>","0","main_experiment_trial","7","dinner_party_scheme","schematic_sequence","","","","",""
"","","","","","html-keyboard-response","178","612977","0.0-178.0","C083122313ED412FA4EB27591D1A7887","019cf80f-4a2d-7372-a8ff-81e94f159dc2","019cf80d-4266-7117-8a51-54e13c84aca4","","null","
                <div class=""stimulus-container"">
                    <img src=""images/schematic_sequence/dinner_party_scheme/dinner_party_scheme_8.png"" class=""exp-image"">
                    <div class=""question-area""></div> 
                </div>","null","","","","","","","","",""
"","","","","","html-button-response","179","615425","0.0-179.0","C083122313ED412FA4EB27591D1A7887","019cf80f-4a2d-7372-a8ff-81e94f159dc2","019cf80d-4266-7117-8a51-54e13c84aca4","","2447","
                <div class=""stimulus-container"">
                    <img src=""images/schematic_sequence/dinner_party_scheme/dinner_party_scheme_8.png"" class=""exp-image"">
                    <div class=""question-area"">
                        <p style=""font-size: 20px; font-weight: bold; margin: 0;"">Is there a person in this image?</p>
                    </div>
