"success","timeout","failed_images","failed_audio","failed_video","trial_type","trial_index","time_elapsed","internal_node_id","subject_id","study_id","session_id","view_history","rt","stimulus","response","task","image_index","folder","sequence_type","presentation_order","valuable_image_index","reward_type","distance_from_x","target_X","chosen_image_index","is_x_plus_dist","correct_choice"
"true","false","[]","[]","[]","preload","0","10732","0.0-0.0","B055CA7C3B4444F4BD5E13EC298695AB","019d6b42-4515-7010-b3d4-9e992b81ae6a","019d6ae6-5d89-74c6-b581-3918d1816346","","","","","","","","","","","","","","","",""
"","","","","","instructions","1","39681","0.0-1.0","B055CA7C3B4444F4BD5E13EC298695AB","019d6b42-4515-7010-b3d4-9e992b81ae6a","019d6ae6-5d89-74c6-b581-3918d1816346","[{""page_index"":0,""viewing_time"":28949}]","28949","","","","","","","","","","","","","",""
"","","","","","instructions","2","78751","0.0-2.0","B055CA7C3B4444F4BD5E13EC298695AB","019d6b42-4515-7010-b3d4-9e992b81ae6a","019d6ae6-5d89-74c6-b581-3918d1816346","[{""page_index"":0,""viewing_time"":39071}]","39071","","","","","","","","","","","","","",""
"true","","","","","fullscreen","3","81218","0.0-3.0","B055CA7C3B4444F4BD5E13EC298695AB","019d6b42-4515-7010-b3d4-9e992b81ae6a","019d6ae6-5d89-74c6-b581-3918d1816346","","1464","","","","","","","","","","","","","",""
"","","","","","instructions","4","95531","0.0-4.0","B055CA7C3B4444F4BD5E13EC298695AB","019d6b42-4515-7010-b3d4-9e992b81ae6a","019d6ae6-5d89-74c6-b581-3918d1816346","[{""page_index"":0,""viewing_time"":14312}]","14313","","","","","","","","","","","","","",""
"","","","","","instructions","5","105597","0.0-5.0","B055CA7C3B4444F4BD5E13EC298695AB","019d6b42-4515-7010-b3d4-9e992b81ae6a","019d6ae6-5d89-74c6-b581-3918d1816346","[{""page_index"":0,""viewing_time"":10066}]","10066","","","","","","","","","","","","","",""
"","","","","","html-keyboard-response","6","109600","0.0-6.0","B055CA7C3B4444F4BD5E13EC298695AB","019d6b42-4515-7010-b3d4-9e992b81ae6a","019d6ae6-5d89-74c6-b581-3918d1816346","","null","
            <div class=""stimulus-container"">
                <img src=""images/instructions/movie_1.png"" class=""exp-image"">
                <div class=""question-area""></div> 
            </div>","null","","","","","","","","","","","",""
"","","","","","html-button-response","7","112116","0.0-7.0","B055CA7C3B4444F4BD5E13EC298695AB","019d6b42-4515-7010-b3d4-9e992b81ae6a","019d6ae6-5d89-74c6-b581-3918d1816346","","2514","
            <div class=""stimulus-container"">
                <img src=""images/instructions/movie_1.png"" class=""exp-image"">
                <div class=""question-area"">
                    <p style=""font-size: 20px; font-weight: bold; margin: 0;"">Was there a person in this image?</p>
                </div>
            </div>","0","example_question","1","","","","","","","","","",""
"","","","","","html-keyboard-response","8","116118","0.0-8.0","B055CA7C3B4444F4BD5E13EC298695AB","019d6b42-4515-7010-b3d4-9e992b81ae6a","019d6ae6-5d89-74c6-b581-3918d1816346","","null","
            <div class=""stimulus-container"">
                <img src=""images/instructions/movie_2.png"" class=""exp-image"">
                <div class=""question-area""></div> 
            </div>","null","","","","","","","","","","","",""
"","","","","","html-button-response","9","118049","0.0-9.0","B055CA7C3B4444F4BD5E13EC298695AB","019d6b42-4515-7010-b3d4-9e992b81ae6a","019d6ae6-5d89-74c6-b581-3918d1816346","","1929","
            <div class=""stimulus-container"">
                <img src=""images/instructions/movie_2.png"" class=""exp-image"">
                <div class=""question-area"">
                    <p style=""font-size: 20px; font-weight: bold; margin: 0;"">Was there a person in this image?</p>
                </div>
            </div>","0","example_question","2","","","","","","","","","",""
"","","","","","html-keyboard-response","10","122051","0.0-10.0","B055CA7C3B4444F4BD5E13EC298695AB","019d6b42-4515-7010-b3d4-9e992b81ae6a","019d6ae6-5d89-74c6-b581-3918d1816346","","null","
            <div class=""stimulus-container"">
                <img src=""images/instructions/movie_3.png"" class=""exp-image"">
                <div class=""question-area""></div> 
            </div>","null","","","","","","","","","","","",""
"","","","","","html-button-response","11","122948","0.0-11.0","B055CA7C3B4444F4BD5E13EC298695AB","019d6b42-4515-7010-b3d4-9e992b81ae6a","019d6ae6-5d89-74c6-b581-3918d1816346","","895","
            <div class=""stimulus-container"">
                <img src=""images/instructions/movie_3.png"" class=""exp-image"">
                <div class=""question-area"">
                    <p style=""font-size: 20px; font-weight: bold; margin: 0;"">Was there a person in this image?</p>
                </div>
            </div>","0","example_question","3","","","","","","","","","",""
"","","","","","html-keyboard-response","12","126950","0.0-12.0","B055CA7C3B4444F4BD5E13EC298695AB","019d6b42-4515-7010-b3d4-9e992b81ae6a","019d6ae6-5d89-74c6-b581-3918d1816346","","null","
            <div class=""stimulus-container"">
                <img src=""images/instructions/movie_4.png"" class=""exp-image"">
                <div class=""question-area""></div> 
            </div>","null","","","","","","","","","","","",""
"","","","","","html-button-response","13","128097","0.0-13.0","B055CA7C3B4444F4BD5E13EC298695AB","019d6b42-4515-7010-b3d4-9e992b81ae6a","019d6ae6-5d89-74c6-b581-3918d1816346","","1145","
            <div class=""stimulus-container"">
                <img src=""images/instructions/movie_4.png"" class=""exp-image"">
                <div class=""question-area"">
                    <p style=""font-size: 20px; font-weight: bold; margin: 0;"">Was there a person in this image?</p>
                </div>
            </div>","0","example_question","4","","","","","","","","","",""
"","","","","","instructions","14","130332","0.0-14.0","B055CA7C3B4444F4BD5E13EC298695AB","019d6b42-4515-7010-b3d4-9e992b81ae6a","019d6ae6-5d89-74c6-b581-3918d1816346","[{""page_index"":0,""viewing_time"":2234}]","2235","","","","","","","","","","","","","",""
"","","","","","instructions","15","138516","0.0-15.0","B055CA7C3B4444F4BD5E13EC298695AB","019d6b42-4515-7010-b3d4-9e992b81ae6a","019d6ae6-5d89-74c6-b581-3918d1816346","[{""page_index"":0,""viewing_time"":8183}]","8184","","","","","","","","","","","","","",""
"","","","","","html-keyboard-response","16","143518","0.0-16.0","B055CA7C3B4444F4BD5E13EC298695AB","019d6b42-4515-7010-b3d4-9e992b81ae6a","019d6ae6-5d89-74c6-b581-3918d1816346","","null","<div style=""background-color: white; width: 100vw; height: 100vh;""></div>","null","","","","","","","","","","","",""
"","","","","","html-keyboard-response","17","148521","0.0-17.0","B055CA7C3B4444F4BD5E13EC298695AB","019d6b42-4515-7010-b3d4-9e992b81ae6a","019d6ae6-5d89-74c6-b581-3918d1816346","","null","
                <div class=""stimulus-container"">
                    <img src=""images/causal_sequence/coin_causal/coin_causal_1.png"" class=""exp-image"">
                    <div class=""question-area""></div> 
                </div>","null","","","","","","","","","","","",""
"","","","","","html-button-response","18","151524","0.0-18.0","B055CA7C3B4444F4BD5E13EC298695AB","019d6b42-4515-7010-b3d4-9e992b81ae6a","019d6ae6-5d89-74c6-b581-3918d1816346","","null","
                <div class=""stimulus-container"">
                    <img src=""images/causal_sequence/coin_causal/coin_causal_1.png"" class=""exp-image"">
                    <div class=""question-area"">
                        <p style=""font-size: 20px; font-weight: bold; margin: 0;"">Is there a person in this image?</p>
                    </div>
                </div>","null","main_experiment_trial","1","coin_causal","causal_sequence","chronological","","","","","","",""
"","","","","","html-keyboard-response","19","156527","0.0-19.0","B055CA7C3B4444F4BD5E13EC298695AB","019d6b42-4515-7010-b3d4-9e992b81ae6a","019d6ae6-5d89-74c6-b581-3918d1816346","","null","
                <div class=""stimulus-container"">
                    <img src=""images/causal_sequence/coin_causal/coin_causal_2.png"" class=""exp-image"">
                    <div class=""question-area""></div> 
                </div>","null","","","","","","","","","","","",""
"","","","","","html-button-response","20","157314","0.0-20.0","B055CA7C3B4444F4BD5E13EC298695AB","019d6b42-4515-7010-b3d4-9e992b81ae6a","019d6ae6-5d89-74c6-b581-3918d1816346","","786","
                <div class=""stimulus-container"">
                    <img src=""images/causal_sequence/coin_causal/coin_causal_2.png"" class=""exp-image"">
                    <div class=""question-area"">
                        <p style=""font-size: 20px; font-weight: bold; margin: 0;"">Is there a person in this image?</p>
                    </div>
                </div>","1","main_experiment_trial","2","coin_causal","causal_sequence","chronological","","","","","","",""
"","","","","","html-keyboard-response","21","162316","0.0-21.0","B055CA7C3B4444F4BD5E13EC298695AB","019d6b42-4515-7010-b3d4-9e992b81ae6a","019d6ae6-5d89-74c6-b581-3918d1816346","","null","
                <div class=""stimulus-container"">
                    <img src=""images/causal_sequence/coin_causal/coin_causal_3.png"" class=""exp-image"">
                    <div class=""question-area""></div> 
                </div>","null","","","","","","","","","","","",""
"","","","","","html-button-response","22","163880","0.0-22.0","B055CA7C3B4444F4BD5E13EC298695AB","019d6b42-4515-7010-b3d4-9e992b81ae6a","019d6ae6-5d89-74c6-b581-3918d1816346","","1563","
                <div class=""stimulus-container"">
                    <img src=""images/causal_sequence/coin_causal/coin_causal_3.png"" class=""exp-image"">
                    <div class=""question-area"">
                        <p style=""font-size: 20px; font-weight: bold; margin: 0;"">Is there a person in this image?</p>
                    </div>
                </div>","1","main_experiment_trial","3","coin_causal","causal_sequence","chronological","","","","","","",""
"","","","","","html-keyboard-response","23","168882","0.0-23.0","B055CA7C3B4444F4BD5E13EC298695AB","019d6b42-4515-7010-b3d4-9e992b81ae6a","019d6ae6-5d89-74c6-b581-3918d1816346","","null","
                <div class=""stimulus-container"">
                    <img src=""images/causal_sequence/coin_causal/coin_causal_4.png"" class=""exp-image"">
                    <div class=""question-area""></div> 
                </div>","null","","","","","","","","","","","",""
"","","","","","html-button-response","24","169749","0.0-24.0","B055CA7C3B4444F4BD5E13EC298695AB","019d6b42-4515-7010-b3d4-9e992b81ae6a","019d6ae6-5d89-74c6-b581-3918d1816346","","866","
                <div class=""stimulus-container"">
                    <img src=""images/causal_sequence/coin_causal/coin_causal_4.png"" class=""exp-image"">
                    <div class=""question-area"">
                        <p style=""font-size: 20px; font-weight: bold; margin: 0;"">Is there a person in this image?</p>
                    </div>
                </div>","1","main_experiment_trial","4","coin_causal","causal_sequence","chronological","","","","","","",""
"","","","","","html-keyboard-response","25","174752","0.0-25.0","B055CA7C3B4444F4BD5E13EC298695AB","019d6b42-4515-7010-b3d4-9e992b81ae6a","019d6ae6-5d89-74c6-b581-3918d1816346","","null","
                <div class=""stimulus-container"">
                    <img src=""images/causal_sequence/coin_causal/coin_causal_5.png"" class=""exp-image"">
                    <div class=""question-area""></div> 
                </div>","null","","","","","","","","","","","",""
"","","","","","html-button-response","26","175565","0.0-26.0","B055CA7C3B4444F4BD5E13EC298695AB","019d6b42-4515-7010-b3d4-9e992b81ae6a","019d6ae6-5d89-74c6-b581-3918d1816346","","811","
                <div class=""stimulus-container"">
                    <img src=""images/causal_sequence/coin_causal/coin_causal_5.png"" class=""exp-image"">
                    <div class=""question-area"">
                        <p style=""font-size: 20px; font-weight: bold; margin: 0;"">Is there a person in this image?</p>
                    </div>
                </div>","1","main_experiment_trial","5","coin_causal","causal_sequence","chronological","","","","","","",""
"","","","","","html-keyboard-response","27","180566","0.0-27.0","B055CA7C3B4444F4BD5E13EC298695AB","019d6b42-4515-7010-b3d4-9e992b81ae6a","019d6ae6-5d89-74c6-b581-3918d1816346","","null","
                <div class=""stimulus-container"">
                    <img src=""images/causal_sequence/coin_causal/coin_causal_6.png"" class=""exp-image"">
                    <div class=""question-area""></div> 
                </div>","null","","","","","","","","","","","",""
"","","","","","html-button-response","28","181314","0.0-28.0","B055CA7C3B4444F4BD5E13EC298695AB","019d6b42-4515-7010-b3d4-9e992b81ae6a","019d6ae6-5d89-74c6-b581-3918d1816346","","746","
                <div class=""stimulus-container"">
                    <img src=""images/causal_sequence/coin_causal/coin_causal_6.png"" class=""exp-image"">
                    <div class=""question-area"">
                        <p style=""font-size: 20px; font-weight: bold; margin: 0;"">Is there a person in this image?</p>
                    </div>
                </div>","1","main_experiment_trial","6","coin_causal","causal_sequence","chronological","","","","","","",""
"","","","","","html-keyboard-response","29","186316","0.0-29.0","B055CA7C3B4444F4BD5E13EC298695AB","019d6b42-4515-7010-b3d4-9e992b81ae6a","019d6ae6-5d89-74c6-b581-3918d1816346","","null","
                <div class=""stimulus-container"">
                    <img src=""images/causal_sequence/coin_causal/coin_causal_7.png"" class=""exp-image"">
                    <div class=""question-area""></div> 
                </div>","null","","","","","","","","","","","",""
"","","","","","html-button-response","30","187264","0.0-30.0","B055CA7C3B4444F4BD5E13EC298695AB","019d6b42-4515-7010-b3d4-9e992b81ae6a","019d6ae6-5d89-74c6-b581-3918d1816346","","947","
                <div class=""stimulus-container"">
                    <img src=""images/causal_sequence/coin_causal/coin_causal_7.png"" class=""exp-image"">
                    <div class=""question-area"">
                        <p style=""font-size: 20px; font-weight: bold; margin: 0;"">Is there a person in this image?</p>
                    </div>
                </div>","1","main_experiment_trial","7","coin_causal","causal_sequence","chronological","","","","","","",""
"","","","","","html-keyboard-response","31","192266","0.0-31.0","B055CA7C3B4444F4BD5E13EC298695AB","019d6b42-4515-7010-b3d4-9e992b81ae6a","019d6ae6-5d89-74c6-b581-3918d1816346","","null","
                <div class=""stimulus-container"">
                    <img src=""images/causal_sequence/coin_causal/coin_causal_8.png"" class=""exp-image"">
                    <div class=""question-area""></div> 
                </div>","null","","","","","","","","","","","",""
"","","","","","html-button-response","32","193830","0.0-32.0","B055CA7C3B4444F4BD5E13EC298695AB","019d6b42-4515-7010-b3d4-9e992b81ae6a","019d6ae6-5d89-74c6-b581-3918d1816346","","1563","
                <div class=""stimulus-container"">
                    <img src=""images/causal_sequence/coin_causal/coin_causal_8.png"" class=""exp-image"">
                    <div class=""question-area"">
                        <p style=""font-size: 20px; font-weight: bold; margin: 0;"">Is there a person in this image?</p>
                    </div>
                </div>","1","main_experiment_trial","8","coin_causal","causal_sequence","chronological","","","","","","",""
"","","","","","html-keyboard-response","33","198832","0.0-33.0","B055CA7C3B4444F4BD5E13EC298695AB","019d6b42-4515-7010-b3d4-9e992b81ae6a","019d6ae6-5d89-74c6-b581-3918d1816346","","null","
                <div class=""stimulus-container"">
                    <img src=""images/causal_sequence/coin_causal/coin_causal_9.png"" class=""exp-image"">
                    <div class=""question-area""></div> 
                </div>","null","","","","","","","","","","","",""
"","","","","","html-button-response","34","199797","0.0-34.0","B055CA7C3B4444F4BD5E13EC298695AB","019d6b42-4515-7010-b3d4-9e992b81ae6a","019d6ae6-5d89-74c6-b581-3918d1816346","","965","
                <div class=""stimulus-container"">
                    <img src=""images/causal_sequence/coin_causal/coin_causal_9.png"" class=""exp-image"">
                    <div class=""question-area"">
                        <p style=""font-size: 20px; font-weight: bold; margin: 0;"">Is there a person in this image?</p>
                    </div>
                </div>","1","main_experiment_trial","9","coin_causal","causal_sequence","chronological","","","","","","",""
"","","","","","html-keyboard-response","35","204799","0.0-35.0","B055CA7C3B4444F4BD5E13EC298695AB","019d6b42-4515-7010-b3d4-9e992b81ae6a","019d6ae6-5d89-74c6-b581-3918d1816346","","null","
                <div class=""stimulus-container"">
                    <img src=""images/causal_sequence/coin_causal/coin_causal_ten.png"" class=""exp-image"">
                    <div class=""question-area""></div> 
                </div>","null","","","","","","","","","","","",""
"","","","","","html-button-response","36","205765","0.0-36.0","B055CA7C3B4444F4BD5E13EC298695AB","019d6b42-4515-7010-b3d4-9e992b81ae6a","019d6ae6-5d89-74c6-b581-3918d1816346","","964","
                <div class=""stimulus-container"">
                    <img src=""images/causal_sequence/coin_causal/coin_causal_ten.png"" class=""exp-image"">
                    <div class=""question-area"">
                        <p style=""font-size: 20px; font-weight: bold; margin: 0;"">Is there a person in this image?</p>
                    </div>
                </div>","1","main_experiment_trial","ten","coin_causal","causal_sequence","chronological","","","","","","",""
"","","","","","html-keyboard-response","37","210766","0.0-37.0","B055CA7C3B4444F4BD5E13EC298695AB","019d6b42-4515-7010-b3d4-9e992b81ae6a","019d6ae6-5d89-74c6-b581-3918d1816346","","null","<div style=""background-color: white; width: 100vw; height: 100vh;""></div>","null","","","","","","","","","","","",""
"","","","","","html-keyboard-response","38","215768","0.0-38.0","B055CA7C3B4444F4BD5E13EC298695AB","019d6b42-4515-7010-b3d4-9e992b81ae6a","019d6ae6-5d89-74c6-b581-3918d1816346","","null","
                <div class=""stimulus-container"">
                    <img src=""semantic_sequence_notimeline/household_objects_semantic/household_objects_semantic_1.png"" class=""exp-image"">
                    <div class=""question-area""></div> 
                </div>","null","","","","","","","","","","","",""
"","","","","","html-button-response","39","217015","0.0-39.0","B055CA7C3B4444F4BD5E13EC298695AB","019d6b42-4515-7010-b3d4-9e992b81ae6a","019d6ae6-5d89-74c6-b581-3918d1816346","","1245","
                <div class=""stimulus-container"">
                    <img src=""semantic_sequence_notimeline/household_objects_semantic/household_objects_semantic_1.png"" class=""exp-image"">
                    <div class=""question-area"">
                        <p style=""font-size: 20px; font-weight: bold; margin: 0;"">Is there a person in this image?</p>
                    </div>
                </div>","1","main_experiment_trial","1","household_objects_semantic","semantic_sequence_notimeline","chronological","","","","","","",""
"","","","","","html-keyboard-response","40","222017","0.0-40.0","B055CA7C3B4444F4BD5E13EC298695AB","019d6b42-4515-7010-b3d4-9e992b81ae6a","019d6ae6-5d89-74c6-b581-3918d1816346","","null","
                <div class=""stimulus-container"">
                    <img src=""semantic_sequence_notimeline/household_objects_semantic/household_objects_semantic_2.png"" class=""exp-image"">
                    <div class=""question-area""></div> 
                </div>","null","","","","","","","","","","","",""
"","","","","","html-button-response","41","223031","0.0-41.0","B055CA7C3B4444F4BD5E13EC298695AB","019d6b42-4515-7010-b3d4-9e992b81ae6a","019d6ae6-5d89-74c6-b581-3918d1816346","","1013","
                <div class=""stimulus-container"">
                    <img src=""semantic_sequence_notimeline/household_objects_semantic/household_objects_semantic_2.png"" class=""exp-image"">
                    <div class=""question-area"">
                        <p style=""font-size: 20px; font-weight: bold; margin: 0;"">Is there a person in this image?</p>
                    </div>
                </div>","1","main_experiment_trial","2","household_objects_semantic","semantic_sequence_notimeline","chronological","","","","","","",""
"","","","","","html-keyboard-response","42","228033","0.0-42.0","B055CA7C3B4444F4BD5E13EC298695AB","019d6b42-4515-7010-b3d4-9e992b81ae6a","019d6ae6-5d89-74c6-b581-3918d1816346","","null","
                <div class=""stimulus-container"">
                    <img src=""semantic_sequence_notimeline/household_objects_semantic/household_objects_semantic_3.png"" class=""exp-image"">
                    <div class=""question-area""></div> 
                </div>","null","","","","","","","","","","","",""
"","","","","","html-button-response","43","229464","0.0-43.0","B055CA7C3B4444F4BD5E13EC298695AB","019d6b42-4515-7010-b3d4-9e992b81ae6a","019d6ae6-5d89-74c6-b581-3918d1816346","","1429","
                <div class=""stimulus-container"">
                    <img src=""semantic_sequence_notimeline/household_objects_semantic/household_objects_semantic_3.png"" class=""exp-image"">
                    <div class=""question-area"">
                        <p style=""font-size: 20px; font-weight: bold; margin: 0;"">Is there a person in this image?</p>
                    </div>
                </div>","1","main_experiment_trial","3","household_objects_semantic","semantic_sequence_notimeline","chronological","","","","","","",""
"","","","","","html-keyboard-response","44","234466","0.0-44.0","B055CA7C3B4444F4BD5E13EC298695AB","019d6b42-4515-7010-b3d4-9e992b81ae6a","019d6ae6-5d89-74c6-b581-3918d1816346","","null","
                <div class=""stimulus-container"">
                    <img src=""semantic_sequence_notimeline/household_objects_semantic/household_objects_semantic_4.png"" class=""exp-image"">
                    <div class=""question-area""></div> 
                </div>","null","","","","","","","","","","","",""
"","","","","","html-button-response","45","235734","0.0-45.0","B055CA7C3B4444F4BD5E13EC298695AB","019d6b42-4515-7010-b3d4-9e992b81ae6a","019d6ae6-5d89-74c6-b581-3918d1816346","","1267","
                <div class=""stimulus-container"">
                    <img src=""semantic_sequence_notimeline/household_objects_semantic/household_objects_semantic_4.png"" class=""exp-image"">
                    <div class=""question-area"">
                        <p style=""font-size: 20px; font-weight: bold; margin: 0;"">Is there a person in this image?</p>
                    </div>
                </div>","1","main_experiment_trial","4","household_objects_semantic","semantic_sequence_notimeline","chronological","","","","","","",""
"","","","","","html-keyboard-response","46","240736","0.0-46.0","B055CA7C3B4444F4BD5E13EC298695AB","019d6b42-4515-7010-b3d4-9e992b81ae6a","019d6ae6-5d89-74c6-b581-3918d1816346","","null","
                <div class=""stimulus-container"">
                    <img src=""semantic_sequence_notimeline/household_objects_semantic/household_objects_semantic_5.png"" class=""exp-image"">
                    <div class=""question-area""></div> 
                </div>","null","","","","","","","","","","","",""
"","","","","","html-button-response","47","241985","0.0-47.0","B055CA7C3B4444F4BD5E13EC298695AB","019d6b42-4515-7010-b3d4-9e992b81ae6a","019d6ae6-5d89-74c6-b581-3918d1816346","","1248","
                <div class=""stimulus-container"">
                    <img src=""semantic_sequence_notimeline/household_objects_semantic/household_objects_semantic_5.png"" class=""exp-image"">
                    <div class=""question-area"">
                        <p style=""font-size: 20px; font-weight: bold; margin: 0;"">Is there a person in this image?</p>
                    </div>
                </div>","1","main_experiment_trial","5","household_objects_semantic","semantic_sequence_notimeline","chronological","","","","","","",""
"","","","","","html-keyboard-response","48","246986","0.0-48.0","B055CA7C3B4444F4BD5E13EC298695AB","019d6b42-4515-7010-b3d4-9e992b81ae6a","019d6ae6-5d89-74c6-b581-3918d1816346","","null","
                <div class=""stimulus-container"">
                    <img src=""semantic_sequence_notimeline/household_objects_semantic/household_objects_semantic_6.png"" class=""exp-image"">
                    <div class=""question-area""></div> 
                </div>","null","","","","","","","","","","","",""
"","","","","","html-button-response","49","247970","0.0-49.0","B055CA7C3B4444F4BD5E13EC298695AB","019d6b42-4515-7010-b3d4-9e992b81ae6a","019d6ae6-5d89-74c6-b581-3918d1816346","","983","
                <div class=""stimulus-container"">
                    <img src=""semantic_sequence_notimeline/household_objects_semantic/household_objects_semantic_6.png"" class=""exp-image"">
                    <div class=""question-area"">
                        <p style=""font-size: 20px; font-weight: bold; margin: 0;"">Is there a person in this image?</p>
                    </div>
                </div>","1","main_experiment_trial","6","household_objects_semantic","semantic_sequence_notimeline","chronological","","","","","","",""
"","","","","","html-keyboard-response","50","252971","0.0-50.0","B055CA7C3B4444F4BD5E13EC298695AB","019d6b42-4515-7010-b3d4-9e992b81ae6a","019d6ae6-5d89-74c6-b581-3918d1816346","","null","
                <div class=""stimulus-container"">
                    <img src=""semantic_sequence_notimeline/household_objects_semantic/household_objects_semantic_7.png"" class=""exp-image"">
                    <div class=""question-area""></div> 
                </div>","null","","","","","","","","","","","",""
"","","","","","html-button-response","51","255014","0.0-51.0","B055CA7C3B4444F4BD5E13EC298695AB","019d6b42-4515-7010-b3d4-9e992b81ae6a","019d6ae6-5d89-74c6-b581-3918d1816346","","2042","
                <div class=""stimulus-container"">
                    <img src=""semantic_sequence_notimeline/household_objects_semantic/household_objects_semantic_7.png"" class=""exp-image"">
                    <div class=""question-area"">
                        <p style=""font-size: 20px; font-weight: bold; margin: 0;"">Is there a person in this image?</p>
                    </div>
                </div>","1","main_experiment_trial","7","household_objects_semantic","semantic_sequence_notimeline","chronological","","","","","","",""
"","","","","","html-keyboard-response","52","260016","0.0-52.0","B055CA7C3B4444F4BD5E13EC298695AB","019d6b42-4515-7010-b3d4-9e992b81ae6a","019d6ae6-5d89-74c6-b581-3918d1816346","","null","
                <div class=""stimulus-container"">
                    <img src=""semantic_sequence_notimeline/household_objects_semantic/household_objects_semantic_8.png"" class=""exp-image"">
                    <div class=""question-area""></div> 
                </div>","null","","","","","","","","","","","",""
"","","","","","html-button-response","53","261598","0.0-53.0","B055CA7C3B4444F4BD5E13EC298695AB","019d6b42-4515-7010-b3d4-9e992b81ae6a","019d6ae6-5d89-74c6-b581-3918d1816346","","1581","
                <div class=""stimulus-container"">
                    <img src=""semantic_sequence_notimeline/household_objects_semantic/household_objects_semantic_8.png"" class=""exp-image"">
                    <div class=""question-area"">
                        <p style=""font-size: 20px; font-weight: bold; margin: 0;"">Is there a person in this image?</p>
                    </div>
                </div>","1","main_experiment_trial","8","household_objects_semantic","semantic_sequence_notimeline","chronological","","","","","","",""
"","","","","","html-keyboard-response","54","266599","0.0-54.0","B055CA7C3B4444F4BD5E13EC298695AB","019d6b42-4515-7010-b3d4-9e992b81ae6a","019d6ae6-5d89-74c6-b581-3918d1816346","","null","
                <div class=""stimulus-container"">
                    <img src=""semantic_sequence_notimeline/household_objects_semantic/household_objects_semantic_9.png"" class=""exp-image"">
                    <div class=""question-area""></div> 
                </div>","null","","","","","","","","","","","",""
"","","","","","html-button-response","55","268047","0.0-55.0","B055CA7C3B4444F4BD5E13EC298695AB","019d6b42-4515-7010-b3d4-9e992b81ae6a","019d6ae6-5d89-74c6-b581-3918d1816346","","1447","
                <div class=""stimulus-container"">
                    <img src=""semantic_sequence_notimeline/household_objects_semantic/household_objects_semantic_9.png"" class=""exp-image"">
                    <div class=""question-area"">
                        <p style=""font-size: 20px; font-weight: bold; margin: 0;"">Is there a person in this image?</p>
                    </div>
                </div>","1","main_experiment_trial","9","household_objects_semantic","semantic_sequence_notimeline","chronological","","","","","","",""
"","","","","","html-keyboard-response","56","273049","0.0-56.0","B055CA7C3B4444F4BD5E13EC298695AB","019d6b42-4515-7010-b3d4-9e992b81ae6a","019d6ae6-5d89-74c6-b581-3918d1816346","","null","
                <div class=""stimulus-container"">
                    <img src=""semantic_sequence_notimeline/household_objects_semantic/household_objects_semantic_ten.png"" class=""exp-image"">
                    <div class=""question-area""></div> 
                </div>","null","","","","","","","","","","","",""
"","","","","","html-button-response","57","273698","0.0-57.0","B055CA7C3B4444F4BD5E13EC298695AB","019d6b42-4515-7010-b3d4-9e992b81ae6a","019d6ae6-5d89-74c6-b581-3918d1816346","","648","
                <div class=""stimulus-container"">
                    <img src=""semantic_sequence_notimeline/household_objects_semantic/household_objects_semantic_ten.png"" class=""exp-image"">
                    <div class=""question-area"">
                        <p style=""font-size: 20px; font-weight: bold; margin: 0;"">Is there a person in this image?</p>
                    </div>
                </div>","1","main_experiment_trial","ten","household_objects_semantic","semantic_sequence_notimeline","chronological","","","","","","",""
"","","","","","html-keyboard-response","58","278700","0.0-58.0","B055CA7C3B4444F4BD5E13EC298695AB","019d6b42-4515-7010-b3d4-9e992b81ae6a","019d6ae6-5d89-74c6-b581-3918d1816346","","null","<div style=""background-color: white; width: 100vw; height: 100vh;""></div>","null","","","","","","","","","","","",""
"","","","","","html-keyboard-response","59","283702","0.0-59.0","B055CA7C3B4444F4BD5E13EC298695AB","019d6b42-4515-7010-b3d4-9e992b81ae6a","019d6ae6-5d89-74c6-b581-3918d1816346","","null","
                <div class=""stimulus-container"">
                    <img src=""semantic_sequence_notimeline/animals_semantic/animals_semantic_1.png"" class=""exp-image"">
                    <div class=""question-area""></div> 
                </div>","null","","","","","","","","","","","",""
"","","","","","html-button-response","60","285713","0.0-60.0","B055CA7C3B4444F4BD5E13EC298695AB","019d6b42-4515-7010-b3d4-9e992b81ae6a","019d6ae6-5d89-74c6-b581-3918d1816346","","2010","
                <div class=""stimulus-container"">
                    <img src=""semantic_sequence_notimeline/animals_semantic/animals_semantic_1.png"" class=""exp-image"">
                    <div class=""question-area"">
                        <p style=""font-size: 20px; font-weight: bold; margin: 0;"">Is there a person in this image?</p>
                    </div>
                </div>","1","main_experiment_trial","1","animals_semantic","semantic_sequence_notimeline","chronological","","","","","","",""
"","","","","","html-keyboard-response","61","290716","0.0-61.0","B055CA7C3B4444F4BD5E13EC298695AB","019d6b42-4515-7010-b3d4-9e992b81ae6a","019d6ae6-5d89-74c6-b581-3918d1816346","","null","
                <div class=""stimulus-container"">
                    <img src=""semantic_sequence_notimeline/animals_semantic/animals_semantic_2.png"" class=""exp-image"">
                    <div class=""question-area""></div> 
                </div>","null","","","","","","","","","","","",""
"","","","","","html-button-response","62","291681","0.0-62.0","B055CA7C3B4444F4BD5E13EC298695AB","019d6b42-4515-7010-b3d4-9e992b81ae6a","019d6ae6-5d89-74c6-b581-3918d1816346","","964","
                <div class=""stimulus-container"">
                    <img src=""semantic_sequence_notimeline/animals_semantic/animals_semantic_2.png"" class=""exp-image"">
                    <div class=""question-area"">
                        <p style=""font-size: 20px; font-weight: bold; margin: 0;"">Is there a person in this image?</p>
                    </div>
                </div>","1","main_experiment_trial","2","animals_semantic","semantic_sequence_notimeline","chronological","","","","","","",""
"","","","","","html-keyboard-response","63","296683","0.0-63.0","B055CA7C3B4444F4BD5E13EC298695AB","019d6b42-4515-7010-b3d4-9e992b81ae6a","019d6ae6-5d89-74c6-b581-3918d1816346","","null","
                <div class=""stimulus-container"">
                    <img src=""semantic_sequence_notimeline/animals_semantic/animals_semantic_3.png"" class=""exp-image"">
                    <div class=""question-area""></div> 
                </div>","null","","","","","","","","","","","",""
"","","","","","html-button-response","64","298299","0.0-64.0","B055CA7C3B4444F4BD5E13EC298695AB","019d6b42-4515-7010-b3d4-9e992b81ae6a","019d6ae6-5d89-74c6-b581-3918d1816346","","1614","
                <div class=""stimulus-container"">
                    <img src=""semantic_sequence_notimeline/animals_semantic/animals_semantic_3.png"" class=""exp-image"">
                    <div class=""question-area"">
                        <p style=""font-size: 20px; font-weight: bold; margin: 0;"">Is there a person in this image?</p>
                    </div>
                </div>","1","main_experiment_trial","3","animals_semantic","semantic_sequence_notimeline","chronological","","","","","","",""
"","","","","","html-keyboard-response","65","303301","0.0-65.0","B055CA7C3B4444F4BD5E13EC298695AB","019d6b42-4515-7010-b3d4-9e992b81ae6a","019d6ae6-5d89-74c6-b581-3918d1816346","","null","
                <div class=""stimulus-container"">
                    <img src=""semantic_sequence_notimeline/animals_semantic/animals_semantic_4.png"" class=""exp-image"">
                    <div class=""question-area""></div> 
                </div>","null","","","","","","","","","","","",""
"","","","","","html-button-response","66","304448","0.0-66.0","B055CA7C3B4444F4BD5E13EC298695AB","019d6b42-4515-7010-b3d4-9e992b81ae6a","019d6ae6-5d89-74c6-b581-3918d1816346","","1146","
                <div class=""stimulus-container"">
                    <img src=""semantic_sequence_notimeline/animals_semantic/animals_semantic_4.png"" class=""exp-image"">
                    <div class=""question-area"">
                        <p style=""font-size: 20px; font-weight: bold; margin: 0;"">Is there a person in this image?</p>
                    </div>
                </div>","1","main_experiment_trial","4","animals_semantic","semantic_sequence_notimeline","chronological","","","","","","",""
"","","","","","html-keyboard-response","67","309451","0.0-67.0","B055CA7C3B4444F4BD5E13EC298695AB","019d6b42-4515-7010-b3d4-9e992b81ae6a","019d6ae6-5d89-74c6-b581-3918d1816346","","null","
                <div class=""stimulus-container"">
                    <img src=""semantic_sequence_notimeline/animals_semantic/animals_semantic_5.png"" class=""exp-image"">
                    <div class=""question-area""></div> 
                </div>","null","","","","","","","","","","","",""
"","","","","","html-button-response","68","310748","0.0-68.0","B055CA7C3B4444F4BD5E13EC298695AB","019d6b42-4515-7010-b3d4-9e992b81ae6a","019d6ae6-5d89-74c6-b581-3918d1816346","","1295","
                <div class=""stimulus-container"">
                    <img src=""semantic_sequence_notimeline/animals_semantic/animals_semantic_5.png"" class=""exp-image"">
                    <div class=""question-area"">
                        <p style=""font-size: 20px; font-weight: bold; margin: 0;"">Is there a person in this image?</p>
                    </div>
                </div>","1","main_experiment_trial","5","animals_semantic","semantic_sequence_notimeline","chronological","","","","","","",""
"","","","","","html-keyboard-response","69","315750","0.0-69.0","B055CA7C3B4444F4BD5E13EC298695AB","019d6b42-4515-7010-b3d4-9e992b81ae6a","019d6ae6-5d89-74c6-b581-3918d1816346","","null","
                <div class=""stimulus-container"">
                    <img src=""semantic_sequence_notimeline/animals_semantic/animals_semantic_6.png"" class=""exp-image"">
                    <div class=""question-area""></div> 
                </div>","null","","","","","","","","","","","",""
"","","","","","html-button-response","70","317032","0.0-70.0","B055CA7C3B4444F4BD5E13EC298695AB","019d6b42-4515-7010-b3d4-9e992b81ae6a","019d6ae6-5d89-74c6-b581-3918d1816346","","1280","
                <div class=""stimulus-container"">
                    <img src=""semantic_sequence_notimeline/animals_semantic/animals_semantic_6.png"" class=""exp-image"">
                    <div class=""question-area"">
                        <p style=""font-size: 20px; font-weight: bold; margin: 0;"">Is there a person in this image?</p>
                    </div>
                </div>","1","main_experiment_trial","6","animals_semantic","semantic_sequence_notimeline","chronological","","","","","","",""
"","","","","","html-keyboard-response","71","322034","0.0-71.0","B055CA7C3B4444F4BD5E13EC298695AB","019d6b42-4515-7010-b3d4-9e992b81ae6a","019d6ae6-5d89-74c6-b581-3918d1816346","","null","
                <div class=""stimulus-container"">
                    <img src=""semantic_sequence_notimeline/animals_semantic/animals_semantic_7.png"" class=""exp-image"">
                    <div class=""question-area""></div> 
                </div>","null","","","","","","","","","","","",""
"","","","","","html-button-response","72","324332","0.0-72.0","B055CA7C3B4444F4BD5E13EC298695AB","019d6b42-4515-7010-b3d4-9e992b81ae6a","019d6ae6-5d89-74c6-b581-3918d1816346","","2298","
                <div class=""stimulus-container"">
                    <img src=""semantic_sequence_notimeline/animals_semantic/animals_semantic_7.png"" class=""exp-image"">
                    <div class=""question-area"">
                        <p style=""font-size: 20px; font-weight: bold; margin: 0;"">Is there a person in this image?</p>
                    </div>
                </div>","1","main_experiment_trial","7","animals_semantic","semantic_sequence_notimeline","chronological","","","","","","",""
"","","","","","html-keyboard-response","73","329335","0.0-73.0","B055CA7C3B4444F4BD5E13EC298695AB","019d6b42-4515-7010-b3d4-9e992b81ae6a","019d6ae6-5d89-74c6-b581-3918d1816346","","null","
                <div class=""stimulus-container"">
                    <img src=""semantic_sequence_notimeline/animals_semantic/animals_semantic_8.png"" class=""exp-image"">
                    <div class=""question-area""></div> 
                </div>","null","","","","","","","","","","","",""
"","","","","","html-button-response","74","330515","0.0-74.0","B055CA7C3B4444F4BD5E13EC298695AB","019d6b42-4515-7010-b3d4-9e992b81ae6a","019d6ae6-5d89-74c6-b581-3918d1816346","","1179","
                <div class=""stimulus-container"">
                    <img src=""semantic_sequence_notimeline/animals_semantic/animals_semantic_8.png"" class=""exp-image"">
                    <div class=""question-area"">
                        <p style=""font-size: 20px; font-weight: bold; margin: 0;"">Is there a person in this image?</p>
                    </div>
                </div>","1","main_experiment_trial","8","animals_semantic","semantic_sequence_notimeline","chronological","","","","","","",""
"","","","","","html-keyboard-response","75","335518","0.0-75.0","B055CA7C3B4444F4BD5E13EC298695AB","019d6b42-4515-7010-b3d4-9e992b81ae6a","019d6ae6-5d89-74c6-b581-3918d1816346","","null","
                <div class=""stimulus-container"">
                    <img src=""semantic_sequence_notimeline/animals_semantic/animals_semantic_9.png"" class=""exp-image"">
                    <div class=""question-area""></div> 
                </div>","null","","","","","","","","","","","",""
"","","","","","html-button-response","76","336798","0.0-76.0","B055CA7C3B4444F4BD5E13EC298695AB","019d6b42-4515-7010-b3d4-9e992b81ae6a","019d6ae6-5d89-74c6-b581-3918d1816346","","1278","
                <div class=""stimulus-container"">
                    <img src=""semantic_sequence_notimeline/animals_semantic/animals_semantic_9.png"" class=""exp-image"">
                    <div class=""question-area"">
                        <p style=""font-size: 20px; font-weight: bold; margin: 0;"">Is there a person in this image?</p>
                    </div>
                </div>","1","main_experiment_trial","9","animals_semantic","semantic_sequence_notimeline","chronological","","","","","","",""
"","","","","","html-keyboard-response","77","341801","0.0-77.0","B055CA7C3B4444F4BD5E13EC298695AB","019d6b42-4515-7010-b3d4-9e992b81ae6a","019d6ae6-5d89-74c6-b581-3918d1816346","","null","
                <div class=""stimulus-container"">
                    <img src=""semantic_sequence_notimeline/animals_semantic/animals_semantic_ten.png"" class=""exp-image"">
                    <div class=""question-area""></div> 
                </div>","null","","","","","","","","","","","",""
"","","","","","html-button-response","78","343232","0.0-78.0","B055CA7C3B4444F4BD5E13EC298695AB","019d6b42-4515-7010-b3d4-9e992b81ae6a","019d6ae6-5d89-74c6-b581-3918d1816346","","1429","
                <div class=""stimulus-container"">
                    <img src=""semantic_sequence_notimeline/animals_semantic/animals_semantic_ten.png"" class=""exp-image"">
                    <div class=""question-area"">
                        <p style=""font-size: 20px; font-weight: bold; margin: 0;"">Is there a person in this image?</p>
                    </div>
                </div>","1","main_experiment_trial","ten","animals_semantic","semantic_sequence_notimeline","chronological","","","","","","",""
"","","","","","html-keyboard-response","79","348233","0.0-79.0","B055CA7C3B4444F4BD5E13EC298695AB","019d6b42-4515-7010-b3d4-9e992b81ae6a","019d6ae6-5d89-74c6-b581-3918d1816346","","null","<div style=""background-color: white; width: 100vw; height: 100vh;""></div>","null","","","","","","","","","","","",""
"","","","","","html-keyboard-response","80","353235","0.0-80.0","B055CA7C3B4444F4BD5E13EC298695AB","019d6b42-4515-7010-b3d4-9e992b81ae6a","019d6ae6-5d89-74c6-b581-3918d1816346","","null","
                <div class=""stimulus-container"">
                    <img src=""images/causal_sequence/dog_causal/dog_causal_1.png"" class=""exp-image"">
                    <div class=""question-area""></div> 
                </div>","null","","","","","","","","","","","",""
"","","","","","html-button-response","81","354249","0.0-81.0","B055CA7C3B4444F4BD5E13EC298695AB","019d6b42-4515-7010-b3d4-9e992b81ae6a","019d6ae6-5d89-74c6-b581-3918d1816346","","1012","
                <div class=""stimulus-container"">
                    <img src=""images/causal_sequence/dog_causal/dog_causal_1.png"" class=""exp-image"">
                    <div class=""question-area"">
                        <p style=""font-size: 20px; font-weight: bold; margin: 0;"">Is there a person in this image?</p>
                    </div>
                </div>","1","main_experiment_trial","1","dog_causal","causal_sequence","chronological","","","","","","",""
"","","","","","html-keyboard-response","82","359251","0.0-82.0","B055CA7C3B4444F4BD5E13EC298695AB","019d6b42-4515-7010-b3d4-9e992b81ae6a","019d6ae6-5d89-74c6-b581-3918d1816346","","null","
                <div class=""stimulus-container"">
                    <img src=""images/causal_sequence/dog_causal/dog_causal_2.png"" class=""exp-image"">
                    <div class=""question-area""></div> 
                </div>","null","","","","","","","","","","","",""
"","","","","","html-button-response","83","361383","0.0-83.0","B055CA7C3B4444F4BD5E13EC298695AB","019d6b42-4515-7010-b3d4-9e992b81ae6a","019d6ae6-5d89-74c6-b581-3918d1816346","","2130","
                <div class=""stimulus-container"">
                    <img src=""images/causal_sequence/dog_causal/dog_causal_2.png"" class=""exp-image"">
                    <div class=""question-area"">
                        <p style=""font-size: 20px; font-weight: bold; margin: 0;"">Is there a person in this image?</p>
                    </div>
                </div>","1","main_experiment_trial","2","dog_causal","causal_sequence","chronological","","","","","","",""
"","","","","","html-keyboard-response","84","366385","0.0-84.0","B055CA7C3B4444F4BD5E13EC298695AB","019d6b42-4515-7010-b3d4-9e992b81ae6a","019d6ae6-5d89-74c6-b581-3918d1816346","","null","
                <div class=""stimulus-container"">
                    <img src=""images/causal_sequence/dog_causal/dog_causal_3.png"" class=""exp-image"">
                    <div class=""question-area""></div> 
                </div>","null","","","","","","","","","","","",""
"","","","","","html-button-response","85","369388","0.0-85.0","B055CA7C3B4444F4BD5E13EC298695AB","019d6b42-4515-7010-b3d4-9e992b81ae6a","019d6ae6-5d89-74c6-b581-3918d1816346","","null","
                <div class=""stimulus-container"">
                    <img src=""images/causal_sequence/dog_causal/dog_causal_3.png"" class=""exp-image"">
                    <div class=""question-area"">
                        <p style=""font-size: 20px; font-weight: bold; margin: 0;"">Is there a person in this image?</p>
                    </div>
                </div>","null","main_experiment_trial","3","dog_causal","causal_sequence","chronological","","","","","","",""
"","","","","","html-keyboard-response","86","374390","0.0-86.0","B055CA7C3B4444F4BD5E13EC298695AB","019d6b42-4515-7010-b3d4-9e992b81ae6a","019d6ae6-5d89-74c6-b581-3918d1816346","","null","
                <div class=""stimulus-container"">
                    <img src=""images/causal_sequence/dog_causal/dog_causal_4.png"" class=""exp-image"">
                    <div class=""question-area""></div> 
                </div>","null","","","","","","","","","","","",""
"","","","","","html-button-response","87","377150","0.0-87.0","B055CA7C3B4444F4BD5E13EC298695AB","019d6b42-4515-7010-b3d4-9e992b81ae6a","019d6ae6-5d89-74c6-b581-3918d1816346","","2758","
                <div class=""stimulus-container"">
                    <img src=""images/causal_sequence/dog_causal/dog_causal_4.png"" class=""exp-image"">
                    <div class=""question-area"">
                        <p style=""font-size: 20px; font-weight: bold; margin: 0;"">Is there a person in this image?</p>
                    </div>
                </div>","1","main_experiment_trial","4","dog_causal","causal_sequence","chronological","","","","","","",""
"","","","","","html-keyboard-response","88","382152","0.0-88.0","B055CA7C3B4444F4BD5E13EC298695AB","019d6b42-4515-7010-b3d4-9e992b81ae6a","019d6ae6-5d89-74c6-b581-3918d1816346","","null","
                <div class=""stimulus-container"">
                    <img src=""images/causal_sequence/dog_causal/dog_causal_5.png"" class=""exp-image"">
                    <div class=""question-area""></div> 
                </div>","null","","","","","","","","","","","",""
"","","","","","html-button-response","89","385155","0.0-89.0","B055CA7C3B4444F4BD5E13EC298695AB","019d6b42-4515-7010-b3d4-9e992b81ae6a","019d6ae6-5d89-74c6-b581-3918d1816346","","null","
                <div class=""stimulus-container"">
                    <img src=""images/causal_sequence/dog_causal/dog_causal_5.png"" class=""exp-image"">
                    <div class=""question-area"">
                        <p style=""font-size: 20px; font-weight: bold; margin: 0;"">Is there a person in this image?</p>
                    </div>
                </div>","null","main_experiment_trial","5","dog_causal","causal_sequence","chronological","","","","","","",""
"","","","","","html-keyboard-response","90","390157","0.0-90.0","B055CA7C3B4444F4BD5E13EC298695AB","019d6b42-4515-7010-b3d4-9e992b81ae6a","019d6ae6-5d89-74c6-b581-3918d1816346","","null","
                <div class=""stimulus-container"">
                    <img src=""images/causal_sequence/dog_causal/dog_causal_6.png"" class=""exp-image"">
                    <div class=""question-area""></div> 
                </div>","null","","","","","","","","","","","",""
"","","","","","html-button-response","91","392365","0.0-91.0","B055CA7C3B4444F4BD5E13EC298695AB","019d6b42-4515-7010-b3d4-9e992b81ae6a","019d6ae6-5d89-74c6-b581-3918d1816346","","2207","
                <div class=""stimulus-container"">
                    <img src=""images/causal_sequence/dog_causal/dog_causal_6.png"" class=""exp-image"">
                    <div class=""question-area"">
                        <p style=""font-size: 20px; font-weight: bold; margin: 0;"">Is there a person in this image?</p>
                    </div>
                </div>","1","main_experiment_trial","6","dog_causal","causal_sequence","chronological","","","","","","",""
"","","","","","html-keyboard-response","92","397368","0.0-92.0","B055CA7C3B4444F4BD5E13EC298695AB","019d6b42-4515-7010-b3d4-9e992b81ae6a","019d6ae6-5d89-74c6-b581-3918d1816346","","null","
                <div class=""stimulus-container"">
                    <img src=""images/causal_sequence/dog_causal/dog_causal_7.png"" class=""exp-image"">
                    <div class=""question-area""></div> 
                </div>","null","","","","","","","","","","","",""
"","","","","","html-button-response","93","398698","0.0-93.0","B055CA7C3B4444F4BD5E13EC298695AB","019d6b42-4515-7010-b3d4-9e992b81ae6a","019d6ae6-5d89-74c6-b581-3918d1816346","","1329","
                <div class=""stimulus-container"">
                    <img src=""images/causal_sequence/dog_causal/dog_causal_7.png"" class=""exp-image"">
                    <div class=""question-area"">
                        <p style=""font-size: 20px; font-weight: bold; margin: 0;"">Is there a person in this image?</p>
                    </div>
                </div>","1","main_experiment_trial","7","dog_causal","causal_sequence","chronological","","","","","","",""
"","","","","","html-keyboard-response","94","403700","0.0-94.0","B055CA7C3B4444F4BD5E13EC298695AB","019d6b42-4515-7010-b3d4-9e992b81ae6a","019d6ae6-5d89-74c6-b581-3918d1816346","","null","
                <div class=""stimulus-container"">
                    <img src=""images/causal_sequence/dog_causal/dog_causal_8.png"" class=""exp-image"">
                    <div class=""question-area""></div> 
                </div>","null","","","","","","","","","","","",""
"","","","","","html-button-response","95","406703","0.0-95.0","B055CA7C3B4444F4BD5E13EC298695AB","019d6b42-4515-7010-b3d4-9e992b81ae6a","019d6ae6-5d89-74c6-b581-3918d1816346","","null","
                <div class=""stimulus-container"">
                    <img src=""images/causal_sequence/dog_causal/dog_causal_8.png"" class=""exp-image"">
                    <div class=""question-area"">
                        <p style=""font-size: 20px; font-weight: bold; margin: 0;"">Is there a person in this image?</p>
                    </div>
                </div>","null","main_experiment_trial","8","dog_causal","causal_sequence","chronological","","","","","","",""
"","","","","","html-keyboard-response","96","411705","0.0-96.0","B055CA7C3B4444F4BD5E13EC298695AB","019d6b42-4515-7010-b3d4-9e992b81ae6a","019d6ae6-5d89-74c6-b581-3918d1816346","","null","
                <div class=""stimulus-container"">
                    <img src=""images/causal_sequence/dog_causal/dog_causal_9.png"" class=""exp-image"">
                    <div class=""question-area""></div> 
                </div>","null","","","","","","","","","","","",""
"","","","","","html-button-response","97","413497","0.0-97.0","B055CA7C3B4444F4BD5E13EC298695AB","019d6b42-4515-7010-b3d4-9e992b81ae6a","019d6ae6-5d89-74c6-b581-3918d1816346","","1792","
                <div class=""stimulus-container"">
                    <img src=""images/causal_sequence/dog_causal/dog_causal_9.png"" class=""exp-image"">
                    <div class=""question-area"">
                        <p style=""font-size: 20px; font-weight: bold; margin: 0;"">Is there a person in this image?</p>
                    </div>
                </div>","1","main_experiment_trial","9","dog_causal","causal_sequence","chronological","","","","","","",""
"","","","","","html-keyboard-response","98","418500","0.0-98.0","B055CA7C3B4444F4BD5E13EC298695AB","019d6b42-4515-7010-b3d4-9e992b81ae6a","019d6ae6-5d89-74c6-b581-3918d1816346","","null","
                <div class=""stimulus-container"">
                    <img src=""images/causal_sequence/dog_causal/dog_causal_ten.png"" class=""exp-image"">
                    <div class=""question-area""></div> 
                </div>","null","","","","","","","","","","","",""
"","","","","","html-button-response","99","419781","0.0-99.0","B055CA7C3B4444F4BD5E13EC298695AB","019d6b42-4515-7010-b3d4-9e992b81ae6a","019d6ae6-5d89-74c6-b581-3918d1816346","","1280","
                <div class=""stimulus-container"">
                    <img src=""images/causal_sequence/dog_causal/dog_causal_ten.png"" class=""exp-image"">
                    <div class=""question-area"">
                        <p style=""font-size: 20px; font-weight: bold; margin: 0;"">Is there a person in this image?</p>
                    </div>
                </div>","1","main_experiment_trial","ten","dog_causal","causal_sequence","chronological","","","","","","",""
"","","","","","html-keyboard-response","100","424782","0.0-100.0","B055CA7C3B4444F4BD5E13EC298695AB","019d6b42-4515-7010-b3d4-9e992b81ae6a","019d6ae6-5d89-74c6-b581-3918d1816346","","null","<div style=""background-color: white; width: 100vw; height: 100vh;""></div>","null","","","","","","","","","","","",""
"","","","","","html-keyboard-response","101","429784","0.0-101.0","B055CA7C3B4444F4BD5E13EC298695AB","019d6b42-4515-7010-b3d4-9e992b81ae6a","019d6ae6-5d89-74c6-b581-3918d1816346","","null","
                <div class=""stimulus-container"">
                    <img src=""semantic_sequence_notimeline/fruits_semantic/fruits_semantic_1.png"" class=""exp-image"">
                    <div class=""question-area""></div> 
                </div>","null","","","","","","","","","","","",""
"","","","","","html-button-response","102","430748","0.0-102.0","B055CA7C3B4444F4BD5E13EC298695AB","019d6b42-4515-7010-b3d4-9e992b81ae6a","019d6ae6-5d89-74c6-b581-3918d1816346","","963","
                <div class=""stimulus-container"">
                    <img src=""semantic_sequence_notimeline/fruits_semantic/fruits_semantic_1.png"" class=""exp-image"">
                    <div class=""question-area"">
                        <p style=""font-size: 20px; font-weight: bold; margin: 0;"">Is there a person in this image?</p>
                    </div>
                </div>","1","main_experiment_trial","1","fruits_semantic","semantic_sequence_notimeline","chronological","","","","","","",""
"","","","","","html-keyboard-response","103","435749","0.0-103.0","B055CA7C3B4444F4BD5E13EC298695AB","019d6b42-4515-7010-b3d4-9e992b81ae6a","019d6ae6-5d89-74c6-b581-3918d1816346","","null","
                <div class=""stimulus-container"">
                    <img src=""semantic_sequence_notimeline/fruits_semantic/fruits_semantic_2.png"" class=""exp-image"">
                    <div class=""question-area""></div> 
                </div>","null","","","","","","","","","","","",""
"","","","","","html-button-response","104","438248","0.0-104.0","B055CA7C3B4444F4BD5E13EC298695AB","019d6b42-4515-7010-b3d4-9e992b81ae6a","019d6ae6-5d89-74c6-b581-3918d1816346","","2498","
                <div class=""stimulus-container"">
                    <img src=""semantic_sequence_notimeline/fruits_semantic/fruits_semantic_2.png"" class=""exp-image"">
                    <div class=""question-area"">
                        <p style=""font-size: 20px; font-weight: bold; margin: 0;"">Is there a person in this image?</p>
                    </div>
                </div>","1","main_experiment_trial","2","fruits_semantic","semantic_sequence_notimeline","chronological","","","","","","",""
"","","","","","html-keyboard-response","105","443250","0.0-105.0","B055CA7C3B4444F4BD5E13EC298695AB","019d6b42-4515-7010-b3d4-9e992b81ae6a","019d6ae6-5d89-74c6-b581-3918d1816346","","null","
                <div class=""stimulus-container"">
                    <img src=""semantic_sequence_notimeline/fruits_semantic/fruits_semantic_3.png"" class=""exp-image"">
                    <div class=""question-area""></div> 
                </div>","null","","","","","","","","","","","",""
"","","","","","html-button-response","106","444597","0.0-106.0","B055CA7C3B4444F4BD5E13EC298695AB","019d6b42-4515-7010-b3d4-9e992b81ae6a","019d6ae6-5d89-74c6-b581-3918d1816346","","1346","
                <div class=""stimulus-container"">
                    <img src=""semantic_sequence_notimeline/fruits_semantic/fruits_semantic_3.png"" class=""exp-image"">
                    <div class=""question-area"">
                        <p style=""font-size: 20px; font-weight: bold; margin: 0;"">Is there a person in this image?</p>
                    </div>
                </div>","1","main_experiment_trial","3","fruits_semantic","semantic_sequence_notimeline","chronological","","","","","","",""
"","","","","","html-keyboard-response","107","449599","0.0-107.0","B055CA7C3B4444F4BD5E13EC298695AB","019d6b42-4515-7010-b3d4-9e992b81ae6a","019d6ae6-5d89-74c6-b581-3918d1816346","","null","
                <div class=""stimulus-container"">
                    <img src=""semantic_sequence_notimeline/fruits_semantic/fruits_semantic_4.png"" class=""exp-image"">
                    <div class=""question-area""></div> 
                </div>","null","","","","","","","","","","","",""
"","","","","","html-button-response","108","450748","0.0-108.0","B055CA7C3B4444F4BD5E13EC298695AB","019d6b42-4515-7010-b3d4-9e992b81ae6a","019d6ae6-5d89-74c6-b581-3918d1816346","","1148","
                <div class=""stimulus-container"">
                    <img src=""semantic_sequence_notimeline/fruits_semantic/fruits_semantic_4.png"" class=""exp-image"">
                    <div class=""question-area"">
                        <p style=""font-size: 20px; font-weight: bold; margin: 0;"">Is there a person in this image?</p>
                    </div>
                </div>","1","main_experiment_trial","4","fruits_semantic","semantic_sequence_notimeline","chronological","","","","","","",""
"","","","","","html-keyboard-response","109","455750","0.0-109.0","B055CA7C3B4444F4BD5E13EC298695AB","019d6b42-4515-7010-b3d4-9e992b81ae6a","019d6ae6-5d89-74c6-b581-3918d1816346","","null","
                <div class=""stimulus-container"">
                    <img src=""semantic_sequence_notimeline/fruits_semantic/fruits_semantic_5.png"" class=""exp-image"">
                    <div class=""question-area""></div> 
                </div>","null","","","","","","","","","","","",""
"","","","","","html-button-response","110","456981","0.0-110.0","B055CA7C3B4444F4BD5E13EC298695AB","019d6b42-4515-7010-b3d4-9e992b81ae6a","019d6ae6-5d89-74c6-b581-3918d1816346","","1230","
                <div class=""stimulus-container"">
                    <img src=""semantic_sequence_notimeline/fruits_semantic/fruits_semantic_5.png"" class=""exp-image"">
                    <div class=""question-area"">
                        <p style=""font-size: 20px; font-weight: bold; margin: 0;"">Is there a person in this image?</p>
                    </div>
                </div>","1","main_experiment_trial","5","fruits_semantic","semantic_sequence_notimeline","chronological","","","","","","",""
"","","","","","html-keyboard-response","111","461983","0.0-111.0","B055CA7C3B4444F4BD5E13EC298695AB","019d6b42-4515-7010-b3d4-9e992b81ae6a","019d6ae6-5d89-74c6-b581-3918d1816346","","null","
                <div class=""stimulus-container"">
                    <img src=""semantic_sequence_notimeline/fruits_semantic/fruits_semantic_6.png"" class=""exp-image"">
                    <div class=""question-area""></div> 
                </div>","null","","","","","","","","","","","",""
"","","","","","html-button-response","112","462648","0.0-112.0","B055CA7C3B4444F4BD5E13EC298695AB","019d6b42-4515-7010-b3d4-9e992b81ae6a","019d6ae6-5d89-74c6-b581-3918d1816346","","663","
                <div class=""stimulus-container"">
                    <img src=""semantic_sequence_notimeline/fruits_semantic/fruits_semantic_6.png"" class=""exp-image"">
                    <div class=""question-area"">
                        <p style=""font-size: 20px; font-weight: bold; margin: 0;"">Is there a person in this image?</p>
                    </div>
                </div>","1","main_experiment_trial","6","fruits_semantic","semantic_sequence_notimeline","chronological","","","","","","",""
"","","","","","html-keyboard-response","113","467649","0.0-113.0","B055CA7C3B4444F4BD5E13EC298695AB","019d6b42-4515-7010-b3d4-9e992b81ae6a","019d6ae6-5d89-74c6-b581-3918d1816346","","null","
                <div class=""stimulus-container"">
                    <img src=""semantic_sequence_notimeline/fruits_semantic/fruits_semantic_7.png"" class=""exp-image"">
                    <div class=""question-area""></div> 
                </div>","null","","","","","","","","","","","",""
"","","","","","html-button-response","114","470032","0.0-114.0","B055CA7C3B4444F4BD5E13EC298695AB","019d6b42-4515-7010-b3d4-9e992b81ae6a","019d6ae6-5d89-74c6-b581-3918d1816346","","2382","
                <div class=""stimulus-container"">
                    <img src=""semantic_sequence_notimeline/fruits_semantic/fruits_semantic_7.png"" class=""exp-image"">
                    <div class=""question-area"">
                        <p style=""font-size: 20px; font-weight: bold; margin: 0;"">Is there a person in this image?</p>
                    </div>
                </div>","1","main_experiment_trial","7","fruits_semantic","semantic_sequence_notimeline","chronological","","","","","","",""
"","","","","","html-keyboard-response","115","475035","0.0-115.0","B055CA7C3B4444F4BD5E13EC298695AB","019d6b42-4515-7010-b3d4-9e992b81ae6a","019d6ae6-5d89-74c6-b581-3918d1816346","","null","
                <div class=""stimulus-container"">
                    <img src=""semantic_sequence_notimeline/fruits_semantic/fruits_semantic_8.png"" class=""exp-image"">
                    <div class=""question-area""></div> 
                </div>","null","","","","","","","","","","","",""
"","","","","","html-button-response","116","476298","0.0-116.0","B055CA7C3B4444F4BD5E13EC298695AB","019d6b42-4515-7010-b3d4-9e992b81ae6a","019d6ae6-5d89-74c6-b581-3918d1816346","","1262","
                <div class=""stimulus-container"">
                    <img src=""semantic_sequence_notimeline/fruits_semantic/fruits_semantic_8.png"" class=""exp-image"">
                    <div class=""question-area"">
                        <p style=""font-size: 20px; font-weight: bold; margin: 0;"">Is there a person in this image?</p>
                    </div>
                </div>","1","main_experiment_trial","8","fruits_semantic","semantic_sequence_notimeline","chronological","","","","","","",""
"","","","","","html-keyboard-response","117","481300","0.0-117.0","B055CA7C3B4444F4BD5E13EC298695AB","019d6b42-4515-7010-b3d4-9e992b81ae6a","019d6ae6-5d89-74c6-b581-3918d1816346","","null","
                <div class=""stimulus-container"">
                    <img src=""semantic_sequence_notimeline/fruits_semantic/fruits_semantic_9.png"" class=""exp-image"">
                    <div class=""question-area""></div> 
                </div>","null","","","","","","","","","","","",""
"","","","","","html-button-response","118","482381","0.0-118.0","B055CA7C3B4444F4BD5E13EC298695AB","019d6b42-4515-7010-b3d4-9e992b81ae6a","019d6ae6-5d89-74c6-b581-3918d1816346","","1080","
                <div class=""stimulus-container"">
                    <img src=""semantic_sequence_notimeline/fruits_semantic/fruits_semantic_9.png"" class=""exp-image"">
                    <div class=""question-area"">
                        <p style=""font-size: 20px; font-weight: bold; margin: 0;"">Is there a person in this image?</p>
                    </div>
                </div>","1","main_experiment_trial","9","fruits_semantic","semantic_sequence_notimeline","chronological","","","","","","",""
"","","","","","html-keyboard-response","119","487384","0.0-119.0","B055CA7C3B4444F4BD5E13EC298695AB","019d6b42-4515-7010-b3d4-9e992b81ae6a","019d6ae6-5d89-74c6-b581-3918d1816346","","null","
                <div class=""stimulus-container"">
                    <img src=""semantic_sequence_notimeline/fruits_semantic/fruits_semantic_ten.png"" class=""exp-image"">
                    <div class=""question-area""></div> 
                </div>","null","","","","","","","","","","","",""
"","","","","","html-button-response","120","488114","0.0-120.0","B055CA7C3B4444F4BD5E13EC298695AB","019d6b42-4515-7010-b3d4-9e992b81ae6a","019d6ae6-5d89-74c6-b581-3918d1816346","","730","
                <div class=""stimulus-container"">
                    <img src=""semantic_sequence_notimeline/fruits_semantic/fruits_semantic_ten.png"" class=""exp-image"">
                    <div class=""question-area"">
                        <p style=""font-size: 20px; font-weight: bold; margin: 0;"">Is there a person in this image?</p>
                    </div>
                </div>","1","main_experiment_trial","ten","fruits_semantic","semantic_sequence_notimeline","chronological","","","","","","",""
"","","","","","html-keyboard-response","121","493116","0.0-121.0","B055CA7C3B4444F4BD5E13EC298695AB","019d6b42-4515-7010-b3d4-9e992b81ae6a","019d6ae6-5d89-74c6-b581-3918d1816346","","null","<div style=""background-color: white; width: 100vw; height: 100vh;""></div>","null","","","","","","","","","","","",""
"","","","","","html-keyboard-response","122","498119","0.0-122.0","B055CA7C3B4444F4BD5E13EC298695AB","019d6b42-4515-7010-b3d4-9e992b81ae6a","019d6ae6-5d89-74c6-b581-3918d1816346","","null","
                <div class=""stimulus-container"">
                    <img src=""semantic_sequence_notimeline/transportation_semantic/transportation_semantic_1.png"" class=""exp-image"">
                    <div class=""question-area""></div> 
                </div>","null","","","","","","","","","","","",""
"","","","","","html-button-response","123","500132","0.0-123.0","B055CA7C3B4444F4BD5E13EC298695AB","019d6b42-4515-7010-b3d4-9e992b81ae6a","019d6ae6-5d89-74c6-b581-3918d1816346","","2012","
                <div class=""stimulus-container"">
                    <img src=""semantic_sequence_notimeline/transportation_semantic/transportation_semantic_1.png"" class=""exp-image"">
                    <div class=""question-area"">
                        <p style=""font-size: 20px; font-weight: bold; margin: 0;"">Is there a person in this image?</p>
                    </div>
                </div>","1","main_experiment_trial","1","transportation_semantic","semantic_sequence_notimeline","chronological","","","","","","",""
"","","","","","html-keyboard-response","124","505134","0.0-124.0","B055CA7C3B4444F4BD5E13EC298695AB","019d6b42-4515-7010-b3d4-9e992b81ae6a","019d6ae6-5d89-74c6-b581-3918d1816346","","null","
                <div class=""stimulus-container"">
                    <img src=""semantic_sequence_notimeline/transportation_semantic/transportation_semantic_2.png"" class=""exp-image"">
                    <div class=""question-area""></div> 
                </div>","null","","","","","","","","","","","",""
"","","","","","html-button-response","125","506798","0.0-125.0","B055CA7C3B4444F4BD5E13EC298695AB","019d6b42-4515-7010-b3d4-9e992b81ae6a","019d6ae6-5d89-74c6-b581-3918d1816346","","1662","
                <div class=""stimulus-container"">
                    <img src=""semantic_sequence_notimeline/transportation_semantic/transportation_semantic_2.png"" class=""exp-image"">
                    <div class=""question-area"">
                        <p style=""font-size: 20px; font-weight: bold; margin: 0;"">Is there a person in this image?</p>
                    </div>
                </div>","1","main_experiment_trial","2","transportation_semantic","semantic_sequence_notimeline","chronological","","","","","","",""
"","","","","","html-keyboard-response","126","511800","0.0-126.0","B055CA7C3B4444F4BD5E13EC298695AB","019d6b42-4515-7010-b3d4-9e992b81ae6a","019d6ae6-5d89-74c6-b581-3918d1816346","","null","
                <div class=""stimulus-container"">
                    <img src=""semantic_sequence_notimeline/transportation_semantic/transportation_semantic_3.png"" class=""exp-image"">
                    <div class=""question-area""></div> 
                </div>","null","","","","","","","","","","","",""
"","","","","","html-button-response","127","513681","0.0-127.0","B055CA7C3B4444F4BD5E13EC298695AB","019d6b42-4515-7010-b3d4-9e992b81ae6a","019d6ae6-5d89-74c6-b581-3918d1816346","","1881","
                <div class=""stimulus-container"">
                    <img src=""semantic_sequence_notimeline/transportation_semantic/transportation_semantic_3.png"" class=""exp-image"">
                    <div class=""question-area"">
                        <p style=""font-size: 20px; font-weight: bold; margin: 0;"">Is there a person in this image?</p>
                    </div>
                </div>","1","main_experiment_trial","3","transportation_semantic","semantic_sequence_notimeline","chronological","","","","","","",""
"","","","","","html-keyboard-response","128","518683","0.0-128.0","B055CA7C3B4444F4BD5E13EC298695AB","019d6b42-4515-7010-b3d4-9e992b81ae6a","019d6ae6-5d89-74c6-b581-3918d1816346","","null","
                <div class=""stimulus-container"">
                    <img src=""semantic_sequence_notimeline/transportation_semantic/transportation_semantic_4.png"" class=""exp-image"">
                    <div class=""question-area""></div> 
                </div>","null","","","","","","","","","","","",""
"","","","","","html-button-response","129","520065","0.0-129.0","B055CA7C3B4444F4BD5E13EC298695AB","019d6b42-4515-7010-b3d4-9e992b81ae6a","019d6ae6-5d89-74c6-b581-3918d1816346","","1382","
                <div class=""stimulus-container"">
                    <img src=""semantic_sequence_notimeline/transportation_semantic/transportation_semantic_4.png"" class=""exp-image"">
                    <div class=""question-area"">
                        <p style=""font-size: 20px; font-weight: bold; margin: 0;"">Is there a person in this image?</p>
                    </div>
                </div>","1","main_experiment_trial","4","transportation_semantic","semantic_sequence_notimeline","chronological","","","","","","",""
"","","","","","html-keyboard-response","130","525067","0.0-130.0","B055CA7C3B4444F4BD5E13EC298695AB","019d6b42-4515-7010-b3d4-9e992b81ae6a","019d6ae6-5d89-74c6-b581-3918d1816346","","null","
                <div class=""stimulus-container"">
                    <img src=""semantic_sequence_notimeline/transportation_semantic/transportation_semantic_5.png"" class=""exp-image"">
                    <div class=""question-area""></div> 
                </div>","null","","","","","","","","","","","",""
"","","","","","html-button-response","131","525881","0.0-131.0","B055CA7C3B4444F4BD5E13EC298695AB","019d6b42-4515-7010-b3d4-9e992b81ae6a","019d6ae6-5d89-74c6-b581-3918d1816346","","813","
                <div class=""stimulus-container"">
                    <img src=""semantic_sequence_notimeline/transportation_semantic/transportation_semantic_5.png"" class=""exp-image"">
                    <div class=""question-area"">
                        <p style=""font-size: 20px; font-weight: bold; margin: 0;"">Is there a person in this image?</p>
                    </div>
                </div>","1","main_experiment_trial","5","transportation_semantic","semantic_sequence_notimeline","chronological","","","","","","",""
"","","","","","html-keyboard-response","132","530883","0.0-132.0","B055CA7C3B4444F4BD5E13EC298695AB","019d6b42-4515-7010-b3d4-9e992b81ae6a","019d6ae6-5d89-74c6-b581-3918d1816346","","null","
                <div class=""stimulus-container"">
                    <img src=""semantic_sequence_notimeline/transportation_semantic/transportation_semantic_6.png"" class=""exp-image"">
                    <div class=""question-area""></div> 
                </div>","null","","","","","","","","","","","",""
"","","","","","html-button-response","133","532081","0.0-133.0","B055CA7C3B4444F4BD5E13EC298695AB","019d6b42-4515-7010-b3d4-9e992b81ae6a","019d6ae6-5d89-74c6-b581-3918d1816346","","1197","
                <div class=""stimulus-container"">
                    <img src=""semantic_sequence_notimeline/transportation_semantic/transportation_semantic_6.png"" class=""exp-image"">
                    <div class=""question-area"">
                        <p style=""font-size: 20px; font-weight: bold; margin: 0;"">Is there a person in this image?</p>
                    </div>
                </div>","0","main_experiment_trial","6","transportation_semantic","semantic_sequence_notimeline","chronological","","","","","","",""
"","","","","","html-keyboard-response","134","537083","0.0-134.0","B055CA7C3B4444F4BD5E13EC298695AB","019d6b42-4515-7010-b3d4-9e992b81ae6a","019d6ae6-5d89-74c6-b581-3918d1816346","","null","
                <div class=""stimulus-container"">
                    <img src=""semantic_sequence_notimeline/transportation_semantic/transportation_semantic_7.png"" class=""exp-image"">
                    <div class=""question-area""></div> 
                </div>","null","","","","","","","","","","","",""
"","","","","","html-button-response","135","539048","0.0-135.0","B055CA7C3B4444F4BD5E13EC298695AB","019d6b42-4515-7010-b3d4-9e992b81ae6a","019d6ae6-5d89-74c6-b581-3918d1816346","","1964","
                <div class=""stimulus-container"">
                    <img src=""semantic_sequence_notimeline/transportation_semantic/transportation_semantic_7.png"" class=""exp-image"">
                    <div class=""question-area"">
                        <p style=""font-size: 20px; font-weight: bold; margin: 0;"">Is there a person in this image?</p>
                    </div>
                </div>","1","main_experiment_trial","7","transportation_semantic","semantic_sequence_notimeline","chronological","","","","","","",""
"","","","","","html-keyboard-response","136","544050","0.0-136.0","B055CA7C3B4444F4BD5E13EC298695AB","019d6b42-4515-7010-b3d4-9e992b81ae6a","019d6ae6-5d89-74c6-b581-3918d1816346","","null","
                <div class=""stimulus-container"">
                    <img src=""semantic_sequence_notimeline/transportation_semantic/transportation_semantic_8.png"" class=""exp-image"">
                    <div class=""question-area""></div> 
                </div>","null","","","","","","","","","","","",""
"","","","","","html-button-response","137","546534","0.0-137.0","B055CA7C3B4444F4BD5E13EC298695AB","019d6b42-4515-7010-b3d4-9e992b81ae6a","019d6ae6-5d89-74c6-b581-3918d1816346","","2483","
                <div class=""stimulus-container"">
                    <img src=""semantic_sequence_notimeline/transportation_semantic/transportation_semantic_8.png"" class=""exp-image"">
                    <div class=""question-area"">
                        <p style=""font-size: 20px; font-weight: bold; margin: 0;"">Is there a person in this image?</p>
                    </div>
                </div>","1","main_experiment_trial","8","transportation_semantic","semantic_sequence_notimeline","chronological","","","","","","",""
"","","","","","html-keyboard-response","138","551537","0.0-138.0","B055CA7C3B4444F4BD5E13EC298695AB","019d6b42-4515-7010-b3d4-9e992b81ae6a","019d6ae6-5d89-74c6-b581-3918d1816346","","null","
                <div class=""stimulus-container"">
                    <img src=""semantic_sequence_notimeline/transportation_semantic/transportation_semantic_9.png"" class=""exp-image"">
                    <div class=""question-area""></div> 
                </div>","null","","","","","","","","","","","",""
"","","","","","html-button-response","139","553000","0.0-139.0","B055CA7C3B4444F4BD5E13EC298695AB","019d6b42-4515-7010-b3d4-9e992b81ae6a","019d6ae6-5d89-74c6-b581-3918d1816346","","1461","
                <div class=""stimulus-container"">
                    <img src=""semantic_sequence_notimeline/transportation_semantic/transportation_semantic_9.png"" class=""exp-image"">
                    <div class=""question-area"">
                        <p style=""font-size: 20px; font-weight: bold; margin: 0;"">Is there a person in this image?</p>
                    </div>
                </div>","1","main_experiment_trial","9","transportation_semantic","semantic_sequence_notimeline","chronological","","","","","","",""
"","","","","","html-keyboard-response","140","558002","0.0-140.0","B055CA7C3B4444F4BD5E13EC298695AB","019d6b42-4515-7010-b3d4-9e992b81ae6a","019d6ae6-5d89-74c6-b581-3918d1816346","","null","
                <div class=""stimulus-container"">
                    <img src=""semantic_sequence_notimeline/transportation_semantic/transportation_semantic_ten.png"" class=""exp-image"">
                    <div class=""question-area""></div> 
                </div>","null","","","","","","","","","","","",""
"","","","","","html-button-response","141","559249","0.0-141.0","B055CA7C3B4444F4BD5E13EC298695AB","019d6b42-4515-7010-b3d4-9e992b81ae6a","019d6ae6-5d89-74c6-b581-3918d1816346","","1246","
                <div class=""stimulus-container"">
                    <img src=""semantic_sequence_notimeline/transportation_semantic/transportation_semantic_ten.png"" class=""exp-image"">
                    <div class=""question-area"">
                        <p style=""font-size: 20px; font-weight: bold; margin: 0;"">Is there a person in this image?</p>
                    </div>
                </div>","1","main_experiment_trial","ten","transportation_semantic","semantic_sequence_notimeline","chronological","","","","","","",""
"","","","","","html-keyboard-response","142","564251","0.0-142.0","B055CA7C3B4444F4BD5E13EC298695AB","019d6b42-4515-7010-b3d4-9e992b81ae6a","019d6ae6-5d89-74c6-b581-3918d1816346","","null","<div style=""background-color: white; width: 100vw; height: 100vh;""></div>","null","","","","","","","","","","","",""
"","","","","","html-keyboard-response","143","569252","0.0-143.0","B055CA7C3B4444F4BD5E13EC298695AB","019d6b42-4515-7010-b3d4-9e992b81ae6a","019d6ae6-5d89-74c6-b581-3918d1816346","","null","
                <div class=""stimulus-container"">
                    <img src=""images/causal_sequence/museum_causal/museum_causal_1.png"" class=""exp-image"">
                    <div class=""question-area""></div> 
                </div>","null","","","","","","","","","","","",""
"","","","","","html-button-response","144","570681","0.0-144.0","B055CA7C3B4444F4BD5E13EC298695AB","019d6b42-4515-7010-b3d4-9e992b81ae6a","019d6ae6-5d89-74c6-b581-3918d1816346","","1428","
                <div class=""stimulus-container"">
                    <img src=""images/causal_sequence/museum_causal/museum_causal_1.png"" class=""exp-image"">
                    <div class=""question-area"">
                        <p style=""font-size: 20px; font-weight: bold; margin: 0;"">Is there a person in this image?</p>
                    </div>
                </div>","0","main_experiment_trial","1","museum_causal","causal_sequence","chronological","","","","","","",""
"","","","","","html-keyboard-response","145","575683","0.0-145.0","B055CA7C3B4444F4BD5E13EC298695AB","019d6b42-4515-7010-b3d4-9e992b81ae6a","019d6ae6-5d89-74c6-b581-3918d1816346","","null","
                <div class=""stimulus-container"">
                    <img src=""images/causal_sequence/museum_causal/museum_causal_2.png"" class=""exp-image"">
                    <div class=""question-area""></div> 
                </div>","null","","","","","","","","","","","",""
"","","","","","html-button-response","146","576665","0.0-146.0","B055CA7C3B4444F4BD5E13EC298695AB","019d6b42-4515-7010-b3d4-9e992b81ae6a","019d6ae6-5d89-74c6-b581-3918d1816346","","980","
                <div class=""stimulus-container"">
                    <img src=""images/causal_sequence/museum_causal/museum_causal_2.png"" class=""exp-image"">
                    <div class=""question-area"">
                        <p style=""font-size: 20px; font-weight: bold; margin: 0;"">Is there a person in this image?</p>
                    </div>
                </div>","0","main_experiment_trial","2","museum_causal","causal_sequence","chronological","","","","","","",""
"","","","","","html-keyboard-response","147","581667","0.0-147.0","B055CA7C3B4444F4BD5E13EC298695AB","019d6b42-4515-7010-b3d4-9e992b81ae6a","019d6ae6-5d89-74c6-b581-3918d1816346","","null","
                <div class=""stimulus-container"">
                    <img src=""images/causal_sequence/museum_causal/museum_causal_3.png"" class=""exp-image"">
                    <div class=""question-area""></div> 
                </div>","null","","","","","","","","","","","",""
"","","","","","html-button-response","148","583848","0.0-148.0","B055CA7C3B4444F4BD5E13EC298695AB","019d6b42-4515-7010-b3d4-9e992b81ae6a","019d6ae6-5d89-74c6-b581-3918d1816346","","2180","
                <div class=""stimulus-container"">
                    <img src=""images/causal_sequence/museum_causal/museum_causal_3.png"" class=""exp-image"">
                    <div class=""question-area"">
                        <p style=""font-size: 20px; font-weight: bold; margin: 0;"">Is there a person in this image?</p>
                    </div>
                </div>","0","main_experiment_trial","3","museum_causal","causal_sequence","chronological","","","","","","",""
"","","","","","html-keyboard-response","149","588850","0.0-149.0","B055CA7C3B4444F4BD5E13EC298695AB","019d6b42-4515-7010-b3d4-9e992b81ae6a","019d6ae6-5d89-74c6-b581-3918d1816346","","null","
                <div class=""stimulus-container"">
                    <img src=""images/causal_sequence/museum_causal/museum_causal_4.png"" class=""exp-image"">
                    <div class=""question-area""></div> 
                </div>","null","","","","","","","","","","","",""
"","","","","","html-button-response","150","589798","0.0-150.0","B055CA7C3B4444F4BD5E13EC298695AB","019d6b42-4515-7010-b3d4-9e992b81ae6a","019d6ae6-5d89-74c6-b581-3918d1816346","","947","
                <div class=""stimulus-container"">
                    <img src=""images/causal_sequence/museum_causal/museum_causal_4.png"" class=""exp-image"">
                    <div class=""question-area"">
                        <p style=""font-size: 20px; font-weight: bold; margin: 0;"">Is there a person in this image?</p>
                    </div>
                </div>","1","main_experiment_trial","4","museum_causal","causal_sequence","chronological","","","","","","",""
"","","","","","html-keyboard-response","151","594800","0.0-151.0","B055CA7C3B4444F4BD5E13EC298695AB","019d6b42-4515-7010-b3d4-9e992b81ae6a","019d6ae6-5d89-74c6-b581-3918d1816346","","null","
                <div class=""stimulus-container"">
                    <img src=""images/causal_sequence/museum_causal/museum_causal_5.png"" class=""exp-image"">
                    <div class=""question-area""></div> 
                </div>","null","","","","","","","","","","","",""
"","","","","","html-button-response","152","596115","0.0-152.0","B055CA7C3B4444F4BD5E13EC298695AB","019d6b42-4515-7010-b3d4-9e992b81ae6a","019d6ae6-5d89-74c6-b581-3918d1816346","","1314","
                <div class=""stimulus-container"">
                    <img src=""images/causal_sequence/museum_causal/museum_causal_5.png"" class=""exp-image"">
                    <div class=""question-area"">
                        <p style=""font-size: 20px; font-weight: bold; margin: 0;"">Is there a person in this image?</p>
                    </div>
                </div>","1","main_experiment_trial","5","museum_causal","causal_sequence","chronological","","","","","","",""
"","","","","","html-keyboard-response","153","601116","0.0-153.0","B055CA7C3B4444F4BD5E13EC298695AB","019d6b42-4515-7010-b3d4-9e992b81ae6a","019d6ae6-5d89-74c6-b581-3918d1816346","","null","
                <div class=""stimulus-container"">
                    <img src=""images/causal_sequence/museum_causal/museum_causal_6.png"" class=""exp-image"">
                    <div class=""question-area""></div> 
                </div>","null","","","","","","","","","","","",""
"","","","","","html-button-response","154","603269","0.0-154.0","B055CA7C3B4444F4BD5E13EC298695AB","019d6b42-4515-7010-b3d4-9e992b81ae6a","019d6ae6-5d89-74c6-b581-3918d1816346","","2152","
                <div class=""stimulus-container"">
                    <img src=""images/causal_sequence/museum_causal/museum_causal_6.png"" class=""exp-image"">
                    <div class=""question-area"">
                        <p style=""font-size: 20px; font-weight: bold; margin: 0;"">Is there a person in this image?</p>
                    </div>
                </div>","0","main_experiment_trial","6","museum_causal","causal_sequence","chronological","","","","","","",""
"","","","","","html-keyboard-response","155","608272","0.0-155.0","B055CA7C3B4444F4BD5E13EC298695AB","019d6b42-4515-7010-b3d4-9e992b81ae6a","019d6ae6-5d89-74c6-b581-3918d1816346","","null","
                <div class=""stimulus-container"">
                    <img src=""images/causal_sequence/museum_causal/museum_causal_7.png"" class=""exp-image"">
                    <div class=""question-area""></div> 
                </div>","null","","","","","","","","","","","",""
"","","","","","html-button-response","156","610797","0.0-156.0","B055CA7C3B4444F4BD5E13EC298695AB","019d6b42-4515-7010-b3d4-9e992b81ae6a","019d6ae6-5d89-74c6-b581-3918d1816346","","2525","
                <div class=""stimulus-container"">
                    <img src=""images/causal_sequence/museum_causal/museum_causal_7.png"" class=""exp-image"">
                    <div class=""question-area"">
                        <p style=""font-size: 20px; font-weight: bold; margin: 0;"">Is there a person in this image?</p>
                    </div>
                </div>","1","main_experiment_trial","7","museum_causal","causal_sequence","chronological","","","","","","",""
"","","","","","html-keyboard-response","157","615799","0.0-157.0","B055CA7C3B4444F4BD5E13EC298695AB","019d6b42-4515-7010-b3d4-9e992b81ae6a","019d6ae6-5d89-74c6-b581-3918d1816346","","null","
                <div class=""stimulus-container"">
                    <img src=""images/causal_sequence/museum_causal/museum_causal_8.png"" class=""exp-image"">
                    <div class=""question-area""></div> 
                </div>","null","","","","","","","","","","","",""
"","","","","","html-button-response","158","616916","0.0-158.0","B055CA7C3B4444F4BD5E13EC298695AB","019d6b42-4515-7010-b3d4-9e992b81ae6a","019d6ae6-5d89-74c6-b581-3918d1816346","","1116","
                <div class=""stimulus-container"">
                    <img src=""images/causal_sequence/museum_causal/museum_causal_8.png"" class=""exp-image"">
                    <div class=""question-area"">
                        <p style=""font-size: 20px; font-weight: bold; margin: 0;"">Is there a person in this image?</p>
                    </div>
                </div>","1","main_experiment_trial","8","museum_causal","causal_sequence","chronological","","","","","","",""
"","","","","","html-keyboard-response","159","621917","0.0-159.0","B055CA7C3B4444F4BD5E13EC298695AB","019d6b42-4515-7010-b3d4-9e992b81ae6a","019d6ae6-5d89-74c6-b581-3918d1816346","","null","
                <div class=""stimulus-container"">
                    <img src=""images/causal_sequence/museum_causal/museum_causal_9.png"" class=""exp-image"">
                    <div class=""question-area""></div> 
                </div>","null","","","","","","","","","","","",""
"","","","","","html-button-response","160","623732","0.0-160.0","B055CA7C3B4444F4BD5E13EC298695AB","019d6b42-4515-7010-b3d4-9e992b81ae6a","019d6ae6-5d89-74c6-b581-3918d1816346","","1814","
                <div class=""stimulus-container"">
                    <img src=""images/causal_sequence/museum_causal/museum_causal_9.png"" class=""exp-image"">
                    <div class=""question-area"">
                        <p style=""font-size: 20px; font-weight: bold; margin: 0;"">Is there a person in this image?</p>
                    </div>
                </div>","1","main_experiment_trial","9","museum_causal","causal_sequence","chronological","","","","","","",""
"","","","","","html-keyboard-response","161","628734","0.0-161.0","B055CA7C3B4444F4BD5E13EC298695AB","019d6b42-4515-7010-b3d4-9e992b81ae6a","019d6ae6-5d89-74c6-b581-3918d1816346","","null","
                <div class=""stimulus-container"">
                    <img src=""images/causal_sequence/museum_causal/museum_causal_ten.png"" class=""exp-image"">
                    <div class=""question-area""></div> 
                </div>","null","","","","","","","","","","","",""
"","","","","","html-button-response","162","630033","0.0-162.0","B055CA7C3B4444F4BD5E13EC298695AB","019d6b42-4515-7010-b3d4-9e992b81ae6a","019d6ae6-5d89-74c6-b581-3918d1816346","","1297","
                <div class=""stimulus-container"">
                    <img src=""images/causal_sequence/museum_causal/museum_causal_ten.png"" class=""exp-image"">
                    <div class=""question-area"">
                        <p style=""font-size: 20px; font-weight: bold; margin: 0;"">Is there a person in this image?</p>
                    </div>
                </div>","1","main_experiment_trial","ten","museum_causal","causal_sequence","chronological","","","","","","",""
"","","","","","html-keyboard-response","163","635034","0.0-163.0","B055CA7C3B4444F4BD5E13EC298695AB","019d6b42-4515-7010-b3d4-9e992b81ae6a","019d6ae6-5d89-74c6-b581-3918d1816346","","null","<div style=""background-color: white; width: 100vw; height: 100vh;""></div>","null","","","","","","","","","","","",""
"","","","","","html-keyboard-response","164","640037","0.0-164.0","B055CA7C3B4444F4BD5E13EC298695AB","019d6b42-4515-7010-b3d4-9e992b81ae6a","019d6ae6-5d89-74c6-b581-3918d1816346","","null","
                <div class=""stimulus-container"">
                    <img src=""semantic_sequence_notimeline/clothing_semantic/clothing_semantic_1.png"" class=""exp-image"">
                    <div class=""question-area""></div> 
                </div>","null","","","","","","","","","","","",""
"","","","","","html-button-response","165","641516","0.0-165.0","B055CA7C3B4444F4BD5E13EC298695AB","019d6b42-4515-7010-b3d4-9e992b81ae6a","019d6ae6-5d89-74c6-b581-3918d1816346","","1478","
                <div class=""stimulus-container"">
                    <img src=""semantic_sequence_notimeline/clothing_semantic/clothing_semantic_1.png"" class=""exp-image"">
                    <div class=""question-area"">
                        <p style=""font-size: 20px; font-weight: bold; margin: 0;"">Is there a person in this image?</p>
                    </div>
                </div>","1","main_experiment_trial","1","clothing_semantic","semantic_sequence_notimeline","chronological","","","","","","",""
"","","","","","html-keyboard-response","166","646518","0.0-166.0","B055CA7C3B4444F4BD5E13EC298695AB","019d6b42-4515-7010-b3d4-9e992b81ae6a","019d6ae6-5d89-74c6-b581-3918d1816346","","null","
                <div class=""stimulus-container"">
                    <img src=""semantic_sequence_notimeline/clothing_semantic/clothing_semantic_2.png"" class=""exp-image"">
                    <div class=""question-area""></div> 
                </div>","null","","","","","","","","","","","",""
"","","","","","html-button-response","167","648499","0.0-167.0","B055CA7C3B4444F4BD5E13EC298695AB","019d6b42-4515-7010-b3d4-9e992b81ae6a","019d6ae6-5d89-74c6-b581-3918d1816346","","1980","
                <div class=""stimulus-container"">
                    <img src=""semantic_sequence_notimeline/clothing_semantic/clothing_semantic_2.png"" class=""exp-image"">
                    <div class=""question-area"">
                        <p style=""font-size: 20px; font-weight: bold; margin: 0;"">Is there a person in this image?</p>
                    </div>
                </div>","1","main_experiment_trial","2","clothing_semantic","semantic_sequence_notimeline","chronological","","","","","","",""
"","","","","","html-keyboard-response","168","653501","0.0-168.0","B055CA7C3B4444F4BD5E13EC298695AB","019d6b42-4515-7010-b3d4-9e992b81ae6a","019d6ae6-5d89-74c6-b581-3918d1816346","","null","
                <div class=""stimulus-container"">
                    <img src=""semantic_sequence_notimeline/clothing_semantic/clothing_semantic_3.png"" class=""exp-image"">
                    <div class=""question-area""></div> 
                </div>","null","","","","","","","","","","","",""
"","","","","","html-button-response","169","655981","0.0-169.0","B055CA7C3B4444F4BD5E13EC298695AB","019d6b42-4515-7010-b3d4-9e992b81ae6a","019d6ae6-5d89-74c6-b581-3918d1816346","","2479","
                <div class=""stimulus-container"">
                    <img src=""semantic_sequence_notimeline/clothing_semantic/clothing_semantic_3.png"" class=""exp-image"">
                    <div class=""question-area"">
                        <p style=""font-size: 20px; font-weight: bold; margin: 0;"">Is there a person in this image?</p>
                    </div>
                </div>","1","main_experiment_trial","3","clothing_semantic","semantic_sequence_notimeline","chronological","","","","","","",""
"","","","","","html-keyboard-response","170","660983","0.0-170.0","B055CA7C3B4444F4BD5E13EC298695AB","019d6b42-4515-7010-b3d4-9e992b81ae6a","019d6ae6-5d89-74c6-b581-3918d1816346","","null","
                <div class=""stimulus-container"">
                    <img src=""semantic_sequence_notimeline/clothing_semantic/clothing_semantic_4.png"" class=""exp-image"">
                    <div class=""question-area""></div> 
                </div>","null","","","","","","","","","","","",""
"","","","","","html-button-response","171","662435","0.0-171.0","B055CA7C3B4444F4BD5E13EC298695AB","019d6b42-4515-7010-b3d4-9e992b81ae6a","019d6ae6-5d89-74c6-b581-3918d1816346","","1449","
                <div class=""stimulus-container"">
                    <img src=""semantic_sequence_notimeline/clothing_semantic/clothing_semantic_4.png"" class=""exp-image"">
                    <div class=""question-area"">
                        <p style=""font-size: 20px; font-weight: bold; margin: 0;"">Is there a person in this image?</p>
                    </div>
                </div>","1","main_experiment_trial","4","clothing_semantic","semantic_sequence_notimeline","chronological","","","","","","",""
"","","","","","html-keyboard-response","172","667437","0.0-172.0","B055CA7C3B4444F4BD5E13EC298695AB","019d6b42-4515-7010-b3d4-9e992b81ae6a","019d6ae6-5d89-74c6-b581-3918d1816346","","null","
                <div class=""stimulus-container"">
                    <img src=""semantic_sequence_notimeline/clothing_semantic/clothing_semantic_5.png"" class=""exp-image"">
                    <div class=""question-area""></div> 
                </div>","null","","","","","","","","","","","",""
"","","","","","html-button-response","173","668565","0.0-173.0","B055CA7C3B4444F4BD5E13EC298695AB","019d6b42-4515-7010-b3d4-9e992b81ae6a","019d6ae6-5d89-74c6-b581-3918d1816346","","1126","
                <div class=""stimulus-container"">
                    <img src=""semantic_sequence_notimeline/clothing_semantic/clothing_semantic_5.png"" class=""exp-image"">
                    <div class=""question-area"">
                        <p style=""font-size: 20px; font-weight: bold; margin: 0;"">Is there a person in this image?</p>
                    </div>
                </div>","1","main_experiment_trial","5","clothing_semantic","semantic_sequence_notimeline","chronological","","","","","","",""
"","","","","","html-keyboard-response","174","673566","0.0-174.0","B055CA7C3B4444F4BD5E13EC298695AB","019d6b42-4515-7010-b3d4-9e992b81ae6a","019d6ae6-5d89-74c6-b581-3918d1816346","","null","
                <div class=""stimulus-container"">
                    <img src=""semantic_sequence_notimeline/clothing_semantic/clothing_semantic_6.png"" class=""exp-image"">
                    <div class=""question-area""></div> 
                </div>","null","","","","","","","","","","","",""
"","","","","","html-button-response","175","674382","0.0-175.0","B055CA7C3B4444F4BD5E13EC298695AB","019d6b42-4515-7010-b3d4-9e992b81ae6a","019d6ae6-5d89-74c6-b581-3918d1816346","","814","
                <div class=""stimulus-container"">
                    <img src=""semantic_sequence_notimeline/clothing_semantic/clothing_semantic_6.png"" class=""exp-image"">
                    <div class=""question-area"">
                        <p style=""font-size: 20px; font-weight: bold; margin: 0;"">Is there a person in this image?</p>
                    </div>
                </div>","1","main_experiment_trial","6","clothing_semantic","semantic_sequence_notimeline","chronological","","","","","","",""
"","","","","","html-keyboard-response","176","679384","0.0-176.0","B055CA7C3B4444F4BD5E13EC298695AB","019d6b42-4515-7010-b3d4-9e992b81ae6a","019d6ae6-5d89-74c6-b581-3918d1816346","","null","
                <div class=""stimulus-container"">
                    <img src=""semantic_sequence_notimeline/clothing_semantic/clothing_semantic_7.png"" class=""exp-image"">
                    <div class=""question-area""></div> 
                </div>","null","","","","","","","","","","","",""
"","","","","","html-button-response","177","680265","0.0-177.0","B055CA7C3B4444F4BD5E13EC298695AB","019d6b42-4515-7010-b3d4-9e992b81ae6a","019d6ae6-5d89-74c6-b581-3918d1816346","","880","
                <div class=""stimulus-container"">
