"success","timeout","failed_images","failed_audio","failed_video","trial_type","trial_index","time_elapsed","internal_node_id","subject_id","study_id","session_id","view_history","rt","stimulus","response","task","folder","sequence_type","valuable_image_index","reward_type","distance_from_x","target_X","chosen_image_index","is_x_plus_dist","correct_choice"
"true","false","[]","[]","[]","preload","0","3310","0.0-0.0","DB500201701B429AA08CAE64378B09D9","019db60c-1d68-7629-94ad-010b3cf71e69","019db609-2a35-76b9-807a-e0c4c153f4bb","","","","","","","","","","","","","",""
"","","","","","instructions","1","9684","0.0-1.0","DB500201701B429AA08CAE64378B09D9","019db60c-1d68-7629-94ad-010b3cf71e69","019db609-2a35-76b9-807a-e0c4c153f4bb","[{""page_index"":0,""viewing_time"":6372}]","6373","","","","","","","","","","","",""
"","","","","","instructions","2","12127","0.0-2.0","DB500201701B429AA08CAE64378B09D9","019db60c-1d68-7629-94ad-010b3cf71e69","019db609-2a35-76b9-807a-e0c4c153f4bb","[{""page_index"":0,""viewing_time"":2442}]","2442","","","","","","","","","","","",""
"true","","","","","fullscreen","3","14489","0.0-3.0","DB500201701B429AA08CAE64378B09D9","019db60c-1d68-7629-94ad-010b3cf71e69","019db609-2a35-76b9-807a-e0c4c153f4bb","","1352","","","","","","","","","","","",""
"","","","","","instructions","4","25053","0.0-4.0","DB500201701B429AA08CAE64378B09D9","019db60c-1d68-7629-94ad-010b3cf71e69","019db609-2a35-76b9-807a-e0c4c153f4bb","[{""page_index"":0,""viewing_time"":10563}]","10564","","","","","","","","","","","",""
"","","","","","instructions","5","31812","0.0-5.0","DB500201701B429AA08CAE64378B09D9","019db60c-1d68-7629-94ad-010b3cf71e69","019db609-2a35-76b9-807a-e0c4c153f4bb","[{""page_index"":0,""viewing_time"":6757}]","6758","","","","","","","","","","","",""
"","","","","","html-button-response","6","35604","0.0-6.0","DB500201701B429AA08CAE64378B09D9","019db60c-1d68-7629-94ad-010b3cf71e69","019db609-2a35-76b9-807a-e0c4c153f4bb","","3790","
            <div class=""stimulus-container"">
                <img src=""images/semantic_sequence/visiting_cities_semantic/visiting_cities_semantic_5.png"" class=""exp-image"">
                <div class=""question-area"">
                    <p style=""font-size: 20px; font-weight: bold;"">Click the button to reveal the image value</p>
                </div>
            </div>","0","part2_active_reveal_click","visiting_cities_semantic","","","","","","","",""
"","","","","","html-keyboard-response","7","43611","0.0-7.0","DB500201701B429AA08CAE64378B09D9","019db60c-1d68-7629-94ad-010b3cf71e69","019db609-2a35-76b9-807a-e0c4c153f4bb","","null","
            <div class=""stimulus-container"" style=""display: flex; align-items: center; justify-content: center; gap: 40px;"">
                <img src=""images/semantic_sequence/visiting_cities_semantic/visiting_cities_semantic_5.png"" class=""exp-image"">
                <div style=""text-align: center;"">
                    <img src=""images/gray.png"" style=""width: 150px; height: 150px; border: 5px solid grey; border-radius: 15px;"">
                    <p style=""color: grey; font-weight: bold; font-size: 28px; margin-top: 15px;"">NEUTRAL VALUE</p>
                </div>
            </div>","null","part2_value_learning","visiting_cities_semantic","semantic_sequence","5","neutral","","","","",""
"","","","","","html-keyboard-response","8","48615","0.0-8.0","DB500201701B429AA08CAE64378B09D9","019db60c-1d68-7629-94ad-010b3cf71e69","019db609-2a35-76b9-807a-e0c4c153f4bb","","null","<div style=""background-color: white; width: 100vw; height: 100vh;""></div>","null","","","","","","","","","",""
"","","","","","html-button-response","9","51262","0.0-9.0","DB500201701B429AA08CAE64378B09D9","019db60c-1d68-7629-94ad-010b3cf71e69","019db609-2a35-76b9-807a-e0c4c153f4bb","","2645","
            <div class=""stimulus-container"">
                <img src=""images/schematic_sequence/interview_scheme/interview_scheme_7.png"" class=""exp-image"">
                <div class=""question-area"">
                    <p style=""font-size: 20px; font-weight: bold;"">Click the button to reveal the image value</p>
                </div>
            </div>","0","part2_active_reveal_click","interview_scheme","","","","","","","",""
"","","","","","html-keyboard-response","10","59266","0.0-10.0","DB500201701B429AA08CAE64378B09D9","019db60c-1d68-7629-94ad-010b3cf71e69","019db609-2a35-76b9-807a-e0c4c153f4bb","","null","
            <div class=""stimulus-container"" style=""display: flex; align-items: center; justify-content: center; gap: 40px;"">
                <img src=""images/schematic_sequence/interview_scheme/interview_scheme_7.png"" class=""exp-image"">
                <div style=""text-align: center;"">
                    <img src=""images/gray.png"" style=""width: 150px; height: 150px; border: 5px solid grey; border-radius: 15px;"">
                    <p style=""color: grey; font-weight: bold; font-size: 28px; margin-top: 15px;"">NEUTRAL VALUE</p>
                </div>
            </div>","null","part2_value_learning","interview_scheme","schematic_sequence","7","neutral","","","","",""
"","","","","","html-keyboard-response","11","64269","0.0-11.0","DB500201701B429AA08CAE64378B09D9","019db60c-1d68-7629-94ad-010b3cf71e69","019db609-2a35-76b9-807a-e0c4c153f4bb","","null","<div style=""background-color: white; width: 100vw; height: 100vh;""></div>","null","","","","","","","","","",""
"","","","","","html-button-response","12","65751","0.0-12.0","DB500201701B429AA08CAE64378B09D9","019db60c-1d68-7629-94ad-010b3cf71e69","019db609-2a35-76b9-807a-e0c4c153f4bb","","1481","
            <div class=""stimulus-container"">
                <img src=""images/schematic_sequence/hotel_scheme/hotel_scheme_6.png"" class=""exp-image"">
                <div class=""question-area"">
                    <p style=""font-size: 20px; font-weight: bold;"">Click the button to reveal the image value</p>
                </div>
            </div>","0","part2_active_reveal_click","hotel_scheme","","","","","","","",""
"","","","","","html-keyboard-response","13","73754","0.0-13.0","DB500201701B429AA08CAE64378B09D9","019db60c-1d68-7629-94ad-010b3cf71e69","019db609-2a35-76b9-807a-e0c4c153f4bb","","null","
            <div class=""stimulus-container"" style=""display: flex; align-items: center; justify-content: center; gap: 40px;"">
                <img src=""images/schematic_sequence/hotel_scheme/hotel_scheme_6.png"" class=""exp-image"">
                <div style=""text-align: center;"">
                    <img src=""images/gray.png"" style=""width: 150px; height: 150px; border: 5px solid grey; border-radius: 15px;"">
                    <p style=""color: grey; font-weight: bold; font-size: 28px; margin-top: 15px;"">NEUTRAL VALUE</p>
                </div>
            </div>","null","part2_value_learning","hotel_scheme","schematic_sequence","6","neutral","","","","",""
"","","","","","html-keyboard-response","14","78770","0.0-14.0","DB500201701B429AA08CAE64378B09D9","019db60c-1d68-7629-94ad-010b3cf71e69","019db609-2a35-76b9-807a-e0c4c153f4bb","","null","<div style=""background-color: white; width: 100vw; height: 100vh;""></div>","null","","","","","","","","","",""
"","","","","","html-button-response","15","80970","0.0-15.0","DB500201701B429AA08CAE64378B09D9","019db60c-1d68-7629-94ad-010b3cf71e69","019db609-2a35-76b9-807a-e0c4c153f4bb","","2199","
            <div class=""stimulus-container"">
                <img src=""images/semantic_sequence/kitchen_operations_semantic/kitchen_operations_semantic_4.png"" class=""exp-image"">
                <div class=""question-area"">
                    <p style=""font-size: 20px; font-weight: bold;"">Click the button to reveal the image value</p>
                </div>
            </div>","0","part2_active_reveal_click","kitchen_operations_semantic","","","","","","","",""
"","","","","","html-keyboard-response","16","88975","0.0-16.0","DB500201701B429AA08CAE64378B09D9","019db60c-1d68-7629-94ad-010b3cf71e69","019db609-2a35-76b9-807a-e0c4c153f4bb","","null","
            <div class=""stimulus-container"" style=""display: flex; align-items: center; justify-content: center; gap: 40px;"">
                <img src=""images/semantic_sequence/kitchen_operations_semantic/kitchen_operations_semantic_4.png"" class=""exp-image"">
                <div style=""text-align: center;"">
                    <img src=""images/dollar.png"" style=""width: 150px; height: 150px; border: 5px solid green; border-radius: 15px;"">
                    <p style=""color: green; font-weight: bold; font-size: 28px; margin-top: 15px;"">WORTH MONEY</p>
                </div>
            </div>","null","part2_value_learning","kitchen_operations_semantic","semantic_sequence","4","valuable","","","","",""
"","","","","","html-keyboard-response","17","93986","0.0-17.0","DB500201701B429AA08CAE64378B09D9","019db60c-1d68-7629-94ad-010b3cf71e69","019db609-2a35-76b9-807a-e0c4c153f4bb","","null","<div style=""background-color: white; width: 100vw; height: 100vh;""></div>","null","","","","","","","","","",""
"","","","","","html-button-response","18","95511","0.0-18.0","DB500201701B429AA08CAE64378B09D9","019db60c-1d68-7629-94ad-010b3cf71e69","019db609-2a35-76b9-807a-e0c4c153f4bb","","1524","
            <div class=""stimulus-container"">
                <img src=""images/semantic_sequence/physical_activity_semantic/physical_activity_semantic_6.png"" class=""exp-image"">
                <div class=""question-area"">
                    <p style=""font-size: 20px; font-weight: bold;"">Click the button to reveal the image value</p>
                </div>
            </div>","0","part2_active_reveal_click","physical_activity_semantic","","","","","","","",""
"","","","","","html-keyboard-response","19","103515","0.0-19.0","DB500201701B429AA08CAE64378B09D9","019db60c-1d68-7629-94ad-010b3cf71e69","019db609-2a35-76b9-807a-e0c4c153f4bb","","null","
            <div class=""stimulus-container"" style=""display: flex; align-items: center; justify-content: center; gap: 40px;"">
                <img src=""images/semantic_sequence/physical_activity_semantic/physical_activity_semantic_6.png"" class=""exp-image"">
                <div style=""text-align: center;"">
                    <img src=""images/dollar.png"" style=""width: 150px; height: 150px; border: 5px solid green; border-radius: 15px;"">
                    <p style=""color: green; font-weight: bold; font-size: 28px; margin-top: 15px;"">WORTH MONEY</p>
                </div>
            </div>","null","part2_value_learning","physical_activity_semantic","semantic_sequence","6","valuable","","","","",""
"","","","","","html-keyboard-response","20","108525","0.0-20.0","DB500201701B429AA08CAE64378B09D9","019db60c-1d68-7629-94ad-010b3cf71e69","019db609-2a35-76b9-807a-e0c4c153f4bb","","null","<div style=""background-color: white; width: 100vw; height: 100vh;""></div>","null","","","","","","","","","",""
"","","","","","html-button-response","21","109812","0.0-21.0","DB500201701B429AA08CAE64378B09D9","019db60c-1d68-7629-94ad-010b3cf71e69","019db609-2a35-76b9-807a-e0c4c153f4bb","","1285","
            <div class=""stimulus-container"">
                <img src=""images/schematic_sequence/dinner_party_scheme/dinner_party_scheme_7.png"" class=""exp-image"">
                <div class=""question-area"">
                    <p style=""font-size: 20px; font-weight: bold;"">Click the button to reveal the image value</p>
                </div>
            </div>","0","part2_active_reveal_click","dinner_party_scheme","","","","","","","",""
"","","","","","html-keyboard-response","22","117816","0.0-22.0","DB500201701B429AA08CAE64378B09D9","019db60c-1d68-7629-94ad-010b3cf71e69","019db609-2a35-76b9-807a-e0c4c153f4bb","","null","
            <div class=""stimulus-container"" style=""display: flex; align-items: center; justify-content: center; gap: 40px;"">
                <img src=""images/schematic_sequence/dinner_party_scheme/dinner_party_scheme_7.png"" class=""exp-image"">
                <div style=""text-align: center;"">
                    <img src=""images/gray.png"" style=""width: 150px; height: 150px; border: 5px solid grey; border-radius: 15px;"">
                    <p style=""color: grey; font-weight: bold; font-size: 28px; margin-top: 15px;"">NEUTRAL VALUE</p>
                </div>
            </div>","null","part2_value_learning","dinner_party_scheme","schematic_sequence","7","neutral","","","","",""
"","","","","","html-keyboard-response","23","122821","0.0-23.0","DB500201701B429AA08CAE64378B09D9","019db60c-1d68-7629-94ad-010b3cf71e69","019db609-2a35-76b9-807a-e0c4c153f4bb","","null","<div style=""background-color: white; width: 100vw; height: 100vh;""></div>","null","","","","","","","","","",""
"","","","","","html-button-response","24","124826","0.0-24.0","DB500201701B429AA08CAE64378B09D9","019db60c-1d68-7629-94ad-010b3cf71e69","019db609-2a35-76b9-807a-e0c4c153f4bb","","2002","
            <div class=""stimulus-container"">
                <img src=""images/semantic_sequence/housework_semantic/housework_semantic_6.png"" class=""exp-image"">
                <div class=""question-area"">
                    <p style=""font-size: 20px; font-weight: bold;"">Click the button to reveal the image value</p>
                </div>
            </div>","0","part2_active_reveal_click","housework_semantic","","","","","","","",""
"","","","","","html-keyboard-response","25","132834","0.0-25.0","DB500201701B429AA08CAE64378B09D9","019db60c-1d68-7629-94ad-010b3cf71e69","019db609-2a35-76b9-807a-e0c4c153f4bb","","null","
            <div class=""stimulus-container"" style=""display: flex; align-items: center; justify-content: center; gap: 40px;"">
                <img src=""images/semantic_sequence/housework_semantic/housework_semantic_6.png"" class=""exp-image"">
                <div style=""text-align: center;"">
                    <img src=""images/dollar.png"" style=""width: 150px; height: 150px; border: 5px solid green; border-radius: 15px;"">
                    <p style=""color: green; font-weight: bold; font-size: 28px; margin-top: 15px;"">WORTH MONEY</p>
                </div>
            </div>","null","part2_value_learning","housework_semantic","semantic_sequence","6","valuable","","","","",""
"","","","","","html-keyboard-response","26","137836","0.0-26.0","DB500201701B429AA08CAE64378B09D9","019db60c-1d68-7629-94ad-010b3cf71e69","019db609-2a35-76b9-807a-e0c4c153f4bb","","null","<div style=""background-color: white; width: 100vw; height: 100vh;""></div>","null","","","","","","","","","",""
"","","","","","html-button-response","27","140608","0.0-27.0","DB500201701B429AA08CAE64378B09D9","019db60c-1d68-7629-94ad-010b3cf71e69","019db609-2a35-76b9-807a-e0c4c153f4bb","","2771","
            <div class=""stimulus-container"">
                <img src=""images/semantic_sequence/self_care_activities_semantic/self_care_activities_semantic_5.png"" class=""exp-image"">
                <div class=""question-area"">
                    <p style=""font-size: 20px; font-weight: bold;"">Click the button to reveal the image value</p>
                </div>
            </div>","0","part2_active_reveal_click","self_care_activities_semantic","","","","","","","",""
"","","","","","html-keyboard-response","28","148619","0.0-28.0","DB500201701B429AA08CAE64378B09D9","019db60c-1d68-7629-94ad-010b3cf71e69","019db609-2a35-76b9-807a-e0c4c153f4bb","","null","
            <div class=""stimulus-container"" style=""display: flex; align-items: center; justify-content: center; gap: 40px;"">
                <img src=""images/semantic_sequence/self_care_activities_semantic/self_care_activities_semantic_5.png"" class=""exp-image"">
                <div style=""text-align: center;"">
                    <img src=""images/gray.png"" style=""width: 150px; height: 150px; border: 5px solid grey; border-radius: 15px;"">
                    <p style=""color: grey; font-weight: bold; font-size: 28px; margin-top: 15px;"">NEUTRAL VALUE</p>
                </div>
            </div>","null","part2_value_learning","self_care_activities_semantic","semantic_sequence","5","neutral","","","","",""
"","","","","","html-keyboard-response","29","153627","0.0-29.0","DB500201701B429AA08CAE64378B09D9","019db60c-1d68-7629-94ad-010b3cf71e69","019db609-2a35-76b9-807a-e0c4c153f4bb","","null","<div style=""background-color: white; width: 100vw; height: 100vh;""></div>","null","","","","","","","","","",""
"","","","","","html-button-response","30","155285","0.0-30.0","DB500201701B429AA08CAE64378B09D9","019db60c-1d68-7629-94ad-010b3cf71e69","019db609-2a35-76b9-807a-e0c4c153f4bb","","1656","
            <div class=""stimulus-container"">
                <img src=""images/semantic_sequence/maintaining_a_car_semantic/maintaining_a_car_semantic_5.png"" class=""exp-image"">
                <div class=""question-area"">
                    <p style=""font-size: 20px; font-weight: bold;"">Click the button to reveal the image value</p>
                </div>
            </div>","0","part2_active_reveal_click","maintaining_a_car_semantic","","","","","","","",""
"","","","","","html-keyboard-response","31","163302","0.0-31.0","DB500201701B429AA08CAE64378B09D9","019db60c-1d68-7629-94ad-010b3cf71e69","019db609-2a35-76b9-807a-e0c4c153f4bb","","null","
            <div class=""stimulus-container"" style=""display: flex; align-items: center; justify-content: center; gap: 40px;"">
                <img src=""images/semantic_sequence/maintaining_a_car_semantic/maintaining_a_car_semantic_5.png"" class=""exp-image"">
                <div style=""text-align: center;"">
                    <img src=""images/gray.png"" style=""width: 150px; height: 150px; border: 5px solid grey; border-radius: 15px;"">
                    <p style=""color: grey; font-weight: bold; font-size: 28px; margin-top: 15px;"">NEUTRAL VALUE</p>
                </div>
            </div>","null","part2_value_learning","maintaining_a_car_semantic","semantic_sequence","5","neutral","","","","",""
"","","","","","html-keyboard-response","32","168309","0.0-32.0","DB500201701B429AA08CAE64378B09D9","019db60c-1d68-7629-94ad-010b3cf71e69","019db609-2a35-76b9-807a-e0c4c153f4bb","","null","<div style=""background-color: white; width: 100vw; height: 100vh;""></div>","null","","","","","","","","","",""
"","","","","","html-button-response","33","170041","0.0-33.0","DB500201701B429AA08CAE64378B09D9","019db60c-1d68-7629-94ad-010b3cf71e69","019db609-2a35-76b9-807a-e0c4c153f4bb","","1731","
            <div class=""stimulus-container"">
                <img src=""images/schematic_sequence/supermarket_scheme/supermarket_scheme_7.png"" class=""exp-image"">
                <div class=""question-area"">
                    <p style=""font-size: 20px; font-weight: bold;"">Click the button to reveal the image value</p>
                </div>
            </div>","0","part2_active_reveal_click","supermarket_scheme","","","","","","","",""
"","","","","","html-keyboard-response","34","178055","0.0-34.0","DB500201701B429AA08CAE64378B09D9","019db60c-1d68-7629-94ad-010b3cf71e69","019db609-2a35-76b9-807a-e0c4c153f4bb","","null","
            <div class=""stimulus-container"" style=""display: flex; align-items: center; justify-content: center; gap: 40px;"">
                <img src=""images/schematic_sequence/supermarket_scheme/supermarket_scheme_7.png"" class=""exp-image"">
                <div style=""text-align: center;"">
                    <img src=""images/dollar.png"" style=""width: 150px; height: 150px; border: 5px solid green; border-radius: 15px;"">
                    <p style=""color: green; font-weight: bold; font-size: 28px; margin-top: 15px;"">WORTH MONEY</p>
                </div>
            </div>","null","part2_value_learning","supermarket_scheme","schematic_sequence","7","valuable","","","","",""
"","","","","","html-keyboard-response","35","183058","0.0-35.0","DB500201701B429AA08CAE64378B09D9","019db60c-1d68-7629-94ad-010b3cf71e69","019db609-2a35-76b9-807a-e0c4c153f4bb","","null","<div style=""background-color: white; width: 100vw; height: 100vh;""></div>","null","","","","","","","","","",""
"","","","","","html-button-response","36","184745","0.0-36.0","DB500201701B429AA08CAE64378B09D9","019db60c-1d68-7629-94ad-010b3cf71e69","019db609-2a35-76b9-807a-e0c4c153f4bb","","1685","
            <div class=""stimulus-container"">
                <img src=""images/schematic_sequence/restaurant_scheme/restaurant_scheme_7.png"" class=""exp-image"">
                <div class=""question-area"">
                    <p style=""font-size: 20px; font-weight: bold;"">Click the button to reveal the image value</p>
                </div>
            </div>","0","part2_active_reveal_click","restaurant_scheme","","","","","","","",""
"","","","","","html-keyboard-response","37","192750","0.0-37.0","DB500201701B429AA08CAE64378B09D9","019db60c-1d68-7629-94ad-010b3cf71e69","019db609-2a35-76b9-807a-e0c4c153f4bb","","null","
            <div class=""stimulus-container"" style=""display: flex; align-items: center; justify-content: center; gap: 40px;"">
                <img src=""images/schematic_sequence/restaurant_scheme/restaurant_scheme_7.png"" class=""exp-image"">
                <div style=""text-align: center;"">
                    <img src=""images/dollar.png"" style=""width: 150px; height: 150px; border: 5px solid green; border-radius: 15px;"">
                    <p style=""color: green; font-weight: bold; font-size: 28px; margin-top: 15px;"">WORTH MONEY</p>
                </div>
            </div>","null","part2_value_learning","restaurant_scheme","schematic_sequence","7","valuable","","","","",""
"","","","","","html-keyboard-response","38","197752","0.0-38.0","DB500201701B429AA08CAE64378B09D9","019db60c-1d68-7629-94ad-010b3cf71e69","019db609-2a35-76b9-807a-e0c4c153f4bb","","null","<div style=""background-color: white; width: 100vw; height: 100vh;""></div>","null","","","","","","","","","",""
"","","","","","html-button-response","39","199218","0.0-39.0","DB500201701B429AA08CAE64378B09D9","019db60c-1d68-7629-94ad-010b3cf71e69","019db609-2a35-76b9-807a-e0c4c153f4bb","","1465","
            <div class=""stimulus-container"">
                <img src=""images/schematic_sequence/flight_scheme/flight_scheme_7.png"" class=""exp-image"">
                <div class=""question-area"">
                    <p style=""font-size: 20px; font-weight: bold;"">Click the button to reveal the image value</p>
                </div>
            </div>","0","part2_active_reveal_click","flight_scheme","","","","","","","",""
"","","","","","html-keyboard-response","40","207225","0.0-40.0","DB500201701B429AA08CAE64378B09D9","019db60c-1d68-7629-94ad-010b3cf71e69","019db609-2a35-76b9-807a-e0c4c153f4bb","","null","
            <div class=""stimulus-container"" style=""display: flex; align-items: center; justify-content: center; gap: 40px;"">
                <img src=""images/schematic_sequence/flight_scheme/flight_scheme_7.png"" class=""exp-image"">
                <div style=""text-align: center;"">
                    <img src=""images/dollar.png"" style=""width: 150px; height: 150px; border: 5px solid green; border-radius: 15px;"">
                    <p style=""color: green; font-weight: bold; font-size: 28px; margin-top: 15px;"">WORTH MONEY</p>
                </div>
            </div>","null","part2_value_learning","flight_scheme","schematic_sequence","7","valuable","","","","",""
"","","","","","html-keyboard-response","41","212242","0.0-41.0","DB500201701B429AA08CAE64378B09D9","019db60c-1d68-7629-94ad-010b3cf71e69","019db609-2a35-76b9-807a-e0c4c153f4bb","","null","<div style=""background-color: white; width: 100vw; height: 100vh;""></div>","null","","","","","","","","","",""
"","","","","","instructions","42","217338","0.0-42.0","DB500201701B429AA08CAE64378B09D9","019db60c-1d68-7629-94ad-010b3cf71e69","019db609-2a35-76b9-807a-e0c4c153f4bb","[{""page_index"":0,""viewing_time"":5095}]","5095","","","","","","","","","","","",""
"","","","","","html-keyboard-response","43","220346","0.0-43.0-0.0","DB500201701B429AA08CAE64378B09D9","019db60c-1d68-7629-94ad-010b3cf71e69","019db609-2a35-76b9-807a-e0c4c153f4bb","","null","
                            <div style=""font-family: Arial; margin-bottom: 20px;""><h3>Which image is worth <b>more money</b>?</h3></div>
                            <div class=""stimulus-container"" style=""display: flex; width: 800px; justify-content: center; gap: 30px;"">
                                <img src=""images/schematic_sequence/restaurant_scheme/restaurant_scheme_9.png"" class=""small-image"">
                                <img src=""images/schematic_sequence/restaurant_scheme/restaurant_scheme_5.png"" class=""small-image"">
                            </div>","null","","","","","","","","","",""
"","","","","","html-button-response","44","222106","0.0-43.0-1.0","DB500201701B429AA08CAE64378B09D9","019db60c-1d68-7629-94ad-010b3cf71e69","019db609-2a35-76b9-807a-e0c4c153f4bb","","1758","
                            <div style=""font-family: Arial; margin-bottom: 20px;""><h3>Which image is worth <b>more money</b>?</h3></div>
                            <div class=""stimulus-container"" style=""display: flex; width: 800px; justify-content: center; gap: 30px;"">
                                <img src=""images/schematic_sequence/restaurant_scheme/restaurant_scheme_9.png"" class=""small-image"">
                                <img src=""images/schematic_sequence/restaurant_scheme/restaurant_scheme_5.png"" class=""small-image"">
                            </div>","0","part3_choice_neighbors","restaurant_scheme","schematic_sequence","","","2","7","9","1",""
"","","","","","html-keyboard-response","45","225109","0.0-44.0-0.0","DB500201701B429AA08CAE64378B09D9","019db60c-1d68-7629-94ad-010b3cf71e69","019db609-2a35-76b9-807a-e0c4c153f4bb","","null","
                            <div style=""font-family: Arial; margin-bottom: 20px;""><h3>Which image is worth <b>more money</b>?</h3></div>
                            <div class=""stimulus-container"" style=""display: flex; width: 800px; justify-content: center; gap: 30px;"">
                                <img src=""images/schematic_sequence/interview_scheme/interview_scheme_4.png"" class=""small-image"">
                                <img src=""images/schematic_sequence/interview_scheme/interview_scheme_ten.png"" class=""small-image"">
                            </div>","null","","","","","","","","","",""
"","","","","","html-button-response","46","225965","0.0-44.0-1.0","DB500201701B429AA08CAE64378B09D9","019db60c-1d68-7629-94ad-010b3cf71e69","019db609-2a35-76b9-807a-e0c4c153f4bb","","855","
                            <div style=""font-family: Arial; margin-bottom: 20px;""><h3>Which image is worth <b>more money</b>?</h3></div>
                            <div class=""stimulus-container"" style=""display: flex; width: 800px; justify-content: center; gap: 30px;"">
                                <img src=""images/schematic_sequence/interview_scheme/interview_scheme_4.png"" class=""small-image"">
                                <img src=""images/schematic_sequence/interview_scheme/interview_scheme_ten.png"" class=""small-image"">
                            </div>","0","part3_choice_neighbors","interview_scheme","schematic_sequence","","","3","7","4","0",""
"","","","","","html-keyboard-response","47","228970","0.0-45.0-0.0","DB500201701B429AA08CAE64378B09D9","019db60c-1d68-7629-94ad-010b3cf71e69","019db609-2a35-76b9-807a-e0c4c153f4bb","","null","
                            <div style=""font-family: Arial; margin-bottom: 20px;""><h3>Which image is worth <b>more money</b>?</h3></div>
                            <div class=""stimulus-container"" style=""display: flex; width: 800px; justify-content: center; gap: 30px;"">
                                <img src=""images/semantic_sequence/kitchen_operations_semantic/kitchen_operations_semantic_6.png"" class=""small-image"">
                                <img src=""images/semantic_sequence/kitchen_operations_semantic/kitchen_operations_semantic_2.png"" class=""small-image"">
                            </div>","null","","","","","","","","","",""
"","","","","","html-button-response","48","229650","0.0-45.0-1.0","DB500201701B429AA08CAE64378B09D9","019db60c-1d68-7629-94ad-010b3cf71e69","019db609-2a35-76b9-807a-e0c4c153f4bb","","679","
                            <div style=""font-family: Arial; margin-bottom: 20px;""><h3>Which image is worth <b>more money</b>?</h3></div>
                            <div class=""stimulus-container"" style=""display: flex; width: 800px; justify-content: center; gap: 30px;"">
                                <img src=""images/semantic_sequence/kitchen_operations_semantic/kitchen_operations_semantic_6.png"" class=""small-image"">
                                <img src=""images/semantic_sequence/kitchen_operations_semantic/kitchen_operations_semantic_2.png"" class=""small-image"">
                            </div>","0","part3_choice_neighbors","kitchen_operations_semantic","semantic_sequence","","","2","4","6","1",""
"","","","","","html-keyboard-response","49","232654","0.0-46.0-0.0","DB500201701B429AA08CAE64378B09D9","019db60c-1d68-7629-94ad-010b3cf71e69","019db609-2a35-76b9-807a-e0c4c153f4bb","","null","
                            <div style=""font-family: Arial; margin-bottom: 20px;""><h3>Which image is worth <b>more money</b>?</h3></div>
                            <div class=""stimulus-container"" style=""display: flex; width: 800px; justify-content: center; gap: 30px;"">
                                <img src=""images/schematic_sequence/restaurant_scheme/restaurant_scheme_6.png"" class=""small-image"">
                                <img src=""images/schematic_sequence/restaurant_scheme/restaurant_scheme_8.png"" class=""small-image"">
                            </div>","null","","","","","","","","","",""
"","","","","","html-button-response","50","233303","0.0-46.0-1.0","DB500201701B429AA08CAE64378B09D9","019db60c-1d68-7629-94ad-010b3cf71e69","019db609-2a35-76b9-807a-e0c4c153f4bb","","648","
                            <div style=""font-family: Arial; margin-bottom: 20px;""><h3>Which image is worth <b>more money</b>?</h3></div>
                            <div class=""stimulus-container"" style=""display: flex; width: 800px; justify-content: center; gap: 30px;"">
                                <img src=""images/schematic_sequence/restaurant_scheme/restaurant_scheme_6.png"" class=""small-image"">
                                <img src=""images/schematic_sequence/restaurant_scheme/restaurant_scheme_8.png"" class=""small-image"">
                            </div>","1","part3_choice_neighbors","restaurant_scheme","schematic_sequence","","","1","7","8","1",""
"","","","","","html-keyboard-response","51","236307","0.0-47.0-0.0","DB500201701B429AA08CAE64378B09D9","019db60c-1d68-7629-94ad-010b3cf71e69","019db609-2a35-76b9-807a-e0c4c153f4bb","","null","
                            <div style=""font-family: Arial; margin-bottom: 20px;""><h3>Which image is worth <b>more money</b>?</h3></div>
                            <div class=""stimulus-container"" style=""display: flex; width: 800px; justify-content: center; gap: 30px;"">
                                <img src=""images/schematic_sequence/hotel_scheme/hotel_scheme_9.png"" class=""small-image"">
                                <img src=""images/schematic_sequence/hotel_scheme/hotel_scheme_3.png"" class=""small-image"">
                            </div>","null","","","","","","","","","",""
"","","","","","html-button-response","52","236889","0.0-47.0-1.0","DB500201701B429AA08CAE64378B09D9","019db60c-1d68-7629-94ad-010b3cf71e69","019db609-2a35-76b9-807a-e0c4c153f4bb","","581","
                            <div style=""font-family: Arial; margin-bottom: 20px;""><h3>Which image is worth <b>more money</b>?</h3></div>
                            <div class=""stimulus-container"" style=""display: flex; width: 800px; justify-content: center; gap: 30px;"">
                                <img src=""images/schematic_sequence/hotel_scheme/hotel_scheme_9.png"" class=""small-image"">
                                <img src=""images/schematic_sequence/hotel_scheme/hotel_scheme_3.png"" class=""small-image"">
                            </div>","1","part3_choice_neighbors","hotel_scheme","schematic_sequence","","","3","6","3","0",""
"","","","","","html-keyboard-response","53","239891","0.0-48.0-0.0","DB500201701B429AA08CAE64378B09D9","019db60c-1d68-7629-94ad-010b3cf71e69","019db609-2a35-76b9-807a-e0c4c153f4bb","","null","<div style=""font-family: Arial; margin-bottom: 20px;""><h3>Which image is worth <b>more money?</h3></div>
                            <div class=""stimulus-container"" style=""display: flex; width: 800px; justify-content: center; gap: 30px;"">
                                <img src=""images/semantic_sequence/housework_semantic/housework_semantic_6.png"" class=""small-image"">
                                <img src=""images/schematic_sequence/hotel_scheme/hotel_scheme_6.png"" class=""small-image"">
                            </div>","null","","","","","","","","","",""
"","","","","","html-button-response","54","241386","0.0-48.0-1.0","DB500201701B429AA08CAE64378B09D9","019db60c-1d68-7629-94ad-010b3cf71e69","019db609-2a35-76b9-807a-e0c4c153f4bb","","1494","<div style=""font-family: Arial; margin-bottom: 20px;""><h3>Which image is worth <b>more money</b>?</h3></div>
                            <div class=""stimulus-container"" style=""display: flex; width: 800px; justify-content: center; gap: 30px;"">
                                <img src=""images/semantic_sequence/housework_semantic/housework_semantic_6.png"" class=""small-image"">
                                <img src=""images/schematic_sequence/hotel_scheme/hotel_scheme_6.png"" class=""small-image"">
                            </div>","0","part3_valuable_vs_neutral_direct","","","","","","","","","true"
"","","","","","html-keyboard-response","55","244389","0.0-49.0-0.0","DB500201701B429AA08CAE64378B09D9","019db60c-1d68-7629-94ad-010b3cf71e69","019db609-2a35-76b9-807a-e0c4c153f4bb","","null","
                            <div style=""font-family: Arial; margin-bottom: 20px;""><h3>Which image is worth <b>more money</b>?</h3></div>
                            <div class=""stimulus-container"" style=""display: flex; width: 800px; justify-content: center; gap: 30px;"">
                                <img src=""images/semantic_sequence/physical_activity_semantic/physical_activity_semantic_7.png"" class=""small-image"">
                                <img src=""images/semantic_sequence/physical_activity_semantic/physical_activity_semantic_5.png"" class=""small-image"">
                            </div>","null","","","","","","","","","",""
"","","","","","html-button-response","56","245804","0.0-49.0-1.0","DB500201701B429AA08CAE64378B09D9","019db60c-1d68-7629-94ad-010b3cf71e69","019db609-2a35-76b9-807a-e0c4c153f4bb","","1414","
                            <div style=""font-family: Arial; margin-bottom: 20px;""><h3>Which image is worth <b>more money</b>?</h3></div>
                            <div class=""stimulus-container"" style=""display: flex; width: 800px; justify-content: center; gap: 30px;"">
                                <img src=""images/semantic_sequence/physical_activity_semantic/physical_activity_semantic_7.png"" class=""small-image"">
                                <img src=""images/semantic_sequence/physical_activity_semantic/physical_activity_semantic_5.png"" class=""small-image"">
                            </div>","0","part3_choice_neighbors","physical_activity_semantic","semantic_sequence","","","1","6","7","1",""
"","","","","","html-keyboard-response","57","248809","0.0-50.0-0.0","DB500201701B429AA08CAE64378B09D9","019db60c-1d68-7629-94ad-010b3cf71e69","019db609-2a35-76b9-807a-e0c4c153f4bb","","null","
                            <div style=""font-family: Arial; margin-bottom: 20px;""><h3>Which image is worth <b>more money</b>?</h3></div>
                            <div class=""stimulus-container"" style=""display: flex; width: 800px; justify-content: center; gap: 30px;"">
                                <img src=""images/semantic_sequence/physical_activity_semantic/physical_activity_semantic_4.png"" class=""small-image"">
                                <img src=""images/semantic_sequence/physical_activity_semantic/physical_activity_semantic_8.png"" class=""small-image"">
                            </div>","null","","","","","","","","","",""
"","","","","","html-button-response","58","251765","0.0-50.0-1.0","DB500201701B429AA08CAE64378B09D9","019db60c-1d68-7629-94ad-010b3cf71e69","019db609-2a35-76b9-807a-e0c4c153f4bb","","2956","
                            <div style=""font-family: Arial; margin-bottom: 20px;""><h3>Which image is worth <b>more money</b>?</h3></div>
                            <div class=""stimulus-container"" style=""display: flex; width: 800px; justify-content: center; gap: 30px;"">
                                <img src=""images/semantic_sequence/physical_activity_semantic/physical_activity_semantic_4.png"" class=""small-image"">
                                <img src=""images/semantic_sequence/physical_activity_semantic/physical_activity_semantic_8.png"" class=""small-image"">
                            </div>","0","part3_choice_neighbors","physical_activity_semantic","semantic_sequence","","","2","6","4","0",""
"","","","","","html-keyboard-response","59","254767","0.0-51.0-0.0","DB500201701B429AA08CAE64378B09D9","019db60c-1d68-7629-94ad-010b3cf71e69","019db609-2a35-76b9-807a-e0c4c153f4bb","","null","
                            <div style=""font-family: Arial; margin-bottom: 20px;""><h3>Which image is worth <b>more money</b>?</h3></div>
                            <div class=""stimulus-container"" style=""display: flex; width: 800px; justify-content: center; gap: 30px;"">
                                <img src=""images/semantic_sequence/housework_semantic/housework_semantic_3.png"" class=""small-image"">
                                <img src=""images/semantic_sequence/housework_semantic/housework_semantic_9.png"" class=""small-image"">
                            </div>","null","","","","","","","","","",""
"","","","","","html-button-response","60","255926","0.0-51.0-1.0","DB500201701B429AA08CAE64378B09D9","019db60c-1d68-7629-94ad-010b3cf71e69","019db609-2a35-76b9-807a-e0c4c153f4bb","","1158","
                            <div style=""font-family: Arial; margin-bottom: 20px;""><h3>Which image is worth <b>more money</b>?</h3></div>
                            <div class=""stimulus-container"" style=""display: flex; width: 800px; justify-content: center; gap: 30px;"">
                                <img src=""images/semantic_sequence/housework_semantic/housework_semantic_3.png"" class=""small-image"">
                                <img src=""images/semantic_sequence/housework_semantic/housework_semantic_9.png"" class=""small-image"">
                            </div>","0","part3_choice_neighbors","housework_semantic","semantic_sequence","","","3","6","3","0",""
"","","","","","html-keyboard-response","61","258931","0.0-52.0-0.0","DB500201701B429AA08CAE64378B09D9","019db60c-1d68-7629-94ad-010b3cf71e69","019db609-2a35-76b9-807a-e0c4c153f4bb","","null","
                            <div style=""font-family: Arial; margin-bottom: 20px;""><h3>Which image is worth <b>more money</b>?</h3></div>
                            <div class=""stimulus-container"" style=""display: flex; width: 800px; justify-content: center; gap: 30px;"">
                                <img src=""images/schematic_sequence/flight_scheme/flight_scheme_ten.png"" class=""small-image"">
                                <img src=""images/schematic_sequence/flight_scheme/flight_scheme_4.png"" class=""small-image"">
                            </div>","null","","","","","","","","","",""
"","","","","","html-button-response","62","259524","0.0-52.0-1.0","DB500201701B429AA08CAE64378B09D9","019db60c-1d68-7629-94ad-010b3cf71e69","019db609-2a35-76b9-807a-e0c4c153f4bb","","592","
                            <div style=""font-family: Arial; margin-bottom: 20px;""><h3>Which image is worth <b>more money</b>?</h3></div>
                            <div class=""stimulus-container"" style=""display: flex; width: 800px; justify-content: center; gap: 30px;"">
                                <img src=""images/schematic_sequence/flight_scheme/flight_scheme_ten.png"" class=""small-image"">
                                <img src=""images/schematic_sequence/flight_scheme/flight_scheme_4.png"" class=""small-image"">
                            </div>","1","part3_choice_neighbors","flight_scheme","schematic_sequence","","","3","7","4","0",""
"","","","","","html-keyboard-response","63","262536","0.0-53.0-0.0","DB500201701B429AA08CAE64378B09D9","019db60c-1d68-7629-94ad-010b3cf71e69","019db609-2a35-76b9-807a-e0c4c153f4bb","","null","
                            <div style=""font-family: Arial; margin-bottom: 20px;""><h3>Which image is worth <b>more money</b>?</h3></div>
                            <div class=""stimulus-container"" style=""display: flex; width: 800px; justify-content: center; gap: 30px;"">
                                <img src=""images/semantic_sequence/physical_activity_semantic/physical_activity_semantic_9.png"" class=""small-image"">
                                <img src=""images/semantic_sequence/physical_activity_semantic/physical_activity_semantic_3.png"" class=""small-image"">
                            </div>","null","","","","","","","","","",""
"","","","","","html-button-response","64","263148","0.0-53.0-1.0","DB500201701B429AA08CAE64378B09D9","019db60c-1d68-7629-94ad-010b3cf71e69","019db609-2a35-76b9-807a-e0c4c153f4bb","","611","
                            <div style=""font-family: Arial; margin-bottom: 20px;""><h3>Which image is worth <b>more money</b>?</h3></div>
                            <div class=""stimulus-container"" style=""display: flex; width: 800px; justify-content: center; gap: 30px;"">
                                <img src=""images/semantic_sequence/physical_activity_semantic/physical_activity_semantic_9.png"" class=""small-image"">
                                <img src=""images/semantic_sequence/physical_activity_semantic/physical_activity_semantic_3.png"" class=""small-image"">
                            </div>","1","part3_choice_neighbors","physical_activity_semantic","semantic_sequence","","","3","6","3","0",""
"","","","","","html-keyboard-response","65","266165","0.0-54.0-0.0","DB500201701B429AA08CAE64378B09D9","019db60c-1d68-7629-94ad-010b3cf71e69","019db609-2a35-76b9-807a-e0c4c153f4bb","","null","
                            <div style=""font-family: Arial; margin-bottom: 20px;""><h3>Which image is worth <b>more money</b>?</h3></div>
                            <div class=""stimulus-container"" style=""display: flex; width: 800px; justify-content: center; gap: 30px;"">
                                <img src=""images/semantic_sequence/maintaining_a_car_semantic/maintaining_a_car_semantic_3.png"" class=""small-image"">
                                <img src=""images/semantic_sequence/maintaining_a_car_semantic/maintaining_a_car_semantic_7.png"" class=""small-image"">
                            </div>","null","","","","","","","","","",""
"","","","","","html-button-response","66","268959","0.0-54.0-1.0","DB500201701B429AA08CAE64378B09D9","019db60c-1d68-7629-94ad-010b3cf71e69","019db609-2a35-76b9-807a-e0c4c153f4bb","","2792","
                            <div style=""font-family: Arial; margin-bottom: 20px;""><h3>Which image is worth <b>more money</b>?</h3></div>
                            <div class=""stimulus-container"" style=""display: flex; width: 800px; justify-content: center; gap: 30px;"">
                                <img src=""images/semantic_sequence/maintaining_a_car_semantic/maintaining_a_car_semantic_3.png"" class=""small-image"">
                                <img src=""images/semantic_sequence/maintaining_a_car_semantic/maintaining_a_car_semantic_7.png"" class=""small-image"">
                            </div>","0","part3_choice_neighbors","maintaining_a_car_semantic","semantic_sequence","","","2","5","3","0",""
"","","","","","html-keyboard-response","67","271963","0.0-55.0-0.0","DB500201701B429AA08CAE64378B09D9","019db60c-1d68-7629-94ad-010b3cf71e69","019db609-2a35-76b9-807a-e0c4c153f4bb","","null","
                            <div style=""font-family: Arial; margin-bottom: 20px;""><h3>Which image is worth <b>more money</b>?</h3></div>
                            <div class=""stimulus-container"" style=""display: flex; width: 800px; justify-content: center; gap: 30px;"">
                                <img src=""images/semantic_sequence/maintaining_a_car_semantic/maintaining_a_car_semantic_6.png"" class=""small-image"">
                                <img src=""images/semantic_sequence/maintaining_a_car_semantic/maintaining_a_car_semantic_4.png"" class=""small-image"">
                            </div>","null","","","","","","","","","",""
"","","","","","html-button-response","68","272876","0.0-55.0-1.0","DB500201701B429AA08CAE64378B09D9","019db60c-1d68-7629-94ad-010b3cf71e69","019db609-2a35-76b9-807a-e0c4c153f4bb","","912","
                            <div style=""font-family: Arial; margin-bottom: 20px;""><h3>Which image is worth <b>more money</b>?</h3></div>
                            <div class=""stimulus-container"" style=""display: flex; width: 800px; justify-content: center; gap: 30px;"">
                                <img src=""images/semantic_sequence/maintaining_a_car_semantic/maintaining_a_car_semantic_6.png"" class=""small-image"">
                                <img src=""images/semantic_sequence/maintaining_a_car_semantic/maintaining_a_car_semantic_4.png"" class=""small-image"">
                            </div>","0","part3_choice_neighbors","maintaining_a_car_semantic","semantic_sequence","","","1","5","6","1",""
"","","","","","html-keyboard-response","69","275888","0.0-56.0-0.0","DB500201701B429AA08CAE64378B09D9","019db60c-1d68-7629-94ad-010b3cf71e69","019db609-2a35-76b9-807a-e0c4c153f4bb","","null","
                            <div style=""font-family: Arial; margin-bottom: 20px;""><h3>Which image is worth <b>more money</b>?</h3></div>
                            <div class=""stimulus-container"" style=""display: flex; width: 800px; justify-content: center; gap: 30px;"">
                                <img src=""images/semantic_sequence/self_care_activities_semantic/self_care_activities_semantic_3.png"" class=""small-image"">
                                <img src=""images/semantic_sequence/self_care_activities_semantic/self_care_activities_semantic_7.png"" class=""small-image"">
                            </div>","null","","","","","","","","","",""
"","","","","","html-button-response","70","276405","0.0-56.0-1.0","DB500201701B429AA08CAE64378B09D9","019db60c-1d68-7629-94ad-010b3cf71e69","019db609-2a35-76b9-807a-e0c4c153f4bb","","516","
                            <div style=""font-family: Arial; margin-bottom: 20px;""><h3>Which image is worth <b>more money</b>?</h3></div>
                            <div class=""stimulus-container"" style=""display: flex; width: 800px; justify-content: center; gap: 30px;"">
                                <img src=""images/semantic_sequence/self_care_activities_semantic/self_care_activities_semantic_3.png"" class=""small-image"">
                                <img src=""images/semantic_sequence/self_care_activities_semantic/self_care_activities_semantic_7.png"" class=""small-image"">
                            </div>","1","part3_choice_neighbors","self_care_activities_semantic","semantic_sequence","","","2","5","7","1",""
"","","","","","html-keyboard-response","71","279416","0.0-57.0-0.0","DB500201701B429AA08CAE64378B09D9","019db60c-1d68-7629-94ad-010b3cf71e69","019db609-2a35-76b9-807a-e0c4c153f4bb","","null","
                            <div style=""font-family: Arial; margin-bottom: 20px;""><h3>Which image is worth <b>more money</b>?</h3></div>
                            <div class=""stimulus-container"" style=""display: flex; width: 800px; justify-content: center; gap: 30px;"">
                                <img src=""images/semantic_sequence/housework_semantic/housework_semantic_7.png"" class=""small-image"">
                                <img src=""images/semantic_sequence/housework_semantic/housework_semantic_5.png"" class=""small-image"">
                            </div>","null","","","","","","","","","",""
"","","","","","html-button-response","72","280430","0.0-57.0-1.0","DB500201701B429AA08CAE64378B09D9","019db60c-1d68-7629-94ad-010b3cf71e69","019db609-2a35-76b9-807a-e0c4c153f4bb","","1013","
                            <div style=""font-family: Arial; margin-bottom: 20px;""><h3>Which image is worth <b>more money</b>?</h3></div>
                            <div class=""stimulus-container"" style=""display: flex; width: 800px; justify-content: center; gap: 30px;"">
                                <img src=""images/semantic_sequence/housework_semantic/housework_semantic_7.png"" class=""small-image"">
                                <img src=""images/semantic_sequence/housework_semantic/housework_semantic_5.png"" class=""small-image"">
                            </div>","0","part3_choice_neighbors","housework_semantic","semantic_sequence","","","1","6","7","1",""
"","","","","","html-keyboard-response","73","283435","0.0-58.0-0.0","DB500201701B429AA08CAE64378B09D9","019db60c-1d68-7629-94ad-010b3cf71e69","019db609-2a35-76b9-807a-e0c4c153f4bb","","null","<div style=""font-family: Arial; margin-bottom: 20px;""><h3>Which image is worth <b>more money?</h3></div>
                            <div class=""stimulus-container"" style=""display: flex; width: 800px; justify-content: center; gap: 30px;"">
                                <img src=""images/semantic_sequence/physical_activity_semantic/physical_activity_semantic_6.png"" class=""small-image"">
                                <img src=""images/semantic_sequence/self_care_activities_semantic/self_care_activities_semantic_5.png"" class=""small-image"">
                            </div>","null","","","","","","","","","",""
"","","","","","html-button-response","74","283979","0.0-58.0-1.0","DB500201701B429AA08CAE64378B09D9","019db60c-1d68-7629-94ad-010b3cf71e69","019db609-2a35-76b9-807a-e0c4c153f4bb","","543","<div style=""font-family: Arial; margin-bottom: 20px;""><h3>Which image is worth <b>more money</b>?</h3></div>
                            <div class=""stimulus-container"" style=""display: flex; width: 800px; justify-content: center; gap: 30px;"">
                                <img src=""images/semantic_sequence/physical_activity_semantic/physical_activity_semantic_6.png"" class=""small-image"">
                                <img src=""images/semantic_sequence/self_care_activities_semantic/self_care_activities_semantic_5.png"" class=""small-image"">
                            </div>","0","part3_valuable_vs_neutral_direct","","","","","","","","","true"
"","","","","","html-keyboard-response","75","286988","0.0-59.0-0.0","DB500201701B429AA08CAE64378B09D9","019db60c-1d68-7629-94ad-010b3cf71e69","019db609-2a35-76b9-807a-e0c4c153f4bb","","null","
                            <div style=""font-family: Arial; margin-bottom: 20px;""><h3>Which image is worth <b>more money</b>?</h3></div>
                            <div class=""stimulus-container"" style=""display: flex; width: 800px; justify-content: center; gap: 30px;"">
                                <img src=""images/semantic_sequence/kitchen_operations_semantic/kitchen_operations_semantic_1.png"" class=""small-image"">
                                <img src=""images/semantic_sequence/kitchen_operations_semantic/kitchen_operations_semantic_7.png"" class=""small-image"">
                            </div>","null","","","","","","","","","",""
"","","","","","html-button-response","76","287588","0.0-59.0-1.0","DB500201701B429AA08CAE64378B09D9","019db60c-1d68-7629-94ad-010b3cf71e69","019db609-2a35-76b9-807a-e0c4c153f4bb","","599","
                            <div style=""font-family: Arial; margin-bottom: 20px;""><h3>Which image is worth <b>more money</b>?</h3></div>
                            <div class=""stimulus-container"" style=""display: flex; width: 800px; justify-content: center; gap: 30px;"">
                                <img src=""images/semantic_sequence/kitchen_operations_semantic/kitchen_operations_semantic_1.png"" class=""small-image"">
                                <img src=""images/semantic_sequence/kitchen_operations_semantic/kitchen_operations_semantic_7.png"" class=""small-image"">
                            </div>","1","part3_choice_neighbors","kitchen_operations_semantic","semantic_sequence","","","3","4","7","1",""
"","","","","","html-keyboard-response","77","290591","0.0-60.0-0.0","DB500201701B429AA08CAE64378B09D9","019db60c-1d68-7629-94ad-010b3cf71e69","019db609-2a35-76b9-807a-e0c4c153f4bb","","null","
                            <div style=""font-family: Arial; margin-bottom: 20px;""><h3>Which image is worth <b>more money</b>?</h3></div>
                            <div class=""stimulus-container"" style=""display: flex; width: 800px; justify-content: center; gap: 30px;"">
                                <img src=""images/semantic_sequence/self_care_activities_semantic/self_care_activities_semantic_8.png"" class=""small-image"">
                                <img src=""images/semantic_sequence/self_care_activities_semantic/self_care_activities_semantic_2.png"" class=""small-image"">
                            </div>","null","","","","","","","","","",""
"","","","","","html-button-response","78","291304","0.0-60.0-1.0","DB500201701B429AA08CAE64378B09D9","019db60c-1d68-7629-94ad-010b3cf71e69","019db609-2a35-76b9-807a-e0c4c153f4bb","","712","
                            <div style=""font-family: Arial; margin-bottom: 20px;""><h3>Which image is worth <b>more money</b>?</h3></div>
                            <div class=""stimulus-container"" style=""display: flex; width: 800px; justify-content: center; gap: 30px;"">
                                <img src=""images/semantic_sequence/self_care_activities_semantic/self_care_activities_semantic_8.png"" class=""small-image"">
                                <img src=""images/semantic_sequence/self_care_activities_semantic/self_care_activities_semantic_2.png"" class=""small-image"">
                            </div>","0","part3_choice_neighbors","self_care_activities_semantic","semantic_sequence","","","3","5","8","1",""
"","","","","","html-keyboard-response","79","294322","0.0-61.0-0.0","DB500201701B429AA08CAE64378B09D9","019db60c-1d68-7629-94ad-010b3cf71e69","019db609-2a35-76b9-807a-e0c4c153f4bb","","null","
                            <div style=""font-family: Arial; margin-bottom: 20px;""><h3>Which image is worth <b>more money</b>?</h3></div>
                            <div class=""stimulus-container"" style=""display: flex; width: 800px; justify-content: center; gap: 30px;"">
                                <img src=""images/schematic_sequence/restaurant_scheme/restaurant_scheme_ten.png"" class=""small-image"">
                                <img src=""images/schematic_sequence/restaurant_scheme/restaurant_scheme_4.png"" class=""small-image"">
                            </div>","null","","","","","","","","","",""
"","","","","","html-button-response","80","294982","0.0-61.0-1.0","DB500201701B429AA08CAE64378B09D9","019db60c-1d68-7629-94ad-010b3cf71e69","019db609-2a35-76b9-807a-e0c4c153f4bb","","660","
                            <div style=""font-family: Arial; margin-bottom: 20px;""><h3>Which image is worth <b>more money</b>?</h3></div>
                            <div class=""stimulus-container"" style=""display: flex; width: 800px; justify-content: center; gap: 30px;"">
                                <img src=""images/schematic_sequence/restaurant_scheme/restaurant_scheme_ten.png"" class=""small-image"">
                                <img src=""images/schematic_sequence/restaurant_scheme/restaurant_scheme_4.png"" class=""small-image"">
                            </div>","1","part3_choice_neighbors","restaurant_scheme","schematic_sequence","","","3","7","4","0",""
"","","","","","html-keyboard-response","81","297988","0.0-62.0-0.0","DB500201701B429AA08CAE64378B09D9","019db60c-1d68-7629-94ad-010b3cf71e69","019db609-2a35-76b9-807a-e0c4c153f4bb","","null","
                            <div style=""font-family: Arial; margin-bottom: 20px;""><h3>Which image is worth <b>more money</b>?</h3></div>
                            <div class=""stimulus-container"" style=""display: flex; width: 800px; justify-content: center; gap: 30px;"">
                                <img src=""images/schematic_sequence/supermarket_scheme/supermarket_scheme_5.png"" class=""small-image"">
                                <img src=""images/schematic_sequence/supermarket_scheme/supermarket_scheme_9.png"" class=""small-image"">
                            </div>","null","","","","","","","","","",""
"","","","","","html-button-response","82","298484","0.0-62.0-1.0","DB500201701B429AA08CAE64378B09D9","019db60c-1d68-7629-94ad-010b3cf71e69","019db609-2a35-76b9-807a-e0c4c153f4bb","","495","
                            <div style=""font-family: Arial; margin-bottom: 20px;""><h3>Which image is worth <b>more money</b>?</h3></div>
                            <div class=""stimulus-container"" style=""display: flex; width: 800px; justify-content: center; gap: 30px;"">
                                <img src=""images/schematic_sequence/supermarket_scheme/supermarket_scheme_5.png"" class=""small-image"">
                                <img src=""images/schematic_sequence/supermarket_scheme/supermarket_scheme_9.png"" class=""small-image"">
                            </div>","1","part3_choice_neighbors","supermarket_scheme","schematic_sequence","","","2","7","9","1",""
"","","","","","html-keyboard-response","83","301489","0.0-63.0-0.0","DB500201701B429AA08CAE64378B09D9","019db60c-1d68-7629-94ad-010b3cf71e69","019db609-2a35-76b9-807a-e0c4c153f4bb","","null","
                            <div style=""font-family: Arial; margin-bottom: 20px;""><h3>Which image is worth <b>more money</b>?</h3></div>
                            <div class=""stimulus-container"" style=""display: flex; width: 800px; justify-content: center; gap: 30px;"">
                                <img src=""images/semantic_sequence/maintaining_a_car_semantic/maintaining_a_car_semantic_8.png"" class=""small-image"">
                                <img src=""images/semantic_sequence/maintaining_a_car_semantic/maintaining_a_car_semantic_2.png"" class=""small-image"">
                            </div>","null","","","","","","","","","",""
"","","","","","html-button-response","84","302241","0.0-63.0-1.0","DB500201701B429AA08CAE64378B09D9","019db60c-1d68-7629-94ad-010b3cf71e69","019db609-2a35-76b9-807a-e0c4c153f4bb","","751","
                            <div style=""font-family: Arial; margin-bottom: 20px;""><h3>Which image is worth <b>more money</b>?</h3></div>
                            <div class=""stimulus-container"" style=""display: flex; width: 800px; justify-content: center; gap: 30px;"">
                                <img src=""images/semantic_sequence/maintaining_a_car_semantic/maintaining_a_car_semantic_8.png"" class=""small-image"">
                                <img src=""images/semantic_sequence/maintaining_a_car_semantic/maintaining_a_car_semantic_2.png"" class=""small-image"">
                            </div>","0","part3_choice_neighbors","maintaining_a_car_semantic","semantic_sequence","","","3","5","8","1",""
"","","","","","html-keyboard-response","85","305250","0.0-64.0-0.0","DB500201701B429AA08CAE64378B09D9","019db60c-1d68-7629-94ad-010b3cf71e69","019db609-2a35-76b9-807a-e0c4c153f4bb","","null","
                            <div style=""font-family: Arial; margin-bottom: 20px;""><h3>Which image is worth <b>more money</b>?</h3></div>
                            <div class=""stimulus-container"" style=""display: flex; width: 800px; justify-content: center; gap: 30px;"">
                                <img src=""images/semantic_sequence/kitchen_operations_semantic/kitchen_operations_semantic_3.png"" class=""small-image"">
                                <img src=""images/semantic_sequence/kitchen_operations_semantic/kitchen_operations_semantic_5.png"" class=""small-image"">
                            </div>","null","","","","","","","","","",""
"","","","","","html-button-response","86","306107","0.0-64.0-1.0","DB500201701B429AA08CAE64378B09D9","019db60c-1d68-7629-94ad-010b3cf71e69","019db609-2a35-76b9-807a-e0c4c153f4bb","","856","
                            <div style=""font-family: Arial; margin-bottom: 20px;""><h3>Which image is worth <b>more money</b>?</h3></div>
                            <div class=""stimulus-container"" style=""display: flex; width: 800px; justify-content: center; gap: 30px;"">
                                <img src=""images/semantic_sequence/kitchen_operations_semantic/kitchen_operations_semantic_3.png"" class=""small-image"">
                                <img src=""images/semantic_sequence/kitchen_operations_semantic/kitchen_operations_semantic_5.png"" class=""small-image"">
                            </div>","1","part3_choice_neighbors","kitchen_operations_semantic","semantic_sequence","","","1","4","5","1",""
"","","","","","html-keyboard-response","87","309112","0.0-65.0-0.0","DB500201701B429AA08CAE64378B09D9","019db60c-1d68-7629-94ad-010b3cf71e69","019db609-2a35-76b9-807a-e0c4c153f4bb","","null","<div style=""font-family: Arial; margin-bottom: 20px;""><h3>Which image is worth <b>more money?</h3></div>
                            <div class=""stimulus-container"" style=""display: flex; width: 800px; justify-content: center; gap: 30px;"">
                                <img src=""images/schematic_sequence/dinner_party_scheme/dinner_party_scheme_7.png"" class=""small-image"">
                                <img src=""images/schematic_sequence/flight_scheme/flight_scheme_7.png"" class=""small-image"">
                            </div>","null","","","","","","","","","",""
"","","","","","html-button-response","88","310103","0.0-65.0-1.0","DB500201701B429AA08CAE64378B09D9","019db60c-1d68-7629-94ad-010b3cf71e69","019db609-2a35-76b9-807a-e0c4c153f4bb","","990","<div style=""font-family: Arial; margin-bottom: 20px;""><h3>Which image is worth <b>more money</b>?</h3></div>
                            <div class=""stimulus-container"" style=""display: flex; width: 800px; justify-content: center; gap: 30px;"">
                                <img src=""images/schematic_sequence/dinner_party_scheme/dinner_party_scheme_7.png"" class=""small-image"">
                                <img src=""images/schematic_sequence/flight_scheme/flight_scheme_7.png"" class=""small-image"">
                            </div>","1","part3_valuable_vs_neutral_direct","","","","","","","","","true"
"","","","","","html-keyboard-response","89","313120","0.0-66.0-0.0","DB500201701B429AA08CAE64378B09D9","019db60c-1d68-7629-94ad-010b3cf71e69","019db609-2a35-76b9-807a-e0c4c153f4bb","","null","<div style=""font-family: Arial; margin-bottom: 20px;""><h3>Which image is worth <b>more money?</h3></div>
                            <div class=""stimulus-container"" style=""display: flex; width: 800px; justify-content: center; gap: 30px;"">
                                <img src=""images/semantic_sequence/kitchen_operations_semantic/kitchen_operations_semantic_4.png"" class=""small-image"">
                                <img src=""images/semantic_sequence/visiting_cities_semantic/visiting_cities_semantic_5.png"" class=""small-image"">
                            </div>","null","","","","","","","","","",""
"","","","","","html-button-response","90","313504","0.0-66.0-1.0","DB500201701B429AA08CAE64378B09D9","019db60c-1d68-7629-94ad-010b3cf71e69","019db609-2a35-76b9-807a-e0c4c153f4bb","","384","<div style=""font-family: Arial; margin-bottom: 20px;""><h3>Which image is worth <b>more money</b>?</h3></div>
                            <div class=""stimulus-container"" style=""display: flex; width: 800px; justify-content: center; gap: 30px;"">
                                <img src=""images/semantic_sequence/kitchen_operations_semantic/kitchen_operations_semantic_4.png"" class=""small-image"">
                                <img src=""images/semantic_sequence/visiting_cities_semantic/visiting_cities_semantic_5.png"" class=""small-image"">
                            </div>","0","part3_valuable_vs_neutral_direct","","","","","","","","","true"
"","","","","","html-keyboard-response","91","316517","0.0-67.0-0.0","DB500201701B429AA08CAE64378B09D9","019db60c-1d68-7629-94ad-010b3cf71e69","019db609-2a35-76b9-807a-e0c4c153f4bb","","null","
                            <div style=""font-family: Arial; margin-bottom: 20px;""><h3>Which image is worth <b>more money</b>?</h3></div>
                            <div class=""stimulus-container"" style=""display: flex; width: 800px; justify-content: center; gap: 30px;"">
                                <img src=""images/schematic_sequence/flight_scheme/flight_scheme_8.png"" class=""small-image"">
                                <img src=""images/schematic_sequence/flight_scheme/flight_scheme_6.png"" class=""small-image"">
                            </div>","null","","","","","","","","","",""
"","","","","","html-button-response","92","317571","0.0-67.0-1.0","DB500201701B429AA08CAE64378B09D9","019db60c-1d68-7629-94ad-010b3cf71e69","019db609-2a35-76b9-807a-e0c4c153f4bb","","1053","
                            <div style=""font-family: Arial; margin-bottom: 20px;""><h3>Which image is worth <b>more money</b>?</h3></div>
                            <div class=""stimulus-container"" style=""display: flex; width: 800px; justify-content: center; gap: 30px;"">
                                <img src=""images/schematic_sequence/flight_scheme/flight_scheme_8.png"" class=""small-image"">
                                <img src=""images/schematic_sequence/flight_scheme/flight_scheme_6.png"" class=""small-image"">
                            </div>","0","part3_choice_neighbors","flight_scheme","schematic_sequence","","","1","7","8","1",""
"","","","","","html-keyboard-response","93","320577","0.0-68.0-0.0","DB500201701B429AA08CAE64378B09D9","019db60c-1d68-7629-94ad-010b3cf71e69","019db609-2a35-76b9-807a-e0c4c153f4bb","","null","
                            <div style=""font-family: Arial; margin-bottom: 20px;""><h3>Which image is worth <b>more money</b>?</h3></div>
                            <div class=""stimulus-container"" style=""display: flex; width: 800px; justify-content: center; gap: 30px;"">
                                <img src=""images/schematic_sequence/dinner_party_scheme/dinner_party_scheme_4.png"" class=""small-image"">
                                <img src=""images/schematic_sequence/dinner_party_scheme/dinner_party_scheme_ten.png"" class=""small-image"">
                            </div>","null","","","","","","","","","",""
"","","","","","html-button-response","94","321267","0.0-68.0-1.0","DB500201701B429AA08CAE64378B09D9","019db60c-1d68-7629-94ad-010b3cf71e69","019db609-2a35-76b9-807a-e0c4c153f4bb","","689","
                            <div style=""font-family: Arial; margin-bottom: 20px;""><h3>Which image is worth <b>more money</b>?</h3></div>
                            <div class=""stimulus-container"" style=""display: flex; width: 800px; justify-content: center; gap: 30px;"">
                                <img src=""images/schematic_sequence/dinner_party_scheme/dinner_party_scheme_4.png"" class=""small-image"">
                                <img src=""images/schematic_sequence/dinner_party_scheme/dinner_party_scheme_ten.png"" class=""small-image"">
                            </div>","0","part3_choice_neighbors","dinner_party_scheme","schematic_sequence","","","3","7","4","0",""
"","","","","","html-keyboard-response","95","324272","0.0-69.0-0.0","DB500201701B429AA08CAE64378B09D9","019db60c-1d68-7629-94ad-010b3cf71e69","019db609-2a35-76b9-807a-e0c4c153f4bb","","null","<div style=""font-family: Arial; margin-bottom: 20px;""><h3>Which image is worth <b>more money?</h3></div>
                            <div class=""stimulus-container"" style=""display: flex; width: 800px; justify-content: center; gap: 30px;"">
                                <img src=""images/semantic_sequence/maintaining_a_car_semantic/maintaining_a_car_semantic_5.png"" class=""small-image"">
                                <img src=""images/schematic_sequence/supermarket_scheme/supermarket_scheme_7.png"" class=""small-image"">
                            </div>","null","","","","","","","","","",""
"","","","","","html-button-response","96","324982","0.0-69.0-1.0","DB500201701B429AA08CAE64378B09D9","019db60c-1d68-7629-94ad-010b3cf71e69","019db609-2a35-76b9-807a-e0c4c153f4bb","","709","<div style=""font-family: Arial; margin-bottom: 20px;""><h3>Which image is worth <b>more money</b>?</h3></div>
                            <div class=""stimulus-container"" style=""display: flex; width: 800px; justify-content: center; gap: 30px;"">
                                <img src=""images/semantic_sequence/maintaining_a_car_semantic/maintaining_a_car_semantic_5.png"" class=""small-image"">
                                <img src=""images/schematic_sequence/supermarket_scheme/supermarket_scheme_7.png"" class=""small-image"">
                            </div>","1","part3_valuable_vs_neutral_direct","","","","","","","","","true"
"","","","","","html-keyboard-response","97","327992","0.0-70.0-0.0","DB500201701B429AA08CAE64378B09D9","019db60c-1d68-7629-94ad-010b3cf71e69","019db609-2a35-76b9-807a-e0c4c153f4bb","","null","
                            <div style=""font-family: Arial; margin-bottom: 20px;""><h3>Which image is worth <b>more money</b>?</h3></div>
                            <div class=""stimulus-container"" style=""display: flex; width: 800px; justify-content: center; gap: 30px;"">
                                <img src=""images/schematic_sequence/hotel_scheme/hotel_scheme_5.png"" class=""small-image"">
                                <img src=""images/schematic_sequence/hotel_scheme/hotel_scheme_7.png"" class=""small-image"">
                            </div>","null","","","","","","","","","",""
"","","","","","html-button-response","98","328492","0.0-70.0-1.0","DB500201701B429AA08CAE64378B09D9","019db60c-1d68-7629-94ad-010b3cf71e69","019db609-2a35-76b9-807a-e0c4c153f4bb","","498","
                            <div style=""font-family: Arial; margin-bottom: 20px;""><h3>Which image is worth <b>more money</b>?</h3></div>
                            <div class=""stimulus-container"" style=""display: flex; width: 800px; justify-content: center; gap: 30px;"">
                                <img src=""images/schematic_sequence/hotel_scheme/hotel_scheme_5.png"" class=""small-image"">
                                <img src=""images/schematic_sequence/hotel_scheme/hotel_scheme_7.png"" class=""small-image"">
                            </div>","1","part3_choice_neighbors","hotel_scheme","schematic_sequence","","","1","6","7","1",""
"","","","","","html-keyboard-response","99","331499","0.0-71.0-0.0","DB500201701B429AA08CAE64378B09D9","019db60c-1d68-7629-94ad-010b3cf71e69","019db609-2a35-76b9-807a-e0c4c153f4bb","","null","<div style=""font-family: Arial; margin-bottom: 20px;""><h3>Which image is worth <b>more money?</h3></div>
                            <div class=""stimulus-container"" style=""display: flex; width: 800px; justify-content: center; gap: 30px;"">
                                <img src=""images/schematic_sequence/interview_scheme/interview_scheme_7.png"" class=""small-image"">
                                <img src=""images/schematic_sequence/restaurant_scheme/restaurant_scheme_7.png"" class=""small-image"">
                            </div>","null","","","","","","","","","",""
"","","","","","html-button-response","100","331997","0.0-71.0-1.0","DB500201701B429AA08CAE64378B09D9","019db60c-1d68-7629-94ad-010b3cf71e69","019db609-2a35-76b9-807a-e0c4c153f4bb","","496","<div style=""font-family: Arial; margin-bottom: 20px;""><h3>Which image is worth <b>more money</b>?</h3></div>
                            <div class=""stimulus-container"" style=""display: flex; width: 800px; justify-content: center; gap: 30px;"">
                                <img src=""images/schematic_sequence/interview_scheme/interview_scheme_7.png"" class=""small-image"">
                                <img src=""images/schematic_sequence/restaurant_scheme/restaurant_scheme_7.png"" class=""small-image"">
                            </div>","1","part3_valuable_vs_neutral_direct","","","","","","","","","true"
"","","","","","html-keyboard-response","101","335003","0.0-72.0-0.0","DB500201701B429AA08CAE64378B09D9","019db60c-1d68-7629-94ad-010b3cf71e69","019db609-2a35-76b9-807a-e0c4c153f4bb","","null","
                            <div style=""font-family: Arial; margin-bottom: 20px;""><h3>Which image is worth <b>more money</b>?</h3></div>
                            <div class=""stimulus-container"" style=""display: flex; width: 800px; justify-content: center; gap: 30px;"">
                                <img src=""images/semantic_sequence/self_care_activities_semantic/self_care_activities_semantic_4.png"" class=""small-image"">
                                <img src=""images/semantic_sequence/self_care_activities_semantic/self_care_activities_semantic_6.png"" class=""small-image"">
                            </div>","null","","","","","","","","","",""
"","","","","","html-button-response","102","335951","0.0-72.0-1.0","DB500201701B429AA08CAE64378B09D9","019db60c-1d68-7629-94ad-010b3cf71e69","019db609-2a35-76b9-807a-e0c4c153f4bb","","946","
                            <div style=""font-family: Arial; margin-bottom: 20px;""><h3>Which image is worth <b>more money</b>?</h3></div>
                            <div class=""stimulus-container"" style=""display: flex; width: 800px; justify-content: center; gap: 30px;"">
                                <img src=""images/semantic_sequence/self_care_activities_semantic/self_care_activities_semantic_4.png"" class=""small-image"">
                                <img src=""images/semantic_sequence/self_care_activities_semantic/self_care_activities_semantic_6.png"" class=""small-image"">
                            </div>","0","part3_choice_neighbors","self_care_activities_semantic","semantic_sequence","","","1","5","4","0",""
"","","","","","html-keyboard-response","103","338954","0.0-73.0-0.0","DB500201701B429AA08CAE64378B09D9","019db60c-1d68-7629-94ad-010b3cf71e69","019db609-2a35-76b9-807a-e0c4c153f4bb","","null","
                            <div style=""font-family: Arial; margin-bottom: 20px;""><h3>Which image is worth <b>more money</b>?</h3></div>
                            <div class=""stimulus-container"" style=""display: flex; width: 800px; justify-content: center; gap: 30px;"">
                                <img src=""images/semantic_sequence/visiting_cities_semantic/visiting_cities_semantic_2.png"" class=""small-image"">
                                <img src=""images/semantic_sequence/visiting_cities_semantic/visiting_cities_semantic_8.png"" class=""small-image"">
                            </div>","null","","","","","","","","","",""
"","","","","","html-button-response","104","339632","0.0-73.0-1.0","DB500201701B429AA08CAE64378B09D9","019db60c-1d68-7629-94ad-010b3cf71e69","019db609-2a35-76b9-807a-e0c4c153f4bb","","676","
                            <div style=""font-family: Arial; margin-bottom: 20px;""><h3>Which image is worth <b>more money</b>?</h3></div>
                            <div class=""stimulus-container"" style=""display: flex; width: 800px; justify-content: center; gap: 30px;"">
                                <img src=""images/semantic_sequence/visiting_cities_semantic/visiting_cities_semantic_2.png"" class=""small-image"">
                                <img src=""images/semantic_sequence/visiting_cities_semantic/visiting_cities_semantic_8.png"" class=""small-image"">
                            </div>","1","part3_choice_neighbors","visiting_cities_semantic","semantic_sequence","","","3","5","8","1",""
"","","","","","html-keyboard-response","105","342639","0.0-74.0-0.0","DB500201701B429AA08CAE64378B09D9","019db60c-1d68-7629-94ad-010b3cf71e69","019db609-2a35-76b9-807a-e0c4c153f4bb","","null","
                            <div style=""font-family: Arial; margin-bottom: 20px;""><h3>Which image is worth <b>more money</b>?</h3></div>
                            <div class=""stimulus-container"" style=""display: flex; width: 800px; justify-content: center; gap: 30px;"">
                                <img src=""images/semantic_sequence/visiting_cities_semantic/visiting_cities_semantic_4.png"" class=""small-image"">
                                <img src=""images/semantic_sequence/visiting_cities_semantic/visiting_cities_semantic_6.png"" class=""small-image"">
                            </div>","null","","","","","","","","","",""
"","","","","","html-button-response","106","343400","0.0-74.0-1.0","DB500201701B429AA08CAE64378B09D9","019db60c-1d68-7629-94ad-010b3cf71e69","019db609-2a35-76b9-807a-e0c4c153f4bb","","760","
                            <div style=""font-family: Arial; margin-bottom: 20px;""><h3>Which image is worth <b>more money</b>?</h3></div>
                            <div class=""stimulus-container"" style=""display: flex; width: 800px; justify-content: center; gap: 30px;"">
                                <img src=""images/semantic_sequence/visiting_cities_semantic/visiting_cities_semantic_4.png"" class=""small-image"">
                                <img src=""images/semantic_sequence/visiting_cities_semantic/visiting_cities_semantic_6.png"" class=""small-image"">
                            </div>","0","part3_choice_neighbors","visiting_cities_semantic","semantic_sequence","","","1","5","4","0",""
"","","","","","html-keyboard-response","107","346403","0.0-75.0-0.0","DB500201701B429AA08CAE64378B09D9","019db60c-1d68-7629-94ad-010b3cf71e69","019db609-2a35-76b9-807a-e0c4c153f4bb","","null","
                            <div style=""font-family: Arial; margin-bottom: 20px;""><h3>Which image is worth <b>more money</b>?</h3></div>
                            <div class=""stimulus-container"" style=""display: flex; width: 800px; justify-content: center; gap: 30px;"">
                                <img src=""images/schematic_sequence/interview_scheme/interview_scheme_5.png"" class=""small-image"">
                                <img src=""images/schematic_sequence/interview_scheme/interview_scheme_9.png"" class=""small-image"">
                            </div>","null","","","","","","","","","",""
"","","","","","html-button-response","108","347022","0.0-75.0-1.0","DB500201701B429AA08CAE64378B09D9","019db60c-1d68-7629-94ad-010b3cf71e69","019db609-2a35-76b9-807a-e0c4c153f4bb","","618","
                            <div style=""font-family: Arial; margin-bottom: 20px;""><h3>Which image is worth <b>more money</b>?</h3></div>
                            <div class=""stimulus-container"" style=""display: flex; width: 800px; justify-content: center; gap: 30px;"">
                                <img src=""images/schematic_sequence/interview_scheme/interview_scheme_5.png"" class=""small-image"">
                                <img src=""images/schematic_sequence/interview_scheme/interview_scheme_9.png"" class=""small-image"">
                            </div>","1","part3_choice_neighbors","interview_scheme","schematic_sequence","","","2","7","9","1",""
"","","","","","html-keyboard-response","109","350024","0.0-76.0-0.0","DB500201701B429AA08CAE64378B09D9","019db60c-1d68-7629-94ad-010b3cf71e69","019db609-2a35-76b9-807a-e0c4c153f4bb","","null","
                            <div style=""font-family: Arial; margin-bottom: 20px;""><h3>Which image is worth <b>more money</b>?</h3></div>
                            <div class=""stimulus-container"" style=""display: flex; width: 800px; justify-content: center; gap: 30px;"">
                                <img src=""images/schematic_sequence/flight_scheme/flight_scheme_9.png"" class=""small-image"">
                                <img src=""images/schematic_sequence/flight_scheme/flight_scheme_5.png"" class=""small-image"">
                            </div>","null","","","","","","","","","",""
"","","","","","html-button-response","110","350668","0.0-76.0-1.0","DB500201701B429AA08CAE64378B09D9","019db60c-1d68-7629-94ad-010b3cf71e69","019db609-2a35-76b9-807a-e0c4c153f4bb","","643","
                            <div style=""font-family: Arial; margin-bottom: 20px;""><h3>Which image is worth <b>more money</b>?</h3></div>
                            <div class=""stimulus-container"" style=""display: flex; width: 800px; justify-content: center; gap: 30px;"">
                                <img src=""images/schematic_sequence/flight_scheme/flight_scheme_9.png"" class=""small-image"">
                                <img src=""images/schematic_sequence/flight_scheme/flight_scheme_5.png"" class=""small-image"">
                            </div>","0","part3_choice_neighbors","flight_scheme","schematic_sequence","","","2","7","9","1",""
"","","","","","html-keyboard-response","111","353672","0.0-77.0-0.0","DB500201701B429AA08CAE64378B09D9","019db60c-1d68-7629-94ad-010b3cf71e69","019db609-2a35-76b9-807a-e0c4c153f4bb","","null","
                            <div style=""font-family: Arial; margin-bottom: 20px;""><h3>Which image is worth <b>more money</b>?</h3></div>
                            <div class=""stimulus-container"" style=""display: flex; width: 800px; justify-content: center; gap: 30px;"">
                                <img src=""images/semantic_sequence/housework_semantic/housework_semantic_4.png"" class=""small-image"">
                                <img src=""images/semantic_sequence/housework_semantic/housework_semantic_8.png"" class=""small-image"">
                            </div>","null","","","","","","","","","",""
"","","","","","html-button-response","112","354095","0.0-77.0-1.0","DB500201701B429AA08CAE64378B09D9","019db60c-1d68-7629-94ad-010b3cf71e69","019db609-2a35-76b9-807a-e0c4c153f4bb","","422","
                            <div style=""font-family: Arial; margin-bottom: 20px;""><h3>Which image is worth <b>more money</b>?</h3></div>
                            <div class=""stimulus-container"" style=""display: flex; width: 800px; justify-content: center; gap: 30px;"">
                                <img src=""images/semantic_sequence/housework_semantic/housework_semantic_4.png"" class=""small-image"">
                                <img src=""images/semantic_sequence/housework_semantic/housework_semantic_8.png"" class=""small-image"">
                            </div>","0","part3_choice_neighbors","housework_semantic","semantic_sequence","","","2","6","4","0",""
"","","","","","html-keyboard-response","113","357102","0.0-78.0-0.0","DB500201701B429AA08CAE64378B09D9","019db60c-1d68-7629-94ad-010b3cf71e69","019db609-2a35-76b9-807a-e0c4c153f4bb","","null","
                            <div style=""font-family: Arial; margin-bottom: 20px;""><h3>Which image is worth <b>more money</b>?</h3></div>
                            <div class=""stimulus-container"" style=""display: flex; width: 800px; justify-content: center; gap: 30px;"">
                                <img src=""images/schematic_sequence/dinner_party_scheme/dinner_party_scheme_6.png"" class=""small-image"">
                                <img src=""images/schematic_sequence/dinner_party_scheme/dinner_party_scheme_8.png"" class=""small-image"">
                            </div>","null","","","","","","","","","",""
"","","","","","html-button-response","114","358186","0.0-78.0-1.0","DB500201701B429AA08CAE64378B09D9","019db60c-1d68-7629-94ad-010b3cf71e69","019db609-2a35-76b9-807a-e0c4c153f4bb","","1083","
                            <div style=""font-family: Arial; margin-bottom: 20px;""><h3>Which image is worth <b>more money</b>?</h3></div>
                            <div class=""stimulus-container"" style=""display: flex; width: 800px; justify-content: center; gap: 30px;"">
                                <img src=""images/schematic_sequence/dinner_party_scheme/dinner_party_scheme_6.png"" class=""small-image"">
                                <img src=""images/schematic_sequence/dinner_party_scheme/dinner_party_scheme_8.png"" class=""small-image"">
                            </div>","1","part3_choice_neighbors","dinner_party_scheme","schematic_sequence","","","1","7","8","1",""
"","","","","","html-keyboard-response","115","361195","0.0-79.0-0.0","DB500201701B429AA08CAE64378B09D9","019db60c-1d68-7629-94ad-010b3cf71e69","019db609-2a35-76b9-807a-e0c4c153f4bb","","null","
                            <div style=""font-family: Arial; margin-bottom: 20px;""><h3>Which image is worth <b>more money</b>?</h3></div>
                            <div class=""stimulus-container"" style=""display: flex; width: 800px; justify-content: center; gap: 30px;"">
                                <img src=""images/schematic_sequence/hotel_scheme/hotel_scheme_4.png"" class=""small-image"">
                                <img src=""images/schematic_sequence/hotel_scheme/hotel_scheme_8.png"" class=""small-image"">
                            </div>","null","","","","","","","","","",""
"","","","","","html-button-response","116","361723","0.0-79.0-1.0","DB500201701B429AA08CAE64378B09D9","019db60c-1d68-7629-94ad-010b3cf71e69","019db609-2a35-76b9-807a-e0c4c153f4bb","","526","
                            <div style=""font-family: Arial; margin-bottom: 20px;""><h3>Which image is worth <b>more money</b>?</h3></div>
                            <div class=""stimulus-container"" style=""display: flex; width: 800px; justify-content: center; gap: 30px;"">
                                <img src=""images/schematic_sequence/hotel_scheme/hotel_scheme_4.png"" class=""small-image"">
                                <img src=""images/schematic_sequence/hotel_scheme/hotel_scheme_8.png"" class=""small-image"">
                            </div>","1","part3_choice_neighbors","hotel_scheme","schematic_sequence","","","2","6","8","1",""
"","","","","","html-keyboard-response","117","364738","0.0-80.0-0.0","DB500201701B429AA08CAE64378B09D9","019db60c-1d68-7629-94ad-010b3cf71e69","019db609-2a35-76b9-807a-e0c4c153f4bb","","null","
                            <div style=""font-family: Arial; margin-bottom: 20px;""><h3>Which image is worth <b>more money</b>?</h3></div>
                            <div class=""stimulus-container"" style=""display: flex; width: 800px; justify-content: center; gap: 30px;"">
                                <img src=""images/schematic_sequence/supermarket_scheme/supermarket_scheme_8.png"" class=""small-image"">
                                <img src=""images/schematic_sequence/supermarket_scheme/supermarket_scheme_6.png"" class=""small-image"">
                            </div>","null","","","","","","","","","",""
"","","","","","html-button-response","118","365766","0.0-80.0-1.0","DB500201701B429AA08CAE64378B09D9","019db60c-1d68-7629-94ad-010b3cf71e69","019db609-2a35-76b9-807a-e0c4c153f4bb","","1027","
                            <div style=""font-family: Arial; margin-bottom: 20px;""><h3>Which image is worth <b>more money</b>?</h3></div>
                            <div class=""stimulus-container"" style=""display: flex; width: 800px; justify-content: center; gap: 30px;"">
                                <img src=""images/schematic_sequence/supermarket_scheme/supermarket_scheme_8.png"" class=""small-image"">
                                <img src=""images/schematic_sequence/supermarket_scheme/supermarket_scheme_6.png"" class=""small-image"">
                            </div>","0","part3_choice_neighbors","supermarket_scheme","schematic_sequence","","","1","7","8","1",""
"","","","","","html-keyboard-response","119","368770","0.0-81.0-0.0","DB500201701B429AA08CAE64378B09D9","019db60c-1d68-7629-94ad-010b3cf71e69","019db609-2a35-76b9-807a-e0c4c153f4bb","","null","
                            <div style=""font-family: Arial; margin-bottom: 20px;""><h3>Which image is worth <b>more money</b>?</h3></div>
                            <div class=""stimulus-container"" style=""display: flex; width: 800px; justify-content: center; gap: 30px;"">
                                <img src=""images/semantic_sequence/visiting_cities_semantic/visiting_cities_semantic_3.png"" class=""small-image"">
                                <img src=""images/semantic_sequence/visiting_cities_semantic/visiting_cities_semantic_7.png"" class=""small-image"">
                            </div>","null","","","","","","","","","",""
"","","","","","html-button-response","120","369561","0.0-81.0-1.0","DB500201701B429AA08CAE64378B09D9","019db60c-1d68-7629-94ad-010b3cf71e69","019db609-2a35-76b9-807a-e0c4c153f4bb","","790","
                            <div style=""font-family: Arial; margin-bottom: 20px;""><h3>Which image is worth <b>more money</b>?</h3></div>
                            <div class=""stimulus-container"" style=""display: flex; width: 800px; justify-content: center; gap: 30px;"">
                                <img src=""images/semantic_sequence/visiting_cities_semantic/visiting_cities_semantic_3.png"" class=""small-image"">
                                <img src=""images/semantic_sequence/visiting_cities_semantic/visiting_cities_semantic_7.png"" class=""small-image"">
                            </div>","1","part3_choice_neighbors","visiting_cities_semantic","semantic_sequence","","","2","5","7","1",""
"","","","","","html-keyboard-response","121","372570","0.0-82.0-0.0","DB500201701B429AA08CAE64378B09D9","019db60c-1d68-7629-94ad-010b3cf71e69","019db609-2a35-76b9-807a-e0c4c153f4bb","","null","
                            <div style=""font-family: Arial; margin-bottom: 20px;""><h3>Which image is worth <b>more money</b>?</h3></div>
                            <div class=""stimulus-container"" style=""display: flex; width: 800px; justify-content: center; gap: 30px;"">
                                <img src=""images/schematic_sequence/interview_scheme/interview_scheme_6.png"" class=""small-image"">
                                <img src=""images/schematic_sequence/interview_scheme/interview_scheme_8.png"" class=""small-image"">
                            </div>","null","","","","","","","","","",""
"","","","","","html-button-response","122","374441","0.0-82.0-1.0","DB500201701B429AA08CAE64378B09D9","019db60c-1d68-7629-94ad-010b3cf71e69","019db609-2a35-76b9-807a-e0c4c153f4bb","","1870","
                            <div style=""font-family: Arial; margin-bottom: 20px;""><h3>Which image is worth <b>more money</b>?</h3></div>
                            <div class=""stimulus-container"" style=""display: flex; width: 800px; justify-content: center; gap: 30px;"">
                                <img src=""images/schematic_sequence/interview_scheme/interview_scheme_6.png"" class=""small-image"">
                                <img src=""images/schematic_sequence/interview_scheme/interview_scheme_8.png"" class=""small-image"">
                            </div>","1","part3_choice_neighbors","interview_scheme","schematic_sequence","","","1","7","8","1",""
"","","","","","html-keyboard-response","123","377448","0.0-83.0-0.0","DB500201701B429AA08CAE64378B09D9","019db60c-1d68-7629-94ad-010b3cf71e69","019db609-2a35-76b9-807a-e0c4c153f4bb","","null","
                            <div style=""font-family: Arial; margin-bottom: 20px;""><h3>Which image is worth <b>more money</b>?</h3></div>
                            <div class=""stimulus-container"" style=""display: flex; width: 800px; justify-content: center; gap: 30px;"">
                                <img src=""images/schematic_sequence/supermarket_scheme/supermarket_scheme_ten.png"" class=""small-image"">
                                <img src=""images/schematic_sequence/supermarket_scheme/supermarket_scheme_4.png"" class=""small-image"">
                            </div>","null","","","","","","","","","",""
"","","","","","html-button-response","124","379405","0.0-83.0-1.0","DB500201701B429AA08CAE64378B09D9","019db60c-1d68-7629-94ad-010b3cf71e69","019db609-2a35-76b9-807a-e0c4c153f4bb","","1955","
                            <div style=""font-family: Arial; margin-bottom: 20px;""><h3>Which image is worth <b>more money</b>?</h3></div>
                            <div class=""stimulus-container"" style=""display: flex; width: 800px; justify-content: center; gap: 30px;"">
                                <img src=""images/schematic_sequence/supermarket_scheme/supermarket_scheme_ten.png"" class=""small-image"">
                                <img src=""images/schematic_sequence/supermarket_scheme/supermarket_scheme_4.png"" class=""small-image"">
                            </div>","0","part3_choice_neighbors","supermarket_scheme","schematic_sequence","","","3","7","10","1",""
"","","","","","html-keyboard-response","125","382411","0.0-84.0-0.0","DB500201701B429AA08CAE64378B09D9","019db60c-1d68-7629-94ad-010b3cf71e69","019db609-2a35-76b9-807a-e0c4c153f4bb","","null","
                            <div style=""font-family: Arial; margin-bottom: 20px;""><h3>Which image is worth <b>more money</b>?</h3></div>
                            <div class=""stimulus-container"" style=""display: flex; width: 800px; justify-content: center; gap: 30px;"">
                                <img src=""images/schematic_sequence/dinner_party_scheme/dinner_party_scheme_9.png"" class=""small-image"">
                                <img src=""images/schematic_sequence/dinner_party_scheme/dinner_party_scheme_5.png"" class=""small-image"">
                            </div>","null","","","","","","","","","",""
"","","","","","html-button-response","126","383261","0.0-84.0-1.0","DB500201701B429AA08CAE64378B09D9","019db60c-1d68-7629-94ad-010b3cf71e69","019db609-2a35-76b9-807a-e0c4c153f4bb","","849","
                            <div style=""font-family: Arial; margin-bottom: 20px;""><h3>Which image is worth <b>more money</b>?</h3></div>
                            <div class=""stimulus-container"" style=""display: flex; width: 800px; justify-content: center; gap: 30px;"">
                                <img src=""images/schematic_sequence/dinner_party_scheme/dinner_party_scheme_9.png"" class=""small-image"">
                                <img src=""images/schematic_sequence/dinner_party_scheme/dinner_party_scheme_5.png"" class=""small-image"">
                            </div>","1","part3_choice_neighbors","dinner_party_scheme","schematic_sequence","","","2","7","5","0",""
"","","","","","survey-text","127","439413","0.0-85.0","DB500201701B429AA08CAE64378B09D9","019db60c-1d68-7629-94ad-010b3cf71e69","019db609-2a35-76b9-807a-e0c4c153f4bb","","56138","","{""gender"":""MALE"",""age"":""21"",""decision_strategy"":""I tried to use ones that were closest in the activity to the images I was shown that were worth money. "",""consistency_check"":""Yes, I tried to keep my logic mostly consistent. ""}","demographics_and_strategy","","","","","","","","",""
"","","","","","instructions","128","445859","0.0-86.0","DB500201701B429AA08CAE64378B09D9","019db60c-1d68-7629-94ad-010b3cf71e69","019db609-2a35-76b9-807a-e0c4c153f4bb","[{""page_index"":0,""viewing_time"":6445}]","6445","","","","","","","","","","","",""
