"success","timeout","failed_images","failed_audio","failed_video","trial_type","trial_index","time_elapsed","internal_node_id","subject_id","study_id","session_id","view_history","rt","stimulus","response","task","image_index","folder","valuable_image_index","valuable_X","chosen_image_index","distance_from_X"
"false","false","[]","[]","[]","preload","0","5221","0.0-0.0","6AAB53D6615A4CDC9504ECEC82F7D7DD","019ce663-0aa1-7a30-abc5-d8afb53809f4","019ce643-47c6-74a0-b3d2-7bf5651ded46","","","","","","","","","","",""
"","","","","","instructions","1","8967","0.0-1.0","6AAB53D6615A4CDC9504ECEC82F7D7DD","019ce663-0aa1-7a30-abc5-d8afb53809f4","019ce643-47c6-74a0-b3d2-7bf5651ded46","[{""page_index"":0,""viewing_time"":3748}]","3748","","","","","","","","",""
"","","","","","instructions","2","12860","0.0-2.0","6AAB53D6615A4CDC9504ECEC82F7D7DD","019ce663-0aa1-7a30-abc5-d8afb53809f4","019ce643-47c6-74a0-b3d2-7bf5651ded46","[{""page_index"":0,""viewing_time"":3892}]","3892","","","","","","","","",""
"true","","","","","fullscreen","3","17249","0.0-3.0","6AAB53D6615A4CDC9504ECEC82F7D7DD","019ce663-0aa1-7a30-abc5-d8afb53809f4","019ce643-47c6-74a0-b3d2-7bf5651ded46","","3374","","","","","","","","",""
"","","","","","instructions","4","25228","0.0-4.0","6AAB53D6615A4CDC9504ECEC82F7D7DD","019ce663-0aa1-7a30-abc5-d8afb53809f4","019ce643-47c6-74a0-b3d2-7bf5651ded46","[{""page_index"":0,""viewing_time"":7979}]","7979","","","","","","","","",""
"","","","","","instructions","5","32738","0.0-5.0","6AAB53D6615A4CDC9504ECEC82F7D7DD","019ce663-0aa1-7a30-abc5-d8afb53809f4","019ce643-47c6-74a0-b3d2-7bf5651ded46","[{""page_index"":0,""viewing_time"":7507}]","7507","","","","","","","","",""
"","","","","","html-keyboard-response","6","36753","0.0-6.0","6AAB53D6615A4CDC9504ECEC82F7D7DD","019ce663-0aa1-7a30-abc5-d8afb53809f4","019ce643-47c6-74a0-b3d2-7bf5651ded46","","null","
                <div class=""stimulus-container"">
                    <img src=""images/instructions/movie_1.png"" class=""exp-image"">
                    <div class=""question-area""></div> 
                </div>","null","","","","","","",""
"","","","","","html-button-response","7","38429","0.0-7.0","6AAB53D6615A4CDC9504ECEC82F7D7DD","019ce663-0aa1-7a30-abc5-d8afb53809f4","019ce643-47c6-74a0-b3d2-7bf5651ded46","","1676","
                <div class=""stimulus-container"">
                    <img src=""images/instructions/movie_1.png"" class=""exp-image"">
                    <div class=""question-area"">
                        <p style=""font-size: 20px; font-weight: bold; margin: 0;"">Was there a person in this image?</p>
                    </div>
                </div>","0","example_question","1","","","","",""
"","","","","","html-keyboard-response","8","42434","0.0-8.0","6AAB53D6615A4CDC9504ECEC82F7D7DD","019ce663-0aa1-7a30-abc5-d8afb53809f4","019ce643-47c6-74a0-b3d2-7bf5651ded46","","null","
                <div class=""stimulus-container"">
                    <img src=""images/instructions/movie_2.png"" class=""exp-image"">
                    <div class=""question-area""></div> 
                </div>","null","","","","","","",""
"","","","","","html-button-response","9","43793","0.0-9.0","6AAB53D6615A4CDC9504ECEC82F7D7DD","019ce663-0aa1-7a30-abc5-d8afb53809f4","019ce643-47c6-74a0-b3d2-7bf5651ded46","","1358","
                <div class=""stimulus-container"">
                    <img src=""images/instructions/movie_2.png"" class=""exp-image"">
                    <div class=""question-area"">
                        <p style=""font-size: 20px; font-weight: bold; margin: 0;"">Was there a person in this image?</p>
                    </div>
                </div>","0","example_question","2","","","","",""
"","","","","","html-keyboard-response","10","47861","0.0-10.0","6AAB53D6615A4CDC9504ECEC82F7D7DD","019ce663-0aa1-7a30-abc5-d8afb53809f4","019ce643-47c6-74a0-b3d2-7bf5651ded46","","null","
                <div class=""stimulus-container"">
                    <img src=""images/instructions/movie_3.png"" class=""exp-image"">
                    <div class=""question-area""></div> 
                </div>","null","","","","","","",""
"","","","","","html-button-response","11","48728","0.0-11.0","6AAB53D6615A4CDC9504ECEC82F7D7DD","019ce663-0aa1-7a30-abc5-d8afb53809f4","019ce643-47c6-74a0-b3d2-7bf5651ded46","","866","
                <div class=""stimulus-container"">
                    <img src=""images/instructions/movie_3.png"" class=""exp-image"">
                    <div class=""question-area"">
                        <p style=""font-size: 20px; font-weight: bold; margin: 0;"">Was there a person in this image?</p>
                    </div>
                </div>","0","example_question","3","","","","",""
"","","","","","html-keyboard-response","12","52729","0.0-12.0","6AAB53D6615A4CDC9504ECEC82F7D7DD","019ce663-0aa1-7a30-abc5-d8afb53809f4","019ce643-47c6-74a0-b3d2-7bf5651ded46","","null","
                <div class=""stimulus-container"">
                    <img src=""images/instructions/movie_4.png"" class=""exp-image"">
                    <div class=""question-area""></div> 
                </div>","null","","","","","","",""
"","","","","","html-button-response","13","53686","0.0-13.0","6AAB53D6615A4CDC9504ECEC82F7D7DD","019ce663-0aa1-7a30-abc5-d8afb53809f4","019ce643-47c6-74a0-b3d2-7bf5651ded46","","957","
                <div class=""stimulus-container"">
                    <img src=""images/instructions/movie_4.png"" class=""exp-image"">
                    <div class=""question-area"">
                        <p style=""font-size: 20px; font-weight: bold; margin: 0;"">Was there a person in this image?</p>
                    </div>
                </div>","0","example_question","4","","","","",""
"","","","","","instructions","14","55448","0.0-14.0","6AAB53D6615A4CDC9504ECEC82F7D7DD","019ce663-0aa1-7a30-abc5-d8afb53809f4","019ce643-47c6-74a0-b3d2-7bf5651ded46","[{""page_index"":0,""viewing_time"":1761}]","1761","","","","","","","","",""
"","","","","","html-keyboard-response","15","56459","0.0-15.0","6AAB53D6615A4CDC9504ECEC82F7D7DD","019ce663-0aa1-7a30-abc5-d8afb53809f4","019ce643-47c6-74a0-b3d2-7bf5651ded46","","null","<div style=""background-color: gray; width: 100vw; height: 100vh;""></div>","null","","","","","","",""
"","","","","","html-keyboard-response","16","61634","0.0-16.0","6AAB53D6615A4CDC9504ECEC82F7D7DD","019ce663-0aa1-7a30-abc5-d8afb53809f4","019ce643-47c6-74a0-b3d2-7bf5651ded46","","null","
                    <div class=""stimulus-container"">
                        <img src=""images/causal_sequence/the_performance_causal/the_performance_causal_1.png"" class=""exp-image"">
                        <div class=""question-area""></div> 
                    </div>","null","","","","","","",""
"","","","","","html-button-response","17","63053","0.0-17.0","6AAB53D6615A4CDC9504ECEC82F7D7DD","019ce663-0aa1-7a30-abc5-d8afb53809f4","019ce643-47c6-74a0-b3d2-7bf5651ded46","","1419","
                    <div class=""stimulus-container"">
                        <img src=""images/causal_sequence/the_performance_causal/the_performance_causal_1.png"" class=""exp-image"">
                        <div class=""question-area"">
                            <p style=""font-size: 20px; font-weight: bold; margin: 0;"">Is there a person in this image?</p>
                        </div>
                    </div>","0","main_causal_task","1","the_performance_causal","","","",""
"","","","","","html-keyboard-response","18","68289","0.0-18.0","6AAB53D6615A4CDC9504ECEC82F7D7DD","019ce663-0aa1-7a30-abc5-d8afb53809f4","019ce643-47c6-74a0-b3d2-7bf5651ded46","","null","
                    <div class=""stimulus-container"">
                        <img src=""images/causal_sequence/the_performance_causal/the_performance_causal_2.png"" class=""exp-image"">
                        <div class=""question-area""></div> 
                    </div>","null","","","","","","",""
"","","","","","html-button-response","19","69624","0.0-19.0","6AAB53D6615A4CDC9504ECEC82F7D7DD","019ce663-0aa1-7a30-abc5-d8afb53809f4","019ce643-47c6-74a0-b3d2-7bf5651ded46","","1334","
                    <div class=""stimulus-container"">
                        <img src=""images/causal_sequence/the_performance_causal/the_performance_causal_2.png"" class=""exp-image"">
                        <div class=""question-area"">
                            <p style=""font-size: 20px; font-weight: bold; margin: 0;"">Is there a person in this image?</p>
                        </div>
                    </div>","0","main_causal_task","2","the_performance_causal","","","",""
"","","","","","html-keyboard-response","20","74817","0.0-20.0","6AAB53D6615A4CDC9504ECEC82F7D7DD","019ce663-0aa1-7a30-abc5-d8afb53809f4","019ce643-47c6-74a0-b3d2-7bf5651ded46","","null","
                    <div class=""stimulus-container"">
                        <img src=""images/causal_sequence/the_performance_causal/the_performance_causal_3.png"" class=""exp-image"">
                        <div class=""question-area""></div> 
                    </div>","null","","","","","","",""
"","","","","","html-button-response","21","75960","0.0-21.0","6AAB53D6615A4CDC9504ECEC82F7D7DD","019ce663-0aa1-7a30-abc5-d8afb53809f4","019ce643-47c6-74a0-b3d2-7bf5651ded46","","1143","
                    <div class=""stimulus-container"">
                        <img src=""images/causal_sequence/the_performance_causal/the_performance_causal_3.png"" class=""exp-image"">
                        <div class=""question-area"">
                            <p style=""font-size: 20px; font-weight: bold; margin: 0;"">Is there a person in this image?</p>
                        </div>
                    </div>","0","main_causal_task","3","the_performance_causal","","","",""
"","","","","","html-keyboard-response","22","81393","0.0-22.0","6AAB53D6615A4CDC9504ECEC82F7D7DD","019ce663-0aa1-7a30-abc5-d8afb53809f4","019ce643-47c6-74a0-b3d2-7bf5651ded46","","null","
                    <div class=""stimulus-container"">
                        <img src=""images/causal_sequence/the_performance_causal/the_performance_causal_4.png"" class=""exp-image"">
                        <div class=""question-area""></div> 
                    </div>","null","","","","","","",""
"","","","","","html-button-response","23","84398","0.0-23.0","6AAB53D6615A4CDC9504ECEC82F7D7DD","019ce663-0aa1-7a30-abc5-d8afb53809f4","019ce643-47c6-74a0-b3d2-7bf5651ded46","","null","
                    <div class=""stimulus-container"">
                        <img src=""images/causal_sequence/the_performance_causal/the_performance_causal_4.png"" class=""exp-image"">
                        <div class=""question-area"">
                            <p style=""font-size: 20px; font-weight: bold; margin: 0;"">Is there a person in this image?</p>
                        </div>
                    </div>","null","main_causal_task","4","the_performance_causal","","","",""
"","","","","","html-keyboard-response","24","89651","0.0-24.0","6AAB53D6615A4CDC9504ECEC82F7D7DD","019ce663-0aa1-7a30-abc5-d8afb53809f4","019ce643-47c6-74a0-b3d2-7bf5651ded46","","null","
                    <div class=""stimulus-container"">
                        <img src=""images/causal_sequence/the_performance_causal/the_performance_causal_5.png"" class=""exp-image"">
                        <div class=""question-area""></div> 
                    </div>","null","","","","","","",""
"","","","","","html-button-response","25","90422","0.0-25.0","6AAB53D6615A4CDC9504ECEC82F7D7DD","019ce663-0aa1-7a30-abc5-d8afb53809f4","019ce643-47c6-74a0-b3d2-7bf5651ded46","","771","
                    <div class=""stimulus-container"">
                        <img src=""images/causal_sequence/the_performance_causal/the_performance_causal_5.png"" class=""exp-image"">
                        <div class=""question-area"">
                            <p style=""font-size: 20px; font-weight: bold; margin: 0;"">Is there a person in this image?</p>
                        </div>
                    </div>","0","main_causal_task","5","the_performance_causal","","","",""
"","","","","","html-keyboard-response","26","95435","0.0-26.0","6AAB53D6615A4CDC9504ECEC82F7D7DD","019ce663-0aa1-7a30-abc5-d8afb53809f4","019ce643-47c6-74a0-b3d2-7bf5651ded46","","null","
                    <div class=""stimulus-container"">
                        <img src=""images/causal_sequence/the_performance_causal/the_performance_causal_6.png"" class=""exp-image"">
                        <div class=""question-area""></div> 
                    </div>","null","","","","","","",""
"","","","","","html-button-response","27","96145","0.0-27.0","6AAB53D6615A4CDC9504ECEC82F7D7DD","019ce663-0aa1-7a30-abc5-d8afb53809f4","019ce643-47c6-74a0-b3d2-7bf5651ded46","","710","
                    <div class=""stimulus-container"">
                        <img src=""images/causal_sequence/the_performance_causal/the_performance_causal_6.png"" class=""exp-image"">
                        <div class=""question-area"">
                            <p style=""font-size: 20px; font-weight: bold; margin: 0;"">Is there a person in this image?</p>
                        </div>
                    </div>","0","main_causal_task","6","the_performance_causal","","","",""
"","","","","","html-keyboard-response","28","101158","0.0-28.0","6AAB53D6615A4CDC9504ECEC82F7D7DD","019ce663-0aa1-7a30-abc5-d8afb53809f4","019ce643-47c6-74a0-b3d2-7bf5651ded46","","null","
                    <div class=""stimulus-container"">
                        <img src=""images/causal_sequence/the_performance_causal/the_performance_causal_7.png"" class=""exp-image"">
                        <div class=""question-area""></div> 
                    </div>","null","","","","","","",""
"","","","","","html-button-response","29","101641","0.0-29.0","6AAB53D6615A4CDC9504ECEC82F7D7DD","019ce663-0aa1-7a30-abc5-d8afb53809f4","019ce643-47c6-74a0-b3d2-7bf5651ded46","","483","
                    <div class=""stimulus-container"">
                        <img src=""images/causal_sequence/the_performance_causal/the_performance_causal_7.png"" class=""exp-image"">
                        <div class=""question-area"">
                            <p style=""font-size: 20px; font-weight: bold; margin: 0;"">Is there a person in this image?</p>
                        </div>
                    </div>","0","main_causal_task","7","the_performance_causal","","","",""
"","","","","","html-keyboard-response","30","106865","0.0-30.0","6AAB53D6615A4CDC9504ECEC82F7D7DD","019ce663-0aa1-7a30-abc5-d8afb53809f4","019ce643-47c6-74a0-b3d2-7bf5651ded46","","null","
                    <div class=""stimulus-container"">
                        <img src=""images/causal_sequence/the_performance_causal/the_performance_causal_8.png"" class=""exp-image"">
                        <div class=""question-area""></div> 
                    </div>","null","","","","","","",""
"","","","","","html-button-response","31","107401","0.0-31.0","6AAB53D6615A4CDC9504ECEC82F7D7DD","019ce663-0aa1-7a30-abc5-d8afb53809f4","019ce643-47c6-74a0-b3d2-7bf5651ded46","","536","
                    <div class=""stimulus-container"">
                        <img src=""images/causal_sequence/the_performance_causal/the_performance_causal_8.png"" class=""exp-image"">
                        <div class=""question-area"">
                            <p style=""font-size: 20px; font-weight: bold; margin: 0;"">Is there a person in this image?</p>
                        </div>
                    </div>","0","main_causal_task","8","the_performance_causal","","","",""
"","","","","","html-keyboard-response","32","112411","0.0-32.0","6AAB53D6615A4CDC9504ECEC82F7D7DD","019ce663-0aa1-7a30-abc5-d8afb53809f4","019ce643-47c6-74a0-b3d2-7bf5651ded46","","null","
                    <div class=""stimulus-container"">
                        <img src=""images/causal_sequence/the_performance_causal/the_performance_causal_9.png"" class=""exp-image"">
                        <div class=""question-area""></div> 
                    </div>","null","","","","","","",""
"","","","","","html-button-response","33","112921","0.0-33.0","6AAB53D6615A4CDC9504ECEC82F7D7DD","019ce663-0aa1-7a30-abc5-d8afb53809f4","019ce643-47c6-74a0-b3d2-7bf5651ded46","","510","
                    <div class=""stimulus-container"">
                        <img src=""images/causal_sequence/the_performance_causal/the_performance_causal_9.png"" class=""exp-image"">
                        <div class=""question-area"">
                            <p style=""font-size: 20px; font-weight: bold; margin: 0;"">Is there a person in this image?</p>
                        </div>
                    </div>","0","main_causal_task","9","the_performance_causal","","","",""
"","","","","","html-keyboard-response","34","114050","0.0-34.0","6AAB53D6615A4CDC9504ECEC82F7D7DD","019ce663-0aa1-7a30-abc5-d8afb53809f4","019ce643-47c6-74a0-b3d2-7bf5651ded46","","null","<div style=""background-color: gray; width: 100vw; height: 100vh;""></div>","null","","","","","","",""
"","","","","","html-keyboard-response","35","119056","0.0-35.0","6AAB53D6615A4CDC9504ECEC82F7D7DD","019ce663-0aa1-7a30-abc5-d8afb53809f4","019ce643-47c6-74a0-b3d2-7bf5651ded46","","null","
                    <div class=""stimulus-container"">
                        <img src=""images/causal_sequence/package_causal/package_causal_1.png"" class=""exp-image"">
                        <div class=""question-area""></div> 
                    </div>","null","","","","","","",""
"","","","","","html-button-response","36","119875","0.0-36.0","6AAB53D6615A4CDC9504ECEC82F7D7DD","019ce663-0aa1-7a30-abc5-d8afb53809f4","019ce643-47c6-74a0-b3d2-7bf5651ded46","","819","
                    <div class=""stimulus-container"">
                        <img src=""images/causal_sequence/package_causal/package_causal_1.png"" class=""exp-image"">
                        <div class=""question-area"">
                            <p style=""font-size: 20px; font-weight: bold; margin: 0;"">Is there a person in this image?</p>
                        </div>
                    </div>","0","main_causal_task","1","package_causal","","","",""
"","","","","","html-keyboard-response","37","124883","0.0-37.0","6AAB53D6615A4CDC9504ECEC82F7D7DD","019ce663-0aa1-7a30-abc5-d8afb53809f4","019ce643-47c6-74a0-b3d2-7bf5651ded46","","null","
                    <div class=""stimulus-container"">
                        <img src=""images/causal_sequence/package_causal/package_causal_2.png"" class=""exp-image"">
                        <div class=""question-area""></div> 
                    </div>","null","","","","","","",""
"","","","","","html-button-response","38","125965","0.0-38.0","6AAB53D6615A4CDC9504ECEC82F7D7DD","019ce663-0aa1-7a30-abc5-d8afb53809f4","019ce643-47c6-74a0-b3d2-7bf5651ded46","","1082","
                    <div class=""stimulus-container"">
                        <img src=""images/causal_sequence/package_causal/package_causal_2.png"" class=""exp-image"">
                        <div class=""question-area"">
                            <p style=""font-size: 20px; font-weight: bold; margin: 0;"">Is there a person in this image?</p>
                        </div>
                    </div>","0","main_causal_task","2","package_causal","","","",""
"","","","","","html-keyboard-response","39","131352","0.0-39.0","6AAB53D6615A4CDC9504ECEC82F7D7DD","019ce663-0aa1-7a30-abc5-d8afb53809f4","019ce643-47c6-74a0-b3d2-7bf5651ded46","","null","
                    <div class=""stimulus-container"">
                        <img src=""images/causal_sequence/package_causal/package_causal_3.png"" class=""exp-image"">
                        <div class=""question-area""></div> 
                    </div>","null","","","","","","",""
"","","","","","html-button-response","40","132272","0.0-40.0","6AAB53D6615A4CDC9504ECEC82F7D7DD","019ce663-0aa1-7a30-abc5-d8afb53809f4","019ce643-47c6-74a0-b3d2-7bf5651ded46","","921","
                    <div class=""stimulus-container"">
                        <img src=""images/causal_sequence/package_causal/package_causal_3.png"" class=""exp-image"">
                        <div class=""question-area"">
                            <p style=""font-size: 20px; font-weight: bold; margin: 0;"">Is there a person in this image?</p>
                        </div>
                    </div>","0","main_causal_task","3","package_causal","","","",""
"","","","","","html-keyboard-response","41","137285","0.0-41.0","6AAB53D6615A4CDC9504ECEC82F7D7DD","019ce663-0aa1-7a30-abc5-d8afb53809f4","019ce643-47c6-74a0-b3d2-7bf5651ded46","","null","
                    <div class=""stimulus-container"">
                        <img src=""images/causal_sequence/package_causal/package_causal_4.png"" class=""exp-image"">
                        <div class=""question-area""></div> 
                    </div>","null","","","","","","",""
"","","","","","html-button-response","42","137958","0.0-42.0","6AAB53D6615A4CDC9504ECEC82F7D7DD","019ce663-0aa1-7a30-abc5-d8afb53809f4","019ce643-47c6-74a0-b3d2-7bf5651ded46","","671","
                    <div class=""stimulus-container"">
                        <img src=""images/causal_sequence/package_causal/package_causal_4.png"" class=""exp-image"">
                        <div class=""question-area"">
                            <p style=""font-size: 20px; font-weight: bold; margin: 0;"">Is there a person in this image?</p>
                        </div>
                    </div>","1","main_causal_task","4","package_causal","","","",""
"","","","","","html-keyboard-response","43","143515","0.0-43.0","6AAB53D6615A4CDC9504ECEC82F7D7DD","019ce663-0aa1-7a30-abc5-d8afb53809f4","019ce643-47c6-74a0-b3d2-7bf5651ded46","","null","
                    <div class=""stimulus-container"">
                        <img src=""images/causal_sequence/package_causal/package_causal_5.png"" class=""exp-image"">
                        <div class=""question-area""></div> 
                    </div>","null","","","","","","",""
"","","","","","html-button-response","44","144146","0.0-44.0","6AAB53D6615A4CDC9504ECEC82F7D7DD","019ce663-0aa1-7a30-abc5-d8afb53809f4","019ce643-47c6-74a0-b3d2-7bf5651ded46","","630","
                    <div class=""stimulus-container"">
                        <img src=""images/causal_sequence/package_causal/package_causal_5.png"" class=""exp-image"">
                        <div class=""question-area"">
                            <p style=""font-size: 20px; font-weight: bold; margin: 0;"">Is there a person in this image?</p>
                        </div>
                    </div>","0","main_causal_task","5","package_causal","","","",""
"","","","","","html-keyboard-response","45","149149","0.0-45.0","6AAB53D6615A4CDC9504ECEC82F7D7DD","019ce663-0aa1-7a30-abc5-d8afb53809f4","019ce643-47c6-74a0-b3d2-7bf5651ded46","","null","
                    <div class=""stimulus-container"">
                        <img src=""images/causal_sequence/package_causal/package_causal_6.png"" class=""exp-image"">
                        <div class=""question-area""></div> 
                    </div>","null","","","","","","",""
"","","","","","html-button-response","46","149606","0.0-46.0","6AAB53D6615A4CDC9504ECEC82F7D7DD","019ce663-0aa1-7a30-abc5-d8afb53809f4","019ce643-47c6-74a0-b3d2-7bf5651ded46","","457","
                    <div class=""stimulus-container"">
                        <img src=""images/causal_sequence/package_causal/package_causal_6.png"" class=""exp-image"">
                        <div class=""question-area"">
                            <p style=""font-size: 20px; font-weight: bold; margin: 0;"">Is there a person in this image?</p>
                        </div>
                    </div>","0","main_causal_task","6","package_causal","","","",""
"","","","","","html-keyboard-response","47","154609","0.0-47.0","6AAB53D6615A4CDC9504ECEC82F7D7DD","019ce663-0aa1-7a30-abc5-d8afb53809f4","019ce643-47c6-74a0-b3d2-7bf5651ded46","","null","
                    <div class=""stimulus-container"">
                        <img src=""images/causal_sequence/package_causal/package_causal_7.png"" class=""exp-image"">
                        <div class=""question-area""></div> 
                    </div>","null","","","","","","",""
"","","","","","html-button-response","48","155036","0.0-48.0","6AAB53D6615A4CDC9504ECEC82F7D7DD","019ce663-0aa1-7a30-abc5-d8afb53809f4","019ce643-47c6-74a0-b3d2-7bf5651ded46","","427","
                    <div class=""stimulus-container"">
                        <img src=""images/causal_sequence/package_causal/package_causal_7.png"" class=""exp-image"">
                        <div class=""question-area"">
                            <p style=""font-size: 20px; font-weight: bold; margin: 0;"">Is there a person in this image?</p>
                        </div>
                    </div>","0","main_causal_task","7","package_causal","","","",""
"","","","","","html-keyboard-response","49","160150","0.0-49.0","6AAB53D6615A4CDC9504ECEC82F7D7DD","019ce663-0aa1-7a30-abc5-d8afb53809f4","019ce643-47c6-74a0-b3d2-7bf5651ded46","","null","
                    <div class=""stimulus-container"">
                        <img src=""images/causal_sequence/package_causal/package_causal_8.png"" class=""exp-image"">
                        <div class=""question-area""></div> 
                    </div>","null","","","","","","",""
"","","","","","html-button-response","50","160579","0.0-50.0","6AAB53D6615A4CDC9504ECEC82F7D7DD","019ce663-0aa1-7a30-abc5-d8afb53809f4","019ce643-47c6-74a0-b3d2-7bf5651ded46","","428","
                    <div class=""stimulus-container"">
                        <img src=""images/causal_sequence/package_causal/package_causal_8.png"" class=""exp-image"">
                        <div class=""question-area"">
                            <p style=""font-size: 20px; font-weight: bold; margin: 0;"">Is there a person in this image?</p>
                        </div>
                    </div>","0","main_causal_task","8","package_causal","","","",""
"","","","","","html-keyboard-response","51","165593","0.0-51.0","6AAB53D6615A4CDC9504ECEC82F7D7DD","019ce663-0aa1-7a30-abc5-d8afb53809f4","019ce643-47c6-74a0-b3d2-7bf5651ded46","","null","
                    <div class=""stimulus-container"">
                        <img src=""images/causal_sequence/package_causal/package_causal_9.png"" class=""exp-image"">
                        <div class=""question-area""></div> 
                    </div>","null","","","","","","",""
"","","","","","html-button-response","52","165956","0.0-52.0","6AAB53D6615A4CDC9504ECEC82F7D7DD","019ce663-0aa1-7a30-abc5-d8afb53809f4","019ce643-47c6-74a0-b3d2-7bf5651ded46","","363","
                    <div class=""stimulus-container"">
                        <img src=""images/causal_sequence/package_causal/package_causal_9.png"" class=""exp-image"">
                        <div class=""question-area"">
                            <p style=""font-size: 20px; font-weight: bold; margin: 0;"">Is there a person in this image?</p>
                        </div>
                    </div>","0","main_causal_task","9","package_causal","","","",""
"","","","","","html-keyboard-response","53","166966","0.0-53.0","6AAB53D6615A4CDC9504ECEC82F7D7DD","019ce663-0aa1-7a30-abc5-d8afb53809f4","019ce643-47c6-74a0-b3d2-7bf5651ded46","","null","<div style=""background-color: gray; width: 100vw; height: 100vh;""></div>","null","","","","","","",""
"","","","","","html-keyboard-response","54","171981","0.0-54.0","6AAB53D6615A4CDC9504ECEC82F7D7DD","019ce663-0aa1-7a30-abc5-d8afb53809f4","019ce643-47c6-74a0-b3d2-7bf5651ded46","","null","
                    <div class=""stimulus-container"">
                        <img src=""images/causal_sequence/dog_causal/dog_causal_1.png"" class=""exp-image"">
                        <div class=""question-area""></div> 
                    </div>","null","","","","","","",""
"","","","","","html-button-response","55","172684","0.0-55.0","6AAB53D6615A4CDC9504ECEC82F7D7DD","019ce663-0aa1-7a30-abc5-d8afb53809f4","019ce643-47c6-74a0-b3d2-7bf5651ded46","","701","
                    <div class=""stimulus-container"">
                        <img src=""images/causal_sequence/dog_causal/dog_causal_1.png"" class=""exp-image"">
                        <div class=""question-area"">
                            <p style=""font-size: 20px; font-weight: bold; margin: 0;"">Is there a person in this image?</p>
                        </div>
                    </div>","0","main_causal_task","1","dog_causal","","","",""
"","","","","","html-keyboard-response","56","177704","0.0-56.0","6AAB53D6615A4CDC9504ECEC82F7D7DD","019ce663-0aa1-7a30-abc5-d8afb53809f4","019ce643-47c6-74a0-b3d2-7bf5651ded46","","null","
                    <div class=""stimulus-container"">
                        <img src=""images/causal_sequence/dog_causal/dog_causal_2.png"" class=""exp-image"">
                        <div class=""question-area""></div> 
                    </div>","null","","","","","","",""
"","","","","","html-button-response","57","178129","0.0-57.0","6AAB53D6615A4CDC9504ECEC82F7D7DD","019ce663-0aa1-7a30-abc5-d8afb53809f4","019ce643-47c6-74a0-b3d2-7bf5651ded46","","424","
                    <div class=""stimulus-container"">
                        <img src=""images/causal_sequence/dog_causal/dog_causal_2.png"" class=""exp-image"">
                        <div class=""question-area"">
                            <p style=""font-size: 20px; font-weight: bold; margin: 0;"">Is there a person in this image?</p>
                        </div>
                    </div>","0","main_causal_task","2","dog_causal","","","",""
"","","","","","html-keyboard-response","58","183158","0.0-58.0","6AAB53D6615A4CDC9504ECEC82F7D7DD","019ce663-0aa1-7a30-abc5-d8afb53809f4","019ce643-47c6-74a0-b3d2-7bf5651ded46","","null","
                    <div class=""stimulus-container"">
                        <img src=""images/causal_sequence/dog_causal/dog_causal_3.png"" class=""exp-image"">
                        <div class=""question-area""></div> 
                    </div>","null","","","","","","",""
"","","","","","html-button-response","59","183709","0.0-59.0","6AAB53D6615A4CDC9504ECEC82F7D7DD","019ce663-0aa1-7a30-abc5-d8afb53809f4","019ce643-47c6-74a0-b3d2-7bf5651ded46","","551","
                    <div class=""stimulus-container"">
                        <img src=""images/causal_sequence/dog_causal/dog_causal_3.png"" class=""exp-image"">
                        <div class=""question-area"">
                            <p style=""font-size: 20px; font-weight: bold; margin: 0;"">Is there a person in this image?</p>
                        </div>
                    </div>","0","main_causal_task","3","dog_causal","","","",""
"","","","","","html-keyboard-response","60","188713","0.0-60.0","6AAB53D6615A4CDC9504ECEC82F7D7DD","019ce663-0aa1-7a30-abc5-d8afb53809f4","019ce643-47c6-74a0-b3d2-7bf5651ded46","","null","
                    <div class=""stimulus-container"">
                        <img src=""images/causal_sequence/dog_causal/dog_causal_4.png"" class=""exp-image"">
                        <div class=""question-area""></div> 
                    </div>","null","","","","","","",""
"","","","","","html-button-response","61","189170","0.0-61.0","6AAB53D6615A4CDC9504ECEC82F7D7DD","019ce663-0aa1-7a30-abc5-d8afb53809f4","019ce643-47c6-74a0-b3d2-7bf5651ded46","","456","
                    <div class=""stimulus-container"">
                        <img src=""images/causal_sequence/dog_causal/dog_causal_4.png"" class=""exp-image"">
                        <div class=""question-area"">
                            <p style=""font-size: 20px; font-weight: bold; margin: 0;"">Is there a person in this image?</p>
                        </div>
                    </div>","0","main_causal_task","4","dog_causal","","","",""
"","","","","","html-keyboard-response","62","194174","0.0-62.0","6AAB53D6615A4CDC9504ECEC82F7D7DD","019ce663-0aa1-7a30-abc5-d8afb53809f4","019ce643-47c6-74a0-b3d2-7bf5651ded46","","null","
                    <div class=""stimulus-container"">
                        <img src=""images/causal_sequence/dog_causal/dog_causal_5.png"" class=""exp-image"">
                        <div class=""question-area""></div> 
                    </div>","null","","","","","","",""
"","","","","","html-button-response","63","194900","0.0-63.0","6AAB53D6615A4CDC9504ECEC82F7D7DD","019ce663-0aa1-7a30-abc5-d8afb53809f4","019ce643-47c6-74a0-b3d2-7bf5651ded46","","725","
                    <div class=""stimulus-container"">
                        <img src=""images/causal_sequence/dog_causal/dog_causal_5.png"" class=""exp-image"">
                        <div class=""question-area"">
                            <p style=""font-size: 20px; font-weight: bold; margin: 0;"">Is there a person in this image?</p>
                        </div>
                    </div>","0","main_causal_task","5","dog_causal","","","",""
"","","","","","html-keyboard-response","64","200224","0.0-64.0","6AAB53D6615A4CDC9504ECEC82F7D7DD","019ce663-0aa1-7a30-abc5-d8afb53809f4","019ce643-47c6-74a0-b3d2-7bf5651ded46","","null","
                    <div class=""stimulus-container"">
                        <img src=""images/causal_sequence/dog_causal/dog_causal_6.png"" class=""exp-image"">
                        <div class=""question-area""></div> 
                    </div>","null","","","","","","",""
"","","","","","html-button-response","65","200855","0.0-65.0","6AAB53D6615A4CDC9504ECEC82F7D7DD","019ce663-0aa1-7a30-abc5-d8afb53809f4","019ce643-47c6-74a0-b3d2-7bf5651ded46","","630","
                    <div class=""stimulus-container"">
                        <img src=""images/causal_sequence/dog_causal/dog_causal_6.png"" class=""exp-image"">
                        <div class=""question-area"">
                            <p style=""font-size: 20px; font-weight: bold; margin: 0;"">Is there a person in this image?</p>
                        </div>
                    </div>","0","main_causal_task","6","dog_causal","","","",""
"","","","","","html-keyboard-response","66","205859","0.0-66.0","6AAB53D6615A4CDC9504ECEC82F7D7DD","019ce663-0aa1-7a30-abc5-d8afb53809f4","019ce643-47c6-74a0-b3d2-7bf5651ded46","","null","
                    <div class=""stimulus-container"">
                        <img src=""images/causal_sequence/dog_causal/dog_causal_7.png"" class=""exp-image"">
                        <div class=""question-area""></div> 
                    </div>","null","","","","","","",""
"","","","","","html-button-response","67","206383","0.0-67.0","6AAB53D6615A4CDC9504ECEC82F7D7DD","019ce663-0aa1-7a30-abc5-d8afb53809f4","019ce643-47c6-74a0-b3d2-7bf5651ded46","","524","
                    <div class=""stimulus-container"">
                        <img src=""images/causal_sequence/dog_causal/dog_causal_7.png"" class=""exp-image"">
                        <div class=""question-area"">
                            <p style=""font-size: 20px; font-weight: bold; margin: 0;"">Is there a person in this image?</p>
                        </div>
                    </div>","0","main_causal_task","7","dog_causal","","","",""
"","","","","","html-keyboard-response","68","211394","0.0-68.0","6AAB53D6615A4CDC9504ECEC82F7D7DD","019ce663-0aa1-7a30-abc5-d8afb53809f4","019ce643-47c6-74a0-b3d2-7bf5651ded46","","null","
                    <div class=""stimulus-container"">
                        <img src=""images/causal_sequence/dog_causal/dog_causal_8.png"" class=""exp-image"">
                        <div class=""question-area""></div> 
                    </div>","null","","","","","","",""
"","","","","","html-button-response","69","212046","0.0-69.0","6AAB53D6615A4CDC9504ECEC82F7D7DD","019ce663-0aa1-7a30-abc5-d8afb53809f4","019ce643-47c6-74a0-b3d2-7bf5651ded46","","653","
                    <div class=""stimulus-container"">
                        <img src=""images/causal_sequence/dog_causal/dog_causal_8.png"" class=""exp-image"">
                        <div class=""question-area"">
                            <p style=""font-size: 20px; font-weight: bold; margin: 0;"">Is there a person in this image?</p>
                        </div>
                    </div>","0","main_causal_task","8","dog_causal","","","",""
"","","","","","html-keyboard-response","70","217062","0.0-70.0","6AAB53D6615A4CDC9504ECEC82F7D7DD","019ce663-0aa1-7a30-abc5-d8afb53809f4","019ce643-47c6-74a0-b3d2-7bf5651ded46","","null","
                    <div class=""stimulus-container"">
                        <img src=""images/causal_sequence/dog_causal/dog_causal_9.png"" class=""exp-image"">
                        <div class=""question-area""></div> 
                    </div>","null","","","","","","",""
"","","","","","html-button-response","71","217905","0.0-71.0","6AAB53D6615A4CDC9504ECEC82F7D7DD","019ce663-0aa1-7a30-abc5-d8afb53809f4","019ce643-47c6-74a0-b3d2-7bf5651ded46","","842","
                    <div class=""stimulus-container"">
                        <img src=""images/causal_sequence/dog_causal/dog_causal_9.png"" class=""exp-image"">
                        <div class=""question-area"">
                            <p style=""font-size: 20px; font-weight: bold; margin: 0;"">Is there a person in this image?</p>
                        </div>
                    </div>","0","main_causal_task","9","dog_causal","","","",""
"","","","","","html-keyboard-response","72","218918","0.0-72.0","6AAB53D6615A4CDC9504ECEC82F7D7DD","019ce663-0aa1-7a30-abc5-d8afb53809f4","019ce643-47c6-74a0-b3d2-7bf5651ded46","","null","<div style=""background-color: gray; width: 100vw; height: 100vh;""></div>","null","","","","","","",""
"","","","","","html-keyboard-response","73","224224","0.0-73.0","6AAB53D6615A4CDC9504ECEC82F7D7DD","019ce663-0aa1-7a30-abc5-d8afb53809f4","019ce643-47c6-74a0-b3d2-7bf5651ded46","","null","
                    <div class=""stimulus-container"">
                        <img src=""images/causal_sequence/saving_a_cat_causal/saving_a_cat_causal_1.png"" class=""exp-image"">
                        <div class=""question-area""></div> 
                    </div>","null","","","","","","",""
"","","","","","html-button-response","74","224691","0.0-74.0","6AAB53D6615A4CDC9504ECEC82F7D7DD","019ce663-0aa1-7a30-abc5-d8afb53809f4","019ce643-47c6-74a0-b3d2-7bf5651ded46","","466","
                    <div class=""stimulus-container"">
                        <img src=""images/causal_sequence/saving_a_cat_causal/saving_a_cat_causal_1.png"" class=""exp-image"">
                        <div class=""question-area"">
                            <p style=""font-size: 20px; font-weight: bold; margin: 0;"">Is there a person in this image?</p>
                        </div>
                    </div>","0","main_causal_task","1","saving_a_cat_causal","","","",""
"","","","","","html-keyboard-response","75","229704","0.0-75.0","6AAB53D6615A4CDC9504ECEC82F7D7DD","019ce663-0aa1-7a30-abc5-d8afb53809f4","019ce643-47c6-74a0-b3d2-7bf5651ded46","","null","
                    <div class=""stimulus-container"">
                        <img src=""images/causal_sequence/saving_a_cat_causal/saving_a_cat_causal_2.png"" class=""exp-image"">
                        <div class=""question-area""></div> 
                    </div>","null","","","","","","",""
"","","","","","html-button-response","76","230195","0.0-76.0","6AAB53D6615A4CDC9504ECEC82F7D7DD","019ce663-0aa1-7a30-abc5-d8afb53809f4","019ce643-47c6-74a0-b3d2-7bf5651ded46","","490","
                    <div class=""stimulus-container"">
                        <img src=""images/causal_sequence/saving_a_cat_causal/saving_a_cat_causal_2.png"" class=""exp-image"">
                        <div class=""question-area"">
                            <p style=""font-size: 20px; font-weight: bold; margin: 0;"">Is there a person in this image?</p>
                        </div>
                    </div>","0","main_causal_task","2","saving_a_cat_causal","","","",""
"","","","","","html-keyboard-response","77","235285","0.0-77.0","6AAB53D6615A4CDC9504ECEC82F7D7DD","019ce663-0aa1-7a30-abc5-d8afb53809f4","019ce643-47c6-74a0-b3d2-7bf5651ded46","","null","
                    <div class=""stimulus-container"">
                        <img src=""images/causal_sequence/saving_a_cat_causal/saving_a_cat_causal_3.png"" class=""exp-image"">
                        <div class=""question-area""></div> 
                    </div>","null","","","","","","",""
"","","","","","html-button-response","78","235747","0.0-78.0","6AAB53D6615A4CDC9504ECEC82F7D7DD","019ce663-0aa1-7a30-abc5-d8afb53809f4","019ce643-47c6-74a0-b3d2-7bf5651ded46","","462","
                    <div class=""stimulus-container"">
                        <img src=""images/causal_sequence/saving_a_cat_causal/saving_a_cat_causal_3.png"" class=""exp-image"">
                        <div class=""question-area"">
                            <p style=""font-size: 20px; font-weight: bold; margin: 0;"">Is there a person in this image?</p>
                        </div>
                    </div>","1","main_causal_task","3","saving_a_cat_causal","","","",""
"","","","","","html-keyboard-response","79","240758","0.0-79.0","6AAB53D6615A4CDC9504ECEC82F7D7DD","019ce663-0aa1-7a30-abc5-d8afb53809f4","019ce643-47c6-74a0-b3d2-7bf5651ded46","","null","
                    <div class=""stimulus-container"">
                        <img src=""images/causal_sequence/saving_a_cat_causal/saving_a_cat_causal_4.png"" class=""exp-image"">
                        <div class=""question-area""></div> 
                    </div>","null","","","","","","",""
"","","","","","html-button-response","80","241416","0.0-80.0","6AAB53D6615A4CDC9504ECEC82F7D7DD","019ce663-0aa1-7a30-abc5-d8afb53809f4","019ce643-47c6-74a0-b3d2-7bf5651ded46","","658","
                    <div class=""stimulus-container"">
                        <img src=""images/causal_sequence/saving_a_cat_causal/saving_a_cat_causal_4.png"" class=""exp-image"">
                        <div class=""question-area"">
                            <p style=""font-size: 20px; font-weight: bold; margin: 0;"">Is there a person in this image?</p>
                        </div>
                    </div>","0","main_causal_task","4","saving_a_cat_causal","","","",""
"","","","","","html-keyboard-response","81","247002","0.0-81.0","6AAB53D6615A4CDC9504ECEC82F7D7DD","019ce663-0aa1-7a30-abc5-d8afb53809f4","019ce643-47c6-74a0-b3d2-7bf5651ded46","","null","
                    <div class=""stimulus-container"">
                        <img src=""images/causal_sequence/saving_a_cat_causal/saving_a_cat_causal_5.png"" class=""exp-image"">
                        <div class=""question-area""></div> 
                    </div>","null","","","","","","",""
"","","","","","html-button-response","82","247596","0.0-82.0","6AAB53D6615A4CDC9504ECEC82F7D7DD","019ce663-0aa1-7a30-abc5-d8afb53809f4","019ce643-47c6-74a0-b3d2-7bf5651ded46","","595","
                    <div class=""stimulus-container"">
                        <img src=""images/causal_sequence/saving_a_cat_causal/saving_a_cat_causal_5.png"" class=""exp-image"">
                        <div class=""question-area"">
                            <p style=""font-size: 20px; font-weight: bold; margin: 0;"">Is there a person in this image?</p>
                        </div>
                    </div>","0","main_causal_task","5","saving_a_cat_causal","","","",""
"","","","","","html-keyboard-response","83","252601","0.0-83.0","6AAB53D6615A4CDC9504ECEC82F7D7DD","019ce663-0aa1-7a30-abc5-d8afb53809f4","019ce643-47c6-74a0-b3d2-7bf5651ded46","","null","
                    <div class=""stimulus-container"">
                        <img src=""images/causal_sequence/saving_a_cat_causal/saving_a_cat_causal_6.png"" class=""exp-image"">
                        <div class=""question-area""></div> 
                    </div>","null","","","","","","",""
"","","","","","html-button-response","84","253349","0.0-84.0","6AAB53D6615A4CDC9504ECEC82F7D7DD","019ce663-0aa1-7a30-abc5-d8afb53809f4","019ce643-47c6-74a0-b3d2-7bf5651ded46","","746","
                    <div class=""stimulus-container"">
                        <img src=""images/causal_sequence/saving_a_cat_causal/saving_a_cat_causal_6.png"" class=""exp-image"">
                        <div class=""question-area"">
                            <p style=""font-size: 20px; font-weight: bold; margin: 0;"">Is there a person in this image?</p>
                        </div>
                    </div>","0","main_causal_task","6","saving_a_cat_causal","","","",""
"","","","","","html-keyboard-response","85","258364","0.0-85.0","6AAB53D6615A4CDC9504ECEC82F7D7DD","019ce663-0aa1-7a30-abc5-d8afb53809f4","019ce643-47c6-74a0-b3d2-7bf5651ded46","","null","
                    <div class=""stimulus-container"">
                        <img src=""images/causal_sequence/saving_a_cat_causal/saving_a_cat_causal_7.png"" class=""exp-image"">
                        <div class=""question-area""></div> 
                    </div>","null","","","","","","",""
"","","","","","html-button-response","86","259057","0.0-86.0","6AAB53D6615A4CDC9504ECEC82F7D7DD","019ce663-0aa1-7a30-abc5-d8afb53809f4","019ce643-47c6-74a0-b3d2-7bf5651ded46","","693","
                    <div class=""stimulus-container"">
                        <img src=""images/causal_sequence/saving_a_cat_causal/saving_a_cat_causal_7.png"" class=""exp-image"">
                        <div class=""question-area"">
                            <p style=""font-size: 20px; font-weight: bold; margin: 0;"">Is there a person in this image?</p>
                        </div>
                    </div>","0","main_causal_task","7","saving_a_cat_causal","","","",""
"","","","","","html-keyboard-response","87","264331","0.0-87.0","6AAB53D6615A4CDC9504ECEC82F7D7DD","019ce663-0aa1-7a30-abc5-d8afb53809f4","019ce643-47c6-74a0-b3d2-7bf5651ded46","","null","
                    <div class=""stimulus-container"">
                        <img src=""images/causal_sequence/saving_a_cat_causal/saving_a_cat_causal_8.png"" class=""exp-image"">
                        <div class=""question-area""></div> 
                    </div>","null","","","","","","",""
"","","","","","html-button-response","88","264907","0.0-88.0","6AAB53D6615A4CDC9504ECEC82F7D7DD","019ce663-0aa1-7a30-abc5-d8afb53809f4","019ce643-47c6-74a0-b3d2-7bf5651ded46","","575","
                    <div class=""stimulus-container"">
                        <img src=""images/causal_sequence/saving_a_cat_causal/saving_a_cat_causal_8.png"" class=""exp-image"">
                        <div class=""question-area"">
                            <p style=""font-size: 20px; font-weight: bold; margin: 0;"">Is there a person in this image?</p>
                        </div>
                    </div>","0","main_causal_task","8","saving_a_cat_causal","","","",""
"","","","","","html-keyboard-response","89","270145","0.0-89.0","6AAB53D6615A4CDC9504ECEC82F7D7DD","019ce663-0aa1-7a30-abc5-d8afb53809f4","019ce643-47c6-74a0-b3d2-7bf5651ded46","","null","
                    <div class=""stimulus-container"">
                        <img src=""images/causal_sequence/saving_a_cat_causal/saving_a_cat_causal_9.png"" class=""exp-image"">
                        <div class=""question-area""></div> 
                    </div>","null","","","","","","",""
"","","","","","html-button-response","90","270825","0.0-90.0","6AAB53D6615A4CDC9504ECEC82F7D7DD","019ce663-0aa1-7a30-abc5-d8afb53809f4","019ce643-47c6-74a0-b3d2-7bf5651ded46","","679","
                    <div class=""stimulus-container"">
                        <img src=""images/causal_sequence/saving_a_cat_causal/saving_a_cat_causal_9.png"" class=""exp-image"">
                        <div class=""question-area"">
                            <p style=""font-size: 20px; font-weight: bold; margin: 0;"">Is there a person in this image?</p>
                        </div>
                    </div>","0","main_causal_task","9","saving_a_cat_causal","","","",""
"","","","","","html-keyboard-response","91","271827","0.0-91.0","6AAB53D6615A4CDC9504ECEC82F7D7DD","019ce663-0aa1-7a30-abc5-d8afb53809f4","019ce643-47c6-74a0-b3d2-7bf5651ded46","","null","<div style=""background-color: gray; width: 100vw; height: 100vh;""></div>","null","","","","","","",""
"","","","","","html-keyboard-response","92","276836","0.0-92.0","6AAB53D6615A4CDC9504ECEC82F7D7DD","019ce663-0aa1-7a30-abc5-d8afb53809f4","019ce643-47c6-74a0-b3d2-7bf5651ded46","","null","
                    <div class=""stimulus-container"">
                        <img src=""images/causal_sequence/coin_causal/coin_causal_1.png"" class=""exp-image"">
                        <div class=""question-area""></div> 
                    </div>","null","","","","","","",""
"","","","","","html-button-response","93","277417","0.0-93.0","6AAB53D6615A4CDC9504ECEC82F7D7DD","019ce663-0aa1-7a30-abc5-d8afb53809f4","019ce643-47c6-74a0-b3d2-7bf5651ded46","","581","
                    <div class=""stimulus-container"">
                        <img src=""images/causal_sequence/coin_causal/coin_causal_1.png"" class=""exp-image"">
                        <div class=""question-area"">
                            <p style=""font-size: 20px; font-weight: bold; margin: 0;"">Is there a person in this image?</p>
                        </div>
                    </div>","0","main_causal_task","1","coin_causal","","","",""
"","","","","","html-keyboard-response","94","282433","0.0-94.0","6AAB53D6615A4CDC9504ECEC82F7D7DD","019ce663-0aa1-7a30-abc5-d8afb53809f4","019ce643-47c6-74a0-b3d2-7bf5651ded46","","null","
                    <div class=""stimulus-container"">
                        <img src=""images/causal_sequence/coin_causal/coin_causal_2.png"" class=""exp-image"">
                        <div class=""question-area""></div> 
                    </div>","null","","","","","","",""
"","","","","","html-button-response","95","282861","0.0-95.0","6AAB53D6615A4CDC9504ECEC82F7D7DD","019ce663-0aa1-7a30-abc5-d8afb53809f4","019ce643-47c6-74a0-b3d2-7bf5651ded46","","428","
                    <div class=""stimulus-container"">
                        <img src=""images/causal_sequence/coin_causal/coin_causal_2.png"" class=""exp-image"">
                        <div class=""question-area"">
                            <p style=""font-size: 20px; font-weight: bold; margin: 0;"">Is there a person in this image?</p>
                        </div>
                    </div>","0","main_causal_task","2","coin_causal","","","",""
"","","","","","html-keyboard-response","96","287873","0.0-96.0","6AAB53D6615A4CDC9504ECEC82F7D7DD","019ce663-0aa1-7a30-abc5-d8afb53809f4","019ce643-47c6-74a0-b3d2-7bf5651ded46","","null","
                    <div class=""stimulus-container"">
                        <img src=""images/causal_sequence/coin_causal/coin_causal_3.png"" class=""exp-image"">
                        <div class=""question-area""></div> 
                    </div>","null","","","","","","",""
"","","","","","html-button-response","97","288293","0.0-97.0","6AAB53D6615A4CDC9504ECEC82F7D7DD","019ce663-0aa1-7a30-abc5-d8afb53809f4","019ce643-47c6-74a0-b3d2-7bf5651ded46","","420","
                    <div class=""stimulus-container"">
                        <img src=""images/causal_sequence/coin_causal/coin_causal_3.png"" class=""exp-image"">
                        <div class=""question-area"">
                            <p style=""font-size: 20px; font-weight: bold; margin: 0;"">Is there a person in this image?</p>
                        </div>
                    </div>","0","main_causal_task","3","coin_causal","","","",""
"","","","","","html-keyboard-response","98","293304","0.0-98.0","6AAB53D6615A4CDC9504ECEC82F7D7DD","019ce663-0aa1-7a30-abc5-d8afb53809f4","019ce643-47c6-74a0-b3d2-7bf5651ded46","","null","
                    <div class=""stimulus-container"">
                        <img src=""images/causal_sequence/coin_causal/coin_causal_4.png"" class=""exp-image"">
                        <div class=""question-area""></div> 
                    </div>","null","","","","","","",""
"","","","","","html-button-response","99","293678","0.0-99.0","6AAB53D6615A4CDC9504ECEC82F7D7DD","019ce663-0aa1-7a30-abc5-d8afb53809f4","019ce643-47c6-74a0-b3d2-7bf5651ded46","","374","
                    <div class=""stimulus-container"">
                        <img src=""images/causal_sequence/coin_causal/coin_causal_4.png"" class=""exp-image"">
                        <div class=""question-area"">
                            <p style=""font-size: 20px; font-weight: bold; margin: 0;"">Is there a person in this image?</p>
                        </div>
                    </div>","0","main_causal_task","4","coin_causal","","","",""
"","","","","","html-keyboard-response","100","298693","0.0-100.0","6AAB53D6615A4CDC9504ECEC82F7D7DD","019ce663-0aa1-7a30-abc5-d8afb53809f4","019ce643-47c6-74a0-b3d2-7bf5651ded46","","null","
                    <div class=""stimulus-container"">
                        <img src=""images/causal_sequence/coin_causal/coin_causal_5.png"" class=""exp-image"">
                        <div class=""question-area""></div> 
                    </div>","null","","","","","","",""
"","","","","","html-button-response","101","299198","0.0-101.0","6AAB53D6615A4CDC9504ECEC82F7D7DD","019ce663-0aa1-7a30-abc5-d8afb53809f4","019ce643-47c6-74a0-b3d2-7bf5651ded46","","504","
                    <div class=""stimulus-container"">
                        <img src=""images/causal_sequence/coin_causal/coin_causal_5.png"" class=""exp-image"">
                        <div class=""question-area"">
                            <p style=""font-size: 20px; font-weight: bold; margin: 0;"">Is there a person in this image?</p>
                        </div>
                    </div>","0","main_causal_task","5","coin_causal","","","",""
"","","","","","html-keyboard-response","102","304213","0.0-102.0","6AAB53D6615A4CDC9504ECEC82F7D7DD","019ce663-0aa1-7a30-abc5-d8afb53809f4","019ce643-47c6-74a0-b3d2-7bf5651ded46","","null","
                    <div class=""stimulus-container"">
                        <img src=""images/causal_sequence/coin_causal/coin_causal_6.png"" class=""exp-image"">
                        <div class=""question-area""></div> 
                    </div>","null","","","","","","",""
"","","","","","html-button-response","103","304786","0.0-103.0","6AAB53D6615A4CDC9504ECEC82F7D7DD","019ce663-0aa1-7a30-abc5-d8afb53809f4","019ce643-47c6-74a0-b3d2-7bf5651ded46","","573","
                    <div class=""stimulus-container"">
                        <img src=""images/causal_sequence/coin_causal/coin_causal_6.png"" class=""exp-image"">
                        <div class=""question-area"">
                            <p style=""font-size: 20px; font-weight: bold; margin: 0;"">Is there a person in this image?</p>
                        </div>
                    </div>","0","main_causal_task","6","coin_causal","","","",""
"","","","","","html-keyboard-response","104","309806","0.0-104.0","6AAB53D6615A4CDC9504ECEC82F7D7DD","019ce663-0aa1-7a30-abc5-d8afb53809f4","019ce643-47c6-74a0-b3d2-7bf5651ded46","","null","
                    <div class=""stimulus-container"">
                        <img src=""images/causal_sequence/coin_causal/coin_causal_7.png"" class=""exp-image"">
                        <div class=""question-area""></div> 
                    </div>","null","","","","","","",""
"","","","","","html-button-response","105","310329","0.0-105.0","6AAB53D6615A4CDC9504ECEC82F7D7DD","019ce663-0aa1-7a30-abc5-d8afb53809f4","019ce643-47c6-74a0-b3d2-7bf5651ded46","","522","
                    <div class=""stimulus-container"">
                        <img src=""images/causal_sequence/coin_causal/coin_causal_7.png"" class=""exp-image"">
                        <div class=""question-area"">
                            <p style=""font-size: 20px; font-weight: bold; margin: 0;"">Is there a person in this image?</p>
                        </div>
                    </div>","1","main_causal_task","7","coin_causal","","","",""
"","","","","","html-keyboard-response","106","315374","0.0-106.0","6AAB53D6615A4CDC9504ECEC82F7D7DD","019ce663-0aa1-7a30-abc5-d8afb53809f4","019ce643-47c6-74a0-b3d2-7bf5651ded46","","null","
                    <div class=""stimulus-container"">
                        <img src=""images/causal_sequence/coin_causal/coin_causal_8.png"" class=""exp-image"">
                        <div class=""question-area""></div> 
                    </div>","null","","","","","","",""
"","","","","","html-button-response","107","315976","0.0-107.0","6AAB53D6615A4CDC9504ECEC82F7D7DD","019ce663-0aa1-7a30-abc5-d8afb53809f4","019ce643-47c6-74a0-b3d2-7bf5651ded46","","602","
                    <div class=""stimulus-container"">
                        <img src=""images/causal_sequence/coin_causal/coin_causal_8.png"" class=""exp-image"">
                        <div class=""question-area"">
                            <p style=""font-size: 20px; font-weight: bold; margin: 0;"">Is there a person in this image?</p>
                        </div>
                    </div>","0","main_causal_task","8","coin_causal","","","",""
"","","","","","html-keyboard-response","108","321238","0.0-108.0","6AAB53D6615A4CDC9504ECEC82F7D7DD","019ce663-0aa1-7a30-abc5-d8afb53809f4","019ce643-47c6-74a0-b3d2-7bf5651ded46","","null","
                    <div class=""stimulus-container"">
                        <img src=""images/causal_sequence/coin_causal/coin_causal_9.png"" class=""exp-image"">
                        <div class=""question-area""></div> 
                    </div>","null","","","","","","",""
"","","","","","html-button-response","109","321863","0.0-109.0","6AAB53D6615A4CDC9504ECEC82F7D7DD","019ce663-0aa1-7a30-abc5-d8afb53809f4","019ce643-47c6-74a0-b3d2-7bf5651ded46","","625","
                    <div class=""stimulus-container"">
                        <img src=""images/causal_sequence/coin_causal/coin_causal_9.png"" class=""exp-image"">
                        <div class=""question-area"">
                            <p style=""font-size: 20px; font-weight: bold; margin: 0;"">Is there a person in this image?</p>
                        </div>
                    </div>","0","main_causal_task","9","coin_causal","","","",""
"","","","","","html-keyboard-response","110","322866","0.0-110.0","6AAB53D6615A4CDC9504ECEC82F7D7DD","019ce663-0aa1-7a30-abc5-d8afb53809f4","019ce643-47c6-74a0-b3d2-7bf5651ded46","","null","<div style=""background-color: gray; width: 100vw; height: 100vh;""></div>","null","","","","","","",""
"","","","","","html-keyboard-response","111","327876","0.0-111.0","6AAB53D6615A4CDC9504ECEC82F7D7DD","019ce663-0aa1-7a30-abc5-d8afb53809f4","019ce643-47c6-74a0-b3d2-7bf5651ded46","","null","
                    <div class=""stimulus-container"">
                        <img src=""images/causal_sequence/museum_causal/museum_causal_1.png"" class=""exp-image"">
                        <div class=""question-area""></div> 
                    </div>","null","","","","","","",""
"","","","","","html-button-response","112","328554","0.0-112.0","6AAB53D6615A4CDC9504ECEC82F7D7DD","019ce663-0aa1-7a30-abc5-d8afb53809f4","019ce643-47c6-74a0-b3d2-7bf5651ded46","","678","
                    <div class=""stimulus-container"">
                        <img src=""images/causal_sequence/museum_causal/museum_causal_1.png"" class=""exp-image"">
                        <div class=""question-area"">
                            <p style=""font-size: 20px; font-weight: bold; margin: 0;"">Is there a person in this image?</p>
                        </div>
                    </div>","0","main_causal_task","1","museum_causal","","","",""
"","","","","","html-keyboard-response","113","333555","0.0-113.0","6AAB53D6615A4CDC9504ECEC82F7D7DD","019ce663-0aa1-7a30-abc5-d8afb53809f4","019ce643-47c6-74a0-b3d2-7bf5651ded46","","null","
                    <div class=""stimulus-container"">
                        <img src=""images/causal_sequence/museum_causal/museum_causal_2.png"" class=""exp-image"">
                        <div class=""question-area""></div> 
                    </div>","null","","","","","","",""
"","","","","","html-button-response","114","334218","0.0-114.0","6AAB53D6615A4CDC9504ECEC82F7D7DD","019ce663-0aa1-7a30-abc5-d8afb53809f4","019ce643-47c6-74a0-b3d2-7bf5651ded46","","664","
                    <div class=""stimulus-container"">
                        <img src=""images/causal_sequence/museum_causal/museum_causal_2.png"" class=""exp-image"">
                        <div class=""question-area"">
                            <p style=""font-size: 20px; font-weight: bold; margin: 0;"">Is there a person in this image?</p>
                        </div>
                    </div>","0","main_causal_task","2","museum_causal","","","",""
"","","","","","html-keyboard-response","115","339229","0.0-115.0","6AAB53D6615A4CDC9504ECEC82F7D7DD","019ce663-0aa1-7a30-abc5-d8afb53809f4","019ce643-47c6-74a0-b3d2-7bf5651ded46","","null","
                    <div class=""stimulus-container"">
                        <img src=""images/causal_sequence/museum_causal/museum_causal_3.png"" class=""exp-image"">
                        <div class=""question-area""></div> 
                    </div>","null","","","","","","",""
"","","","","","html-button-response","116","339790","0.0-116.0","6AAB53D6615A4CDC9504ECEC82F7D7DD","019ce663-0aa1-7a30-abc5-d8afb53809f4","019ce643-47c6-74a0-b3d2-7bf5651ded46","","559","
                    <div class=""stimulus-container"">
                        <img src=""images/causal_sequence/museum_causal/museum_causal_3.png"" class=""exp-image"">
                        <div class=""question-area"">
                            <p style=""font-size: 20px; font-weight: bold; margin: 0;"">Is there a person in this image?</p>
                        </div>
                    </div>","0","main_causal_task","3","museum_causal","","","",""
"","","","","","html-keyboard-response","117","345253","0.0-117.0","6AAB53D6615A4CDC9504ECEC82F7D7DD","019ce663-0aa1-7a30-abc5-d8afb53809f4","019ce643-47c6-74a0-b3d2-7bf5651ded46","","null","
                    <div class=""stimulus-container"">
                        <img src=""images/causal_sequence/museum_causal/museum_causal_4.png"" class=""exp-image"">
                        <div class=""question-area""></div> 
                    </div>","null","","","","","","",""
"","","","","","html-button-response","118","345662","0.0-118.0","6AAB53D6615A4CDC9504ECEC82F7D7DD","019ce663-0aa1-7a30-abc5-d8afb53809f4","019ce643-47c6-74a0-b3d2-7bf5651ded46","","408","
                    <div class=""stimulus-container"">
                        <img src=""images/causal_sequence/museum_causal/museum_causal_4.png"" class=""exp-image"">
                        <div class=""question-area"">
                            <p style=""font-size: 20px; font-weight: bold; margin: 0;"">Is there a person in this image?</p>
                        </div>
                    </div>","1","main_causal_task","4","museum_causal","","","",""
"","","","","","html-keyboard-response","119","350767","0.0-119.0","6AAB53D6615A4CDC9504ECEC82F7D7DD","019ce663-0aa1-7a30-abc5-d8afb53809f4","019ce643-47c6-74a0-b3d2-7bf5651ded46","","null","
                    <div class=""stimulus-container"">
                        <img src=""images/causal_sequence/museum_causal/museum_causal_5.png"" class=""exp-image"">
                        <div class=""question-area""></div> 
                    </div>","null","","","","","","",""
"","","","","","html-button-response","120","351265","0.0-120.0","6AAB53D6615A4CDC9504ECEC82F7D7DD","019ce663-0aa1-7a30-abc5-d8afb53809f4","019ce643-47c6-74a0-b3d2-7bf5651ded46","","498","
                    <div class=""stimulus-container"">
                        <img src=""images/causal_sequence/museum_causal/museum_causal_5.png"" class=""exp-image"">
                        <div class=""question-area"">
                            <p style=""font-size: 20px; font-weight: bold; margin: 0;"">Is there a person in this image?</p>
                        </div>
                    </div>","0","main_causal_task","5","museum_causal","","","",""
"","","","","","html-keyboard-response","121","356285","0.0-121.0","6AAB53D6615A4CDC9504ECEC82F7D7DD","019ce663-0aa1-7a30-abc5-d8afb53809f4","019ce643-47c6-74a0-b3d2-7bf5651ded46","","null","
                    <div class=""stimulus-container"">
                        <img src=""images/causal_sequence/museum_causal/museum_causal_6.png"" class=""exp-image"">
                        <div class=""question-area""></div> 
                    </div>","null","","","","","","",""
"","","","","","html-button-response","122","356627","0.0-122.0","6AAB53D6615A4CDC9504ECEC82F7D7DD","019ce663-0aa1-7a30-abc5-d8afb53809f4","019ce643-47c6-74a0-b3d2-7bf5651ded46","","341","
                    <div class=""stimulus-container"">
                        <img src=""images/causal_sequence/museum_causal/museum_causal_6.png"" class=""exp-image"">
                        <div class=""question-area"">
                            <p style=""font-size: 20px; font-weight: bold; margin: 0;"">Is there a person in this image?</p>
                        </div>
                    </div>","0","main_causal_task","6","museum_causal","","","",""
"","","","","","html-keyboard-response","123","361640","0.0-123.0","6AAB53D6615A4CDC9504ECEC82F7D7DD","019ce663-0aa1-7a30-abc5-d8afb53809f4","019ce643-47c6-74a0-b3d2-7bf5651ded46","","null","
                    <div class=""stimulus-container"">
                        <img src=""images/causal_sequence/museum_causal/museum_causal_7.png"" class=""exp-image"">
                        <div class=""question-area""></div> 
                    </div>","null","","","","","","",""
"","","","","","html-button-response","124","362019","0.0-124.0","6AAB53D6615A4CDC9504ECEC82F7D7DD","019ce663-0aa1-7a30-abc5-d8afb53809f4","019ce643-47c6-74a0-b3d2-7bf5651ded46","","379","
                    <div class=""stimulus-container"">
                        <img src=""images/causal_sequence/museum_causal/museum_causal_7.png"" class=""exp-image"">
                        <div class=""question-area"">
                            <p style=""font-size: 20px; font-weight: bold; margin: 0;"">Is there a person in this image?</p>
                        </div>
                    </div>","1","main_causal_task","7","museum_causal","","","",""
"","","","","","html-keyboard-response","125","367211","0.0-125.0","6AAB53D6615A4CDC9504ECEC82F7D7DD","019ce663-0aa1-7a30-abc5-d8afb53809f4","019ce643-47c6-74a0-b3d2-7bf5651ded46","","null","
                    <div class=""stimulus-container"">
                        <img src=""images/causal_sequence/museum_causal/museum_causal_8.png"" class=""exp-image"">
                        <div class=""question-area""></div> 
                    </div>","null","","","","","","",""
"","","","","","html-button-response","126","367601","0.0-126.0","6AAB53D6615A4CDC9504ECEC82F7D7DD","019ce663-0aa1-7a30-abc5-d8afb53809f4","019ce643-47c6-74a0-b3d2-7bf5651ded46","","389","
                    <div class=""stimulus-container"">
                        <img src=""images/causal_sequence/museum_causal/museum_causal_8.png"" class=""exp-image"">
                        <div class=""question-area"">
                            <p style=""font-size: 20px; font-weight: bold; margin: 0;"">Is there a person in this image?</p>
                        </div>
                    </div>","0","main_causal_task","8","museum_causal","","","",""
"","","","","","html-keyboard-response","127","372616","0.0-127.0","6AAB53D6615A4CDC9504ECEC82F7D7DD","019ce663-0aa1-7a30-abc5-d8afb53809f4","019ce643-47c6-74a0-b3d2-7bf5651ded46","","null","
                    <div class=""stimulus-container"">
                        <img src=""images/causal_sequence/museum_causal/museum_causal_9.png"" class=""exp-image"">
                        <div class=""question-area""></div> 
                    </div>","null","","","","","","",""
"","","","","","html-button-response","128","373031","0.0-128.0","6AAB53D6615A4CDC9504ECEC82F7D7DD","019ce663-0aa1-7a30-abc5-d8afb53809f4","019ce643-47c6-74a0-b3d2-7bf5651ded46","","414","
                    <div class=""stimulus-container"">
                        <img src=""images/causal_sequence/museum_causal/museum_causal_9.png"" class=""exp-image"">
                        <div class=""question-area"">
                            <p style=""font-size: 20px; font-weight: bold; margin: 0;"">Is there a person in this image?</p>
                        </div>
                    </div>","1","main_causal_task","9","museum_causal","","","",""
"","","","","","instructions","129","375415","0.0-129.0","6AAB53D6615A4CDC9504ECEC82F7D7DD","019ce663-0aa1-7a30-abc5-d8afb53809f4","019ce643-47c6-74a0-b3d2-7bf5651ded46","[{""page_index"":0,""viewing_time"":2384}]","2384","","","","","","","","",""
"","","","","","instructions","130","381237","0.0-130.0","6AAB53D6615A4CDC9504ECEC82F7D7DD","019ce663-0aa1-7a30-abc5-d8afb53809f4","019ce643-47c6-74a0-b3d2-7bf5651ded46","[{""page_index"":0,""viewing_time"":5822}]","5822","","","","","","","","",""
"","","","","","html-keyboard-response","131","382246","0.0-131.0","6AAB53D6615A4CDC9504ECEC82F7D7DD","019ce663-0aa1-7a30-abc5-d8afb53809f4","019ce643-47c6-74a0-b3d2-7bf5651ded46","","null","
        <div class=""stimulus-container"" style=""display: flex; align-items: center; justify-content: center; gap: 30px;"">
            <img src=""images/instructions/movie_1.png"" class=""exp-image"">
            <div style=""font-size: 40px; font-weight: bold; color: green; border: 5px solid green; padding: 25px; border-radius: 15px; background-color: #f0fff0;"">
                WORTH<br>$1
            </div>
        </div>
        <div class=""question-area""></div>","null","","","","","","",""
"","","","","","html-button-response","132","383764","0.0-132.0","6AAB53D6615A4CDC9504ECEC82F7D7DD","019ce663-0aa1-7a30-abc5-d8afb53809f4","019ce643-47c6-74a0-b3d2-7bf5651ded46","","1519","
        <div class=""stimulus-container"" style=""display: flex; align-items: center; justify-content: center; gap: 30px;"">
            <img src=""images/instructions/movie_1.png"" class=""exp-image"">
            <div style=""font-size: 40px; font-weight: bold; color: green; border: 5px solid green; padding: 25px; border-radius: 15px; background-color: #f0fff0;"">
                WORTH<br>$1
            </div>
        </div>
        <div class=""question-area"">
            <p style=""font-size: 20px; font-weight: bold; margin: 0;"">Was there a person in this image?</p>
        </div>","0","","","","","","",""
"","","","","","instructions","133","389509","0.0-133.0","6AAB53D6615A4CDC9504ECEC82F7D7DD","019ce663-0aa1-7a30-abc5-d8afb53809f4","019ce643-47c6-74a0-b3d2-7bf5651ded46","[{""page_index"":0,""viewing_time"":5744}]","5744","","","","","","","","",""
"","","","","","html-keyboard-response","134","399523","0.0-134.0","6AAB53D6615A4CDC9504ECEC82F7D7DD","019ce663-0aa1-7a30-abc5-d8afb53809f4","019ce643-47c6-74a0-b3d2-7bf5651ded46","","null","
            <div class=""stimulus-container"" style=""display: flex; align-items: center; justify-content: center; gap: 30px;"">
                <img src=""images/causal_sequence/saving_a_cat_causal/saving_a_cat_causal_4.png"" class=""exp-image"">
                <div style=""font-size: 40px; font-weight: bold; color: green; border: 5px solid green; padding: 25px; border-radius: 15px; background-color: #f0fff0;"">
                    WORTH<br>$1
                </div>
            </div>
            <div class=""question-area""></div>","null","","","","","","",""
"","","","","","html-button-response","135","400481","0.0-135.0","6AAB53D6615A4CDC9504ECEC82F7D7DD","019ce663-0aa1-7a30-abc5-d8afb53809f4","019ce643-47c6-74a0-b3d2-7bf5651ded46","","957","
            <div class=""stimulus-container"" style=""display: flex; align-items: center; justify-content: center; gap: 30px;"">
                <img src=""images/causal_sequence/saving_a_cat_causal/saving_a_cat_causal_4.png"" class=""exp-image"">
                <div style=""font-size: 40px; font-weight: bold; color: green; border: 5px solid green; padding: 25px; border-radius: 15px; background-color: #f0fff0;"">
                    WORTH<br>$1
                </div>
            </div>
            <div class=""question-area"">
                <p style=""font-size: 20px; font-weight: bold; margin: 0;"">Was there a person in this image?</p>
            </div>","0","part2_value_learning","","saving_a_cat_causal","4","","",""
"","","","","","html-keyboard-response","136","410486","0.0-136.0","6AAB53D6615A4CDC9504ECEC82F7D7DD","019ce663-0aa1-7a30-abc5-d8afb53809f4","019ce643-47c6-74a0-b3d2-7bf5651ded46","","null","
            <div class=""stimulus-container"" style=""display: flex; align-items: center; justify-content: center; gap: 30px;"">
                <img src=""images/causal_sequence/museum_causal/museum_causal_6.png"" class=""exp-image"">
                <div style=""font-size: 40px; font-weight: bold; color: green; border: 5px solid green; padding: 25px; border-radius: 15px; background-color: #f0fff0;"">
                    WORTH<br>$1
                </div>
            </div>
            <div class=""question-area""></div>","null","","","","","","",""
"","","","","","html-button-response","137","411583","0.0-137.0","6AAB53D6615A4CDC9504ECEC82F7D7DD","019ce663-0aa1-7a30-abc5-d8afb53809f4","019ce643-47c6-74a0-b3d2-7bf5651ded46","","1095","
            <div class=""stimulus-container"" style=""display: flex; align-items: center; justify-content: center; gap: 30px;"">
                <img src=""images/causal_sequence/museum_causal/museum_causal_6.png"" class=""exp-image"">
                <div style=""font-size: 40px; font-weight: bold; color: green; border: 5px solid green; padding: 25px; border-radius: 15px; background-color: #f0fff0;"">
                    WORTH<br>$1
                </div>
            </div>
            <div class=""question-area"">
                <p style=""font-size: 20px; font-weight: bold; margin: 0;"">Was there a person in this image?</p>
            </div>","0","part2_value_learning","","museum_causal","6","","",""
"","","","","","html-keyboard-response","138","422618","0.0-138.0","6AAB53D6615A4CDC9504ECEC82F7D7DD","019ce663-0aa1-7a30-abc5-d8afb53809f4","019ce643-47c6-74a0-b3d2-7bf5651ded46","","null","
            <div class=""stimulus-container"" style=""display: flex; align-items: center; justify-content: center; gap: 30px;"">
                <img src=""images/causal_sequence/dog_causal/dog_causal_3.png"" class=""exp-image"">
                <div style=""font-size: 40px; font-weight: bold; color: green; border: 5px solid green; padding: 25px; border-radius: 15px; background-color: #f0fff0;"">
                    WORTH<br>$1
                </div>
            </div>
            <div class=""question-area""></div>","null","","","","","","",""
"","","","","","html-button-response","139","423747","0.0-139.0","6AAB53D6615A4CDC9504ECEC82F7D7DD","019ce663-0aa1-7a30-abc5-d8afb53809f4","019ce643-47c6-74a0-b3d2-7bf5651ded46","","1129","
            <div class=""stimulus-container"" style=""display: flex; align-items: center; justify-content: center; gap: 30px;"">
                <img src=""images/causal_sequence/dog_causal/dog_causal_3.png"" class=""exp-image"">
                <div style=""font-size: 40px; font-weight: bold; color: green; border: 5px solid green; padding: 25px; border-radius: 15px; background-color: #f0fff0;"">
                    WORTH<br>$1
                </div>
            </div>
            <div class=""question-area"">
                <p style=""font-size: 20px; font-weight: bold; margin: 0;"">Was there a person in this image?</p>
            </div>","0","part2_value_learning","","dog_causal","3","","",""
"","","","","","html-keyboard-response","140","433762","0.0-140.0","6AAB53D6615A4CDC9504ECEC82F7D7DD","019ce663-0aa1-7a30-abc5-d8afb53809f4","019ce643-47c6-74a0-b3d2-7bf5651ded46","","null","
            <div class=""stimulus-container"" style=""display: flex; align-items: center; justify-content: center; gap: 30px;"">
                <img src=""images/causal_sequence/coin_causal/coin_causal_6.png"" class=""exp-image"">
                <div style=""font-size: 40px; font-weight: bold; color: green; border: 5px solid green; padding: 25px; border-radius: 15px; background-color: #f0fff0;"">
                    WORTH<br>$1
                </div>
            </div>
            <div class=""question-area""></div>","null","","","","","","",""
"","","","","","html-button-response","141","434226","0.0-141.0","6AAB53D6615A4CDC9504ECEC82F7D7DD","019ce663-0aa1-7a30-abc5-d8afb53809f4","019ce643-47c6-74a0-b3d2-7bf5651ded46","","464","
            <div class=""stimulus-container"" style=""display: flex; align-items: center; justify-content: center; gap: 30px;"">
                <img src=""images/causal_sequence/coin_causal/coin_causal_6.png"" class=""exp-image"">
                <div style=""font-size: 40px; font-weight: bold; color: green; border: 5px solid green; padding: 25px; border-radius: 15px; background-color: #f0fff0;"">
                    WORTH<br>$1
                </div>
            </div>
            <div class=""question-area"">
                <p style=""font-size: 20px; font-weight: bold; margin: 0;"">Was there a person in this image?</p>
            </div>","0","part2_value_learning","","coin_causal","6","","",""
"","","","","","html-keyboard-response","142","445313","0.0-142.0","6AAB53D6615A4CDC9504ECEC82F7D7DD","019ce663-0aa1-7a30-abc5-d8afb53809f4","019ce643-47c6-74a0-b3d2-7bf5651ded46","","null","
            <div class=""stimulus-container"" style=""display: flex; align-items: center; justify-content: center; gap: 30px;"">
                <img src=""images/causal_sequence/the_performance_causal/the_performance_causal_7.png"" class=""exp-image"">
                <div style=""font-size: 40px; font-weight: bold; color: green; border: 5px solid green; padding: 25px; border-radius: 15px; background-color: #f0fff0;"">
                    WORTH<br>$1
                </div>
            </div>
            <div class=""question-area""></div>","null","","","","","","",""
"","","","","","html-button-response","143","446061","0.0-143.0","6AAB53D6615A4CDC9504ECEC82F7D7DD","019ce663-0aa1-7a30-abc5-d8afb53809f4","019ce643-47c6-74a0-b3d2-7bf5651ded46","","747","
            <div class=""stimulus-container"" style=""display: flex; align-items: center; justify-content: center; gap: 30px;"">
                <img src=""images/causal_sequence/the_performance_causal/the_performance_causal_7.png"" class=""exp-image"">
                <div style=""font-size: 40px; font-weight: bold; color: green; border: 5px solid green; padding: 25px; border-radius: 15px; background-color: #f0fff0;"">
                    WORTH<br>$1
                </div>
            </div>
            <div class=""question-area"">
                <p style=""font-size: 20px; font-weight: bold; margin: 0;"">Was there a person in this image?</p>
            </div>","0","part2_value_learning","","the_performance_causal","7","","",""
"","","","","","html-keyboard-response","144","456063","0.0-144.0","6AAB53D6615A4CDC9504ECEC82F7D7DD","019ce663-0aa1-7a30-abc5-d8afb53809f4","019ce643-47c6-74a0-b3d2-7bf5651ded46","","null","
            <div class=""stimulus-container"" style=""display: flex; align-items: center; justify-content: center; gap: 30px;"">
                <img src=""images/causal_sequence/package_causal/package_causal_3.png"" class=""exp-image"">
                <div style=""font-size: 40px; font-weight: bold; color: green; border: 5px solid green; padding: 25px; border-radius: 15px; background-color: #f0fff0;"">
                    WORTH<br>$1
                </div>
            </div>
            <div class=""question-area""></div>","null","","","","","","",""
"","","","","","html-button-response","145","456659","0.0-145.0","6AAB53D6615A4CDC9504ECEC82F7D7DD","019ce663-0aa1-7a30-abc5-d8afb53809f4","019ce643-47c6-74a0-b3d2-7bf5651ded46","","595","
            <div class=""stimulus-container"" style=""display: flex; align-items: center; justify-content: center; gap: 30px;"">
                <img src=""images/causal_sequence/package_causal/package_causal_3.png"" class=""exp-image"">
                <div style=""font-size: 40px; font-weight: bold; color: green; border: 5px solid green; padding: 25px; border-radius: 15px; background-color: #f0fff0;"">
                    WORTH<br>$1
                </div>
            </div>
            <div class=""question-area"">
                <p style=""font-size: 20px; font-weight: bold; margin: 0;"">Was there a person in this image?</p>
            </div>","0","part2_value_learning","","package_causal","3","","",""
"","","","","","instructions","146","458519","0.0-146.0","6AAB53D6615A4CDC9504ECEC82F7D7DD","019ce663-0aa1-7a30-abc5-d8afb53809f4","019ce643-47c6-74a0-b3d2-7bf5651ded46","[{""page_index"":0,""viewing_time"":1859}]","1859","","","","","","","","",""
"","","","","","instructions","147","459516","0.0-147.0","6AAB53D6615A4CDC9504ECEC82F7D7DD","019ce663-0aa1-7a30-abc5-d8afb53809f4","019ce643-47c6-74a0-b3d2-7bf5651ded46","[{""page_index"":0,""viewing_time"":998}]","998","","","","","","","","",""
"","","","","","html-keyboard-response","148","469891","0.0-148.0-0.0","6AAB53D6615A4CDC9504ECEC82F7D7DD","019ce663-0aa1-7a30-abc5-d8afb53809f4","019ce643-47c6-74a0-b3d2-7bf5651ded46","","null","
                        <div style=""font-family: Arial; margin-bottom: 20px;""><h3>Which image is more valuable?</h3></div>
                        <div class=""stimulus-container"" style=""display: flex; width: 1100px; justify-content: center; gap: 50px;"">
                            <img src=""images/causal_sequence/saving_a_cat_causal/saving_a_cat_causal_5.png"" class=""exp-image"">
                            <img src=""images/causal_sequence/saving_a_cat_causal/saving_a_cat_causal_3.png"" class=""exp-image"">
                        </div>","null","","","","","","",""
"","","","","","html-button-response","149","472740","0.0-148.0-1.0","6AAB53D6615A4CDC9504ECEC82F7D7DD","019ce663-0aa1-7a30-abc5-d8afb53809f4","019ce643-47c6-74a0-b3d2-7bf5651ded46","","2847","
                        <div style=""font-family: Arial; margin-bottom: 20px;""><h3>Which image is more valuable?</h3></div>
                        <div class=""stimulus-container"" style=""display: flex; width: 1100px; justify-content: center; gap: 50px;"">
                            <img src=""images/causal_sequence/saving_a_cat_causal/saving_a_cat_causal_5.png"" class=""exp-image"">
                            <img src=""images/causal_sequence/saving_a_cat_causal/saving_a_cat_causal_3.png"" class=""exp-image"">
                        </div>","0","part3_final_choice","","saving_a_cat_causal","","4","5","1"
"","","","","","html-keyboard-response","150","482759","0.0-149.0-0.0","6AAB53D6615A4CDC9504ECEC82F7D7DD","019ce663-0aa1-7a30-abc5-d8afb53809f4","019ce643-47c6-74a0-b3d2-7bf5651ded46","","null","
                        <div style=""font-family: Arial; margin-bottom: 20px;""><h3>Which image is more valuable?</h3></div>
                        <div class=""stimulus-container"" style=""display: flex; width: 1100px; justify-content: center; gap: 50px;"">
                            <img src=""images/causal_sequence/coin_causal/coin_causal_7.png"" class=""exp-image"">
                            <img src=""images/causal_sequence/coin_causal/coin_causal_5.png"" class=""exp-image"">
                        </div>","null","","","","","","",""
"","","","","","html-button-response","151","483848","0.0-149.0-1.0","6AAB53D6615A4CDC9504ECEC82F7D7DD","019ce663-0aa1-7a30-abc5-d8afb53809f4","019ce643-47c6-74a0-b3d2-7bf5651ded46","","1089","
                        <div style=""font-family: Arial; margin-bottom: 20px;""><h3>Which image is more valuable?</h3></div>
                        <div class=""stimulus-container"" style=""display: flex; width: 1100px; justify-content: center; gap: 50px;"">
                            <img src=""images/causal_sequence/coin_causal/coin_causal_7.png"" class=""exp-image"">
                            <img src=""images/causal_sequence/coin_causal/coin_causal_5.png"" class=""exp-image"">
                        </div>","0","part3_final_choice","","coin_causal","","6","7","1"
"","","","","","html-keyboard-response","152","493948","0.0-150.0-0.0","6AAB53D6615A4CDC9504ECEC82F7D7DD","019ce663-0aa1-7a30-abc5-d8afb53809f4","019ce643-47c6-74a0-b3d2-7bf5651ded46","","null","
                        <div style=""font-family: Arial; margin-bottom: 20px;""><h3>Which image is more valuable?</h3></div>
                        <div class=""stimulus-container"" style=""display: flex; width: 1100px; justify-content: center; gap: 50px;"">
                            <img src=""images/causal_sequence/package_causal/package_causal_2.png"" class=""exp-image"">
                            <img src=""images/causal_sequence/package_causal/package_causal_4.png"" class=""exp-image"">
                        </div>","null","","","","","","",""
"","","","","","html-button-response","153","494708","0.0-150.0-1.0","6AAB53D6615A4CDC9504ECEC82F7D7DD","019ce663-0aa1-7a30-abc5-d8afb53809f4","019ce643-47c6-74a0-b3d2-7bf5651ded46","","761","
                        <div style=""font-family: Arial; margin-bottom: 20px;""><h3>Which image is more valuable?</h3></div>
                        <div class=""stimulus-container"" style=""display: flex; width: 1100px; justify-content: center; gap: 50px;"">
                            <img src=""images/causal_sequence/package_causal/package_causal_2.png"" class=""exp-image"">
                            <img src=""images/causal_sequence/package_causal/package_causal_4.png"" class=""exp-image"">
                        </div>","0","part3_final_choice","","package_causal","","3","2","-1"
"","","","","","html-keyboard-response","154","504861","0.0-151.0-0.0","6AAB53D6615A4CDC9504ECEC82F7D7DD","019ce663-0aa1-7a30-abc5-d8afb53809f4","019ce643-47c6-74a0-b3d2-7bf5651ded46","","null","
                        <div style=""font-family: Arial; margin-bottom: 20px;""><h3>Which image is more valuable?</h3></div>
                        <div class=""stimulus-container"" style=""display: flex; width: 1100px; justify-content: center; gap: 50px;"">
                            <img src=""images/causal_sequence/museum_causal/museum_causal_7.png"" class=""exp-image"">
                            <img src=""images/causal_sequence/museum_causal/museum_causal_5.png"" class=""exp-image"">
                        </div>","null","","","","","","",""
"","","","","","html-button-response","155","505793","0.0-151.0-1.0","6AAB53D6615A4CDC9504ECEC82F7D7DD","019ce663-0aa1-7a30-abc5-d8afb53809f4","019ce643-47c6-74a0-b3d2-7bf5651ded46","","932","
                        <div style=""font-family: Arial; margin-bottom: 20px;""><h3>Which image is more valuable?</h3></div>
                        <div class=""stimulus-container"" style=""display: flex; width: 1100px; justify-content: center; gap: 50px;"">
                            <img src=""images/causal_sequence/museum_causal/museum_causal_7.png"" class=""exp-image"">
                            <img src=""images/causal_sequence/museum_causal/museum_causal_5.png"" class=""exp-image"">
                        </div>","0","part3_final_choice","","museum_causal","","6","7","1"
"","","","","","html-keyboard-response","156","516504","0.0-152.0-0.0","6AAB53D6615A4CDC9504ECEC82F7D7DD","019ce663-0aa1-7a30-abc5-d8afb53809f4","019ce643-47c6-74a0-b3d2-7bf5651ded46","","null","
                        <div style=""font-family: Arial; margin-bottom: 20px;""><h3>Which image is more valuable?</h3></div>
                        <div class=""stimulus-container"" style=""display: flex; width: 1100px; justify-content: center; gap: 50px;"">
                            <img src=""images/causal_sequence/the_performance_causal/the_performance_causal_6.png"" class=""exp-image"">
                            <img src=""images/causal_sequence/the_performance_causal/the_performance_causal_8.png"" class=""exp-image"">
                        </div>","null","","","","","","",""
"","","","","","html-button-response","157","517395","0.0-152.0-1.0","6AAB53D6615A4CDC9504ECEC82F7D7DD","019ce663-0aa1-7a30-abc5-d8afb53809f4","019ce643-47c6-74a0-b3d2-7bf5651ded46","","891","
                        <div style=""font-family: Arial; margin-bottom: 20px;""><h3>Which image is more valuable?</h3></div>
                        <div class=""stimulus-container"" style=""display: flex; width: 1100px; justify-content: center; gap: 50px;"">
                            <img src=""images/causal_sequence/the_performance_causal/the_performance_causal_6.png"" class=""exp-image"">
                            <img src=""images/causal_sequence/the_performance_causal/the_performance_causal_8.png"" class=""exp-image"">
                        </div>","1","part3_final_choice","","the_performance_causal","","7","8","1"
"","","","","","html-keyboard-response","158","527757","0.0-153.0-0.0","6AAB53D6615A4CDC9504ECEC82F7D7DD","019ce663-0aa1-7a30-abc5-d8afb53809f4","019ce643-47c6-74a0-b3d2-7bf5651ded46","","null","
                        <div style=""font-family: Arial; margin-bottom: 20px;""><h3>Which image is more valuable?</h3></div>
                        <div class=""stimulus-container"" style=""display: flex; width: 1100px; justify-content: center; gap: 50px;"">
                            <img src=""images/causal_sequence/dog_causal/dog_causal_2.png"" class=""exp-image"">
                            <img src=""images/causal_sequence/dog_causal/dog_causal_4.png"" class=""exp-image"">
                        </div>","null","","","","","","",""
"","","","","","html-button-response","159","528435","0.0-153.0-1.0","6AAB53D6615A4CDC9504ECEC82F7D7DD","019ce663-0aa1-7a30-abc5-d8afb53809f4","019ce643-47c6-74a0-b3d2-7bf5651ded46","","678","
                        <div style=""font-family: Arial; margin-bottom: 20px;""><h3>Which image is more valuable?</h3></div>
                        <div class=""stimulus-container"" style=""display: flex; width: 1100px; justify-content: center; gap: 50px;"">
                            <img src=""images/causal_sequence/dog_causal/dog_causal_2.png"" class=""exp-image"">
                            <img src=""images/causal_sequence/dog_causal/dog_causal_4.png"" class=""exp-image"">
                        </div>","0","part3_final_choice","","dog_causal","","3","2","-1"
"","","","","","survey-text","160","552116","0.0-154.0","6AAB53D6615A4CDC9504ECEC82F7D7DD","019ce663-0aa1-7a30-abc5-d8afb53809f4","019ce643-47c6-74a0-b3d2-7bf5651ded46","","23638","","{""gender"":""female"",""age"":""26"",""decision_strategy"":""i chose which image i liked more"",""consistency_check"":""it was about the same""}","demographics_and_strategy","","","","","",""
"","","","","","instructions","161","554207","0.0-155.0","6AAB53D6615A4CDC9504ECEC82F7D7DD","019ce663-0aa1-7a30-abc5-d8afb53809f4","019ce643-47c6-74a0-b3d2-7bf5651ded46","[{""page_index"":0,""viewing_time"":2090}]","2090","","","","","","","","",""
