"success","timeout","failed_images","failed_audio","failed_video","trial_type","trial_index","time_elapsed","internal_node_id","subject_id","study_id","session_id","view_history","rt","stimulus","response","task","image_index","folder","sequence_type","presentation_order","valuable_image_index","reward_type","distance_from_x","target_X","chosen_image_index","is_x_plus_dist","correct_choice"
"true","false","[]","[]","[]","preload","0","7852","0.0-0.0","FB469A0CC87245F09B147031601ECA2A","019d6b89-0aa7-7cd4-83b9-c6824ab9f2b6","019d6b6d-d11f-7233-9b95-7a424dbf389f","","","","","","","","","","","","","","","",""
"","","","","","instructions","1","10535","0.0-1.0","FB469A0CC87245F09B147031601ECA2A","019d6b89-0aa7-7cd4-83b9-c6824ab9f2b6","019d6b6d-d11f-7233-9b95-7a424dbf389f","[{""page_index"":0,""viewing_time"":2682}]","2682","","","","","","","","","","","","","",""
"","","","","","instructions","2","33727","0.0-2.0","FB469A0CC87245F09B147031601ECA2A","019d6b89-0aa7-7cd4-83b9-c6824ab9f2b6","019d6b6d-d11f-7233-9b95-7a424dbf389f","[{""page_index"":0,""viewing_time"":23192}]","23192","","","","","","","","","","","","","",""
"true","","","","","fullscreen","3","37066","0.0-3.0","FB469A0CC87245F09B147031601ECA2A","019d6b89-0aa7-7cd4-83b9-c6824ab9f2b6","019d6b6d-d11f-7233-9b95-7a424dbf389f","","2325","","","","","","","","","","","","","",""
"","","","","","instructions","4","52954","0.0-4.0","FB469A0CC87245F09B147031601ECA2A","019d6b89-0aa7-7cd4-83b9-c6824ab9f2b6","019d6b6d-d11f-7233-9b95-7a424dbf389f","[{""page_index"":0,""viewing_time"":15888}]","15888","","","","","","","","","","","","","",""
"","","","","","instructions","5","66108","0.0-5.0","FB469A0CC87245F09B147031601ECA2A","019d6b89-0aa7-7cd4-83b9-c6824ab9f2b6","019d6b6d-d11f-7233-9b95-7a424dbf389f","[{""page_index"":0,""viewing_time"":13154}]","13154","","","","","","","","","","","","","",""
"","","","","","html-keyboard-response","6","70110","0.0-6.0","FB469A0CC87245F09B147031601ECA2A","019d6b89-0aa7-7cd4-83b9-c6824ab9f2b6","019d6b6d-d11f-7233-9b95-7a424dbf389f","","null","
            <div class=""stimulus-container"">
                <img src=""images/instructions/movie_1.png"" class=""exp-image"">
                <div class=""question-area""></div> 
            </div>","null","","","","","","","","","","","",""
"","","","","","html-button-response","7","72428","0.0-7.0","FB469A0CC87245F09B147031601ECA2A","019d6b89-0aa7-7cd4-83b9-c6824ab9f2b6","019d6b6d-d11f-7233-9b95-7a424dbf389f","","2317","
            <div class=""stimulus-container"">
                <img src=""images/instructions/movie_1.png"" class=""exp-image"">
                <div class=""question-area"">
                    <p style=""font-size: 20px; font-weight: bold; margin: 0;"">Was there a person in this image?</p>
                </div>
            </div>","0","example_question","1","","","","","","","","","",""
"","","","","","html-keyboard-response","8","76438","0.0-8.0","FB469A0CC87245F09B147031601ECA2A","019d6b89-0aa7-7cd4-83b9-c6824ab9f2b6","019d6b6d-d11f-7233-9b95-7a424dbf389f","","null","
            <div class=""stimulus-container"">
                <img src=""images/instructions/movie_2.png"" class=""exp-image"">
                <div class=""question-area""></div> 
            </div>","null","","","","","","","","","","","",""
"","","","","","html-button-response","9","79439","0.0-9.0","FB469A0CC87245F09B147031601ECA2A","019d6b89-0aa7-7cd4-83b9-c6824ab9f2b6","019d6b6d-d11f-7233-9b95-7a424dbf389f","","null","
            <div class=""stimulus-container"">
                <img src=""images/instructions/movie_2.png"" class=""exp-image"">
                <div class=""question-area"">
                    <p style=""font-size: 20px; font-weight: bold; margin: 0;"">Was there a person in this image?</p>
                </div>
            </div>","null","example_question","2","","","","","","","","","",""
"","","","","","html-keyboard-response","10","83441","0.0-10.0","FB469A0CC87245F09B147031601ECA2A","019d6b89-0aa7-7cd4-83b9-c6824ab9f2b6","019d6b6d-d11f-7233-9b95-7a424dbf389f","","null","
            <div class=""stimulus-container"">
                <img src=""images/instructions/movie_3.png"" class=""exp-image"">
                <div class=""question-area""></div> 
            </div>","null","","","","","","","","","","","",""
"","","","","","html-button-response","11","84779","0.0-11.0","FB469A0CC87245F09B147031601ECA2A","019d6b89-0aa7-7cd4-83b9-c6824ab9f2b6","019d6b6d-d11f-7233-9b95-7a424dbf389f","","1338","
            <div class=""stimulus-container"">
                <img src=""images/instructions/movie_3.png"" class=""exp-image"">
                <div class=""question-area"">
                    <p style=""font-size: 20px; font-weight: bold; margin: 0;"">Was there a person in this image?</p>
                </div>
            </div>","0","example_question","3","","","","","","","","","",""
"","","","","","html-keyboard-response","12","88791","0.0-12.0","FB469A0CC87245F09B147031601ECA2A","019d6b89-0aa7-7cd4-83b9-c6824ab9f2b6","019d6b6d-d11f-7233-9b95-7a424dbf389f","","null","
            <div class=""stimulus-container"">
                <img src=""images/instructions/movie_4.png"" class=""exp-image"">
                <div class=""question-area""></div> 
            </div>","null","","","","","","","","","","","",""
"","","","","","html-button-response","13","89641","0.0-13.0","FB469A0CC87245F09B147031601ECA2A","019d6b89-0aa7-7cd4-83b9-c6824ab9f2b6","019d6b6d-d11f-7233-9b95-7a424dbf389f","","850","
            <div class=""stimulus-container"">
                <img src=""images/instructions/movie_4.png"" class=""exp-image"">
                <div class=""question-area"">
                    <p style=""font-size: 20px; font-weight: bold; margin: 0;"">Was there a person in this image?</p>
                </div>
            </div>","0","example_question","4","","","","","","","","","",""
"","","","","","instructions","14","91543","0.0-14.0","FB469A0CC87245F09B147031601ECA2A","019d6b89-0aa7-7cd4-83b9-c6824ab9f2b6","019d6b6d-d11f-7233-9b95-7a424dbf389f","[{""page_index"":0,""viewing_time"":1902}]","1902","","","","","","","","","","","","","",""
"","","","","","instructions","15","97087","0.0-15.0","FB469A0CC87245F09B147031601ECA2A","019d6b89-0aa7-7cd4-83b9-c6824ab9f2b6","019d6b6d-d11f-7233-9b95-7a424dbf389f","[{""page_index"":0,""viewing_time"":5544}]","5544","","","","","","","","","","","","","",""
"","","","","","html-keyboard-response","16","102095","0.0-16.0","FB469A0CC87245F09B147031601ECA2A","019d6b89-0aa7-7cd4-83b9-c6824ab9f2b6","019d6b6d-d11f-7233-9b95-7a424dbf389f","","null","<div style=""background-color: white; width: 100vw; height: 100vh;""></div>","null","","","","","","","","","","","",""
"","","","","","html-keyboard-response","17","107102","0.0-17.0","FB469A0CC87245F09B147031601ECA2A","019d6b89-0aa7-7cd4-83b9-c6824ab9f2b6","019d6b6d-d11f-7233-9b95-7a424dbf389f","","null","
                <div class=""stimulus-container"">
                    <img src=""images/causal_sequence/coin_causal/coin_causal_1.png"" class=""exp-image"">
                    <div class=""question-area""></div> 
                </div>","null","","","","","","","","","","","",""
"","","","","","html-button-response","18","108680","0.0-18.0","FB469A0CC87245F09B147031601ECA2A","019d6b89-0aa7-7cd4-83b9-c6824ab9f2b6","019d6b6d-d11f-7233-9b95-7a424dbf389f","","1578","
                <div class=""stimulus-container"">
                    <img src=""images/causal_sequence/coin_causal/coin_causal_1.png"" class=""exp-image"">
                    <div class=""question-area"">
                        <p style=""font-size: 20px; font-weight: bold; margin: 0;"">Is there a person in this image?</p>
                    </div>
                </div>","0","main_experiment_trial","1","coin_causal","causal_sequence","chronological","","","","","","",""
"","","","","","html-keyboard-response","19","113689","0.0-19.0","FB469A0CC87245F09B147031601ECA2A","019d6b89-0aa7-7cd4-83b9-c6824ab9f2b6","019d6b6d-d11f-7233-9b95-7a424dbf389f","","null","
                <div class=""stimulus-container"">
                    <img src=""images/causal_sequence/coin_causal/coin_causal_2.png"" class=""exp-image"">
                    <div class=""question-area""></div> 
                </div>","null","","","","","","","","","","","",""
"","","","","","html-button-response","20","115572","0.0-20.0","FB469A0CC87245F09B147031601ECA2A","019d6b89-0aa7-7cd4-83b9-c6824ab9f2b6","019d6b6d-d11f-7233-9b95-7a424dbf389f","","1883","
                <div class=""stimulus-container"">
                    <img src=""images/causal_sequence/coin_causal/coin_causal_2.png"" class=""exp-image"">
                    <div class=""question-area"">
                        <p style=""font-size: 20px; font-weight: bold; margin: 0;"">Is there a person in this image?</p>
                    </div>
                </div>","0","main_experiment_trial","2","coin_causal","causal_sequence","chronological","","","","","","",""
"","","","","","html-keyboard-response","21","120584","0.0-21.0","FB469A0CC87245F09B147031601ECA2A","019d6b89-0aa7-7cd4-83b9-c6824ab9f2b6","019d6b6d-d11f-7233-9b95-7a424dbf389f","","null","
                <div class=""stimulus-container"">
                    <img src=""images/causal_sequence/coin_causal/coin_causal_3.png"" class=""exp-image"">
                    <div class=""question-area""></div> 
                </div>","null","","","","","","","","","","","",""
"","","","","","html-button-response","22","121946","0.0-22.0","FB469A0CC87245F09B147031601ECA2A","019d6b89-0aa7-7cd4-83b9-c6824ab9f2b6","019d6b6d-d11f-7233-9b95-7a424dbf389f","","1362","
                <div class=""stimulus-container"">
                    <img src=""images/causal_sequence/coin_causal/coin_causal_3.png"" class=""exp-image"">
                    <div class=""question-area"">
                        <p style=""font-size: 20px; font-weight: bold; margin: 0;"">Is there a person in this image?</p>
                    </div>
                </div>","0","main_experiment_trial","3","coin_causal","causal_sequence","chronological","","","","","","",""
"","","","","","html-keyboard-response","23","126949","0.0-23.0","FB469A0CC87245F09B147031601ECA2A","019d6b89-0aa7-7cd4-83b9-c6824ab9f2b6","019d6b6d-d11f-7233-9b95-7a424dbf389f","","null","
                <div class=""stimulus-container"">
                    <img src=""images/causal_sequence/coin_causal/coin_causal_4.png"" class=""exp-image"">
                    <div class=""question-area""></div> 
                </div>","null","","","","","","","","","","","",""
"","","","","","html-button-response","24","127799","0.0-24.0","FB469A0CC87245F09B147031601ECA2A","019d6b89-0aa7-7cd4-83b9-c6824ab9f2b6","019d6b6d-d11f-7233-9b95-7a424dbf389f","","850","
                <div class=""stimulus-container"">
                    <img src=""images/causal_sequence/coin_causal/coin_causal_4.png"" class=""exp-image"">
                    <div class=""question-area"">
                        <p style=""font-size: 20px; font-weight: bold; margin: 0;"">Is there a person in this image?</p>
                    </div>
                </div>","0","main_experiment_trial","4","coin_causal","causal_sequence","chronological","","","","","","",""
"","","","","","html-keyboard-response","25","132803","0.0-25.0","FB469A0CC87245F09B147031601ECA2A","019d6b89-0aa7-7cd4-83b9-c6824ab9f2b6","019d6b6d-d11f-7233-9b95-7a424dbf389f","","null","
                <div class=""stimulus-container"">
                    <img src=""images/causal_sequence/coin_causal/coin_causal_5.png"" class=""exp-image"">
                    <div class=""question-area""></div> 
                </div>","null","","","","","","","","","","","",""
"","","","","","html-button-response","26","133557","0.0-26.0","FB469A0CC87245F09B147031601ECA2A","019d6b89-0aa7-7cd4-83b9-c6824ab9f2b6","019d6b6d-d11f-7233-9b95-7a424dbf389f","","754","
                <div class=""stimulus-container"">
                    <img src=""images/causal_sequence/coin_causal/coin_causal_5.png"" class=""exp-image"">
                    <div class=""question-area"">
                        <p style=""font-size: 20px; font-weight: bold; margin: 0;"">Is there a person in this image?</p>
                    </div>
                </div>","0","main_experiment_trial","5","coin_causal","causal_sequence","chronological","","","","","","",""
"","","","","","html-keyboard-response","27","138558","0.0-27.0","FB469A0CC87245F09B147031601ECA2A","019d6b89-0aa7-7cd4-83b9-c6824ab9f2b6","019d6b6d-d11f-7233-9b95-7a424dbf389f","","null","
                <div class=""stimulus-container"">
                    <img src=""images/causal_sequence/coin_causal/coin_causal_6.png"" class=""exp-image"">
                    <div class=""question-area""></div> 
                </div>","null","","","","","","","","","","","",""
"","","","","","html-button-response","28","139678","0.0-28.0","FB469A0CC87245F09B147031601ECA2A","019d6b89-0aa7-7cd4-83b9-c6824ab9f2b6","019d6b6d-d11f-7233-9b95-7a424dbf389f","","1120","
                <div class=""stimulus-container"">
                    <img src=""images/causal_sequence/coin_causal/coin_causal_6.png"" class=""exp-image"">
                    <div class=""question-area"">
                        <p style=""font-size: 20px; font-weight: bold; margin: 0;"">Is there a person in this image?</p>
                    </div>
                </div>","0","main_experiment_trial","6","coin_causal","causal_sequence","chronological","","","","","","",""
"","","","","","html-keyboard-response","29","144683","0.0-29.0","FB469A0CC87245F09B147031601ECA2A","019d6b89-0aa7-7cd4-83b9-c6824ab9f2b6","019d6b6d-d11f-7233-9b95-7a424dbf389f","","null","
                <div class=""stimulus-container"">
                    <img src=""images/causal_sequence/coin_causal/coin_causal_7.png"" class=""exp-image"">
                    <div class=""question-area""></div> 
                </div>","null","","","","","","","","","","","",""
"","","","","","html-button-response","30","145968","0.0-30.0","FB469A0CC87245F09B147031601ECA2A","019d6b89-0aa7-7cd4-83b9-c6824ab9f2b6","019d6b6d-d11f-7233-9b95-7a424dbf389f","","1285","
                <div class=""stimulus-container"">
                    <img src=""images/causal_sequence/coin_causal/coin_causal_7.png"" class=""exp-image"">
                    <div class=""question-area"">
                        <p style=""font-size: 20px; font-weight: bold; margin: 0;"">Is there a person in this image?</p>
                    </div>
                </div>","1","main_experiment_trial","7","coin_causal","causal_sequence","chronological","","","","","","",""
"","","","","","html-keyboard-response","31","150977","0.0-31.0","FB469A0CC87245F09B147031601ECA2A","019d6b89-0aa7-7cd4-83b9-c6824ab9f2b6","019d6b6d-d11f-7233-9b95-7a424dbf389f","","null","
                <div class=""stimulus-container"">
                    <img src=""images/causal_sequence/coin_causal/coin_causal_8.png"" class=""exp-image"">
                    <div class=""question-area""></div> 
                </div>","null","","","","","","","","","","","",""
"","","","","","html-button-response","32","152334","0.0-32.0","FB469A0CC87245F09B147031601ECA2A","019d6b89-0aa7-7cd4-83b9-c6824ab9f2b6","019d6b6d-d11f-7233-9b95-7a424dbf389f","","1357","
                <div class=""stimulus-container"">
                    <img src=""images/causal_sequence/coin_causal/coin_causal_8.png"" class=""exp-image"">
                    <div class=""question-area"">
                        <p style=""font-size: 20px; font-weight: bold; margin: 0;"">Is there a person in this image?</p>
                    </div>
                </div>","0","main_experiment_trial","8","coin_causal","causal_sequence","chronological","","","","","","",""
"","","","","","html-keyboard-response","33","157346","0.0-33.0","FB469A0CC87245F09B147031601ECA2A","019d6b89-0aa7-7cd4-83b9-c6824ab9f2b6","019d6b6d-d11f-7233-9b95-7a424dbf389f","","null","
                <div class=""stimulus-container"">
                    <img src=""images/causal_sequence/coin_causal/coin_causal_9.png"" class=""exp-image"">
                    <div class=""question-area""></div> 
                </div>","null","","","","","","","","","","","",""
"","","","","","html-button-response","34","158326","0.0-34.0","FB469A0CC87245F09B147031601ECA2A","019d6b89-0aa7-7cd4-83b9-c6824ab9f2b6","019d6b6d-d11f-7233-9b95-7a424dbf389f","","980","
                <div class=""stimulus-container"">
                    <img src=""images/causal_sequence/coin_causal/coin_causal_9.png"" class=""exp-image"">
                    <div class=""question-area"">
                        <p style=""font-size: 20px; font-weight: bold; margin: 0;"">Is there a person in this image?</p>
                    </div>
                </div>","0","main_experiment_trial","9","coin_causal","causal_sequence","chronological","","","","","","",""
"","","","","","html-keyboard-response","35","163335","0.0-35.0","FB469A0CC87245F09B147031601ECA2A","019d6b89-0aa7-7cd4-83b9-c6824ab9f2b6","019d6b6d-d11f-7233-9b95-7a424dbf389f","","null","
                <div class=""stimulus-container"">
                    <img src=""images/causal_sequence/coin_causal/coin_causal_ten.png"" class=""exp-image"">
                    <div class=""question-area""></div> 
                </div>","null","","","","","","","","","","","",""
"","","","","","html-button-response","36","164020","0.0-36.0","FB469A0CC87245F09B147031601ECA2A","019d6b89-0aa7-7cd4-83b9-c6824ab9f2b6","019d6b6d-d11f-7233-9b95-7a424dbf389f","","684","
                <div class=""stimulus-container"">
                    <img src=""images/causal_sequence/coin_causal/coin_causal_ten.png"" class=""exp-image"">
                    <div class=""question-area"">
                        <p style=""font-size: 20px; font-weight: bold; margin: 0;"">Is there a person in this image?</p>
                    </div>
                </div>","0","main_experiment_trial","ten","coin_causal","causal_sequence","chronological","","","","","","",""
"","","","","","html-keyboard-response","37","169027","0.0-37.0","FB469A0CC87245F09B147031601ECA2A","019d6b89-0aa7-7cd4-83b9-c6824ab9f2b6","019d6b6d-d11f-7233-9b95-7a424dbf389f","","null","<div style=""background-color: white; width: 100vw; height: 100vh;""></div>","null","","","","","","","","","","","",""
"","","","","","html-keyboard-response","38","174037","0.0-38.0","FB469A0CC87245F09B147031601ECA2A","019d6b89-0aa7-7cd4-83b9-c6824ab9f2b6","019d6b6d-d11f-7233-9b95-7a424dbf389f","","null","
                <div class=""stimulus-container"">
                    <img src=""semantic_sequence_notimeline/transportation_semantic/transportation_semantic_1.png"" class=""exp-image"">
                    <div class=""question-area""></div> 
                </div>","null","","","","","","","","","","","",""
"","","","","","html-button-response","39","175276","0.0-39.0","FB469A0CC87245F09B147031601ECA2A","019d6b89-0aa7-7cd4-83b9-c6824ab9f2b6","019d6b6d-d11f-7233-9b95-7a424dbf389f","","1239","
                <div class=""stimulus-container"">
                    <img src=""semantic_sequence_notimeline/transportation_semantic/transportation_semantic_1.png"" class=""exp-image"">
                    <div class=""question-area"">
                        <p style=""font-size: 20px; font-weight: bold; margin: 0;"">Is there a person in this image?</p>
                    </div>
                </div>","1","main_experiment_trial","1","transportation_semantic","semantic_sequence_notimeline","chronological","","","","","","",""
"","","","","","html-keyboard-response","40","180277","0.0-40.0","FB469A0CC87245F09B147031601ECA2A","019d6b89-0aa7-7cd4-83b9-c6824ab9f2b6","019d6b6d-d11f-7233-9b95-7a424dbf389f","","null","
                <div class=""stimulus-container"">
                    <img src=""semantic_sequence_notimeline/transportation_semantic/transportation_semantic_2.png"" class=""exp-image"">
                    <div class=""question-area""></div> 
                </div>","null","","","","","","","","","","","",""
"","","","","","html-button-response","41","181128","0.0-41.0","FB469A0CC87245F09B147031601ECA2A","019d6b89-0aa7-7cd4-83b9-c6824ab9f2b6","019d6b6d-d11f-7233-9b95-7a424dbf389f","","851","
                <div class=""stimulus-container"">
                    <img src=""semantic_sequence_notimeline/transportation_semantic/transportation_semantic_2.png"" class=""exp-image"">
                    <div class=""question-area"">
                        <p style=""font-size: 20px; font-weight: bold; margin: 0;"">Is there a person in this image?</p>
                    </div>
                </div>","1","main_experiment_trial","2","transportation_semantic","semantic_sequence_notimeline","chronological","","","","","","",""
"","","","","","html-keyboard-response","42","186133","0.0-42.0","FB469A0CC87245F09B147031601ECA2A","019d6b89-0aa7-7cd4-83b9-c6824ab9f2b6","019d6b6d-d11f-7233-9b95-7a424dbf389f","","null","
                <div class=""stimulus-container"">
                    <img src=""semantic_sequence_notimeline/transportation_semantic/transportation_semantic_3.png"" class=""exp-image"">
                    <div class=""question-area""></div> 
                </div>","null","","","","","","","","","","","",""
"","","","","","html-button-response","43","186854","0.0-43.0","FB469A0CC87245F09B147031601ECA2A","019d6b89-0aa7-7cd4-83b9-c6824ab9f2b6","019d6b6d-d11f-7233-9b95-7a424dbf389f","","720","
                <div class=""stimulus-container"">
                    <img src=""semantic_sequence_notimeline/transportation_semantic/transportation_semantic_3.png"" class=""exp-image"">
                    <div class=""question-area"">
                        <p style=""font-size: 20px; font-weight: bold; margin: 0;"">Is there a person in this image?</p>
                    </div>
                </div>","1","main_experiment_trial","3","transportation_semantic","semantic_sequence_notimeline","chronological","","","","","","",""
"","","","","","html-keyboard-response","44","191856","0.0-44.0","FB469A0CC87245F09B147031601ECA2A","019d6b89-0aa7-7cd4-83b9-c6824ab9f2b6","019d6b6d-d11f-7233-9b95-7a424dbf389f","","null","
                <div class=""stimulus-container"">
                    <img src=""semantic_sequence_notimeline/transportation_semantic/transportation_semantic_4.png"" class=""exp-image"">
                    <div class=""question-area""></div> 
                </div>","null","","","","","","","","","","","",""
"","","","","","html-button-response","45","192880","0.0-45.0","FB469A0CC87245F09B147031601ECA2A","019d6b89-0aa7-7cd4-83b9-c6824ab9f2b6","019d6b6d-d11f-7233-9b95-7a424dbf389f","","1024","
                <div class=""stimulus-container"">
                    <img src=""semantic_sequence_notimeline/transportation_semantic/transportation_semantic_4.png"" class=""exp-image"">
                    <div class=""question-area"">
                        <p style=""font-size: 20px; font-weight: bold; margin: 0;"">Is there a person in this image?</p>
                    </div>
                </div>","1","main_experiment_trial","4","transportation_semantic","semantic_sequence_notimeline","chronological","","","","","","",""
"","","","","","html-keyboard-response","46","197888","0.0-46.0","FB469A0CC87245F09B147031601ECA2A","019d6b89-0aa7-7cd4-83b9-c6824ab9f2b6","019d6b6d-d11f-7233-9b95-7a424dbf389f","","null","
                <div class=""stimulus-container"">
                    <img src=""semantic_sequence_notimeline/transportation_semantic/transportation_semantic_5.png"" class=""exp-image"">
                    <div class=""question-area""></div> 
                </div>","null","","","","","","","","","","","",""
"","","","","","html-button-response","47","198880","0.0-47.0","FB469A0CC87245F09B147031601ECA2A","019d6b89-0aa7-7cd4-83b9-c6824ab9f2b6","019d6b6d-d11f-7233-9b95-7a424dbf389f","","992","
                <div class=""stimulus-container"">
                    <img src=""semantic_sequence_notimeline/transportation_semantic/transportation_semantic_5.png"" class=""exp-image"">
                    <div class=""question-area"">
                        <p style=""font-size: 20px; font-weight: bold; margin: 0;"">Is there a person in this image?</p>
                    </div>
                </div>","1","main_experiment_trial","5","transportation_semantic","semantic_sequence_notimeline","chronological","","","","","","",""
"","","","","","html-keyboard-response","48","203892","0.0-48.0","FB469A0CC87245F09B147031601ECA2A","019d6b89-0aa7-7cd4-83b9-c6824ab9f2b6","019d6b6d-d11f-7233-9b95-7a424dbf389f","","null","
                <div class=""stimulus-container"">
                    <img src=""semantic_sequence_notimeline/transportation_semantic/transportation_semantic_6.png"" class=""exp-image"">
                    <div class=""question-area""></div> 
                </div>","null","","","","","","","","","","","",""
"","","","","","html-button-response","49","204509","0.0-49.0","FB469A0CC87245F09B147031601ECA2A","019d6b89-0aa7-7cd4-83b9-c6824ab9f2b6","019d6b6d-d11f-7233-9b95-7a424dbf389f","","617","
                <div class=""stimulus-container"">
                    <img src=""semantic_sequence_notimeline/transportation_semantic/transportation_semantic_6.png"" class=""exp-image"">
                    <div class=""question-area"">
                        <p style=""font-size: 20px; font-weight: bold; margin: 0;"">Is there a person in this image?</p>
                    </div>
                </div>","0","main_experiment_trial","6","transportation_semantic","semantic_sequence_notimeline","chronological","","","","","","",""
"","","","","","html-keyboard-response","50","209510","0.0-50.0","FB469A0CC87245F09B147031601ECA2A","019d6b89-0aa7-7cd4-83b9-c6824ab9f2b6","019d6b6d-d11f-7233-9b95-7a424dbf389f","","null","
                <div class=""stimulus-container"">
                    <img src=""semantic_sequence_notimeline/transportation_semantic/transportation_semantic_7.png"" class=""exp-image"">
                    <div class=""question-area""></div> 
                </div>","null","","","","","","","","","","","",""
"","","","","","html-button-response","51","210107","0.0-51.0","FB469A0CC87245F09B147031601ECA2A","019d6b89-0aa7-7cd4-83b9-c6824ab9f2b6","019d6b6d-d11f-7233-9b95-7a424dbf389f","","596","
                <div class=""stimulus-container"">
                    <img src=""semantic_sequence_notimeline/transportation_semantic/transportation_semantic_7.png"" class=""exp-image"">
                    <div class=""question-area"">
                        <p style=""font-size: 20px; font-weight: bold; margin: 0;"">Is there a person in this image?</p>
                    </div>
                </div>","1","main_experiment_trial","7","transportation_semantic","semantic_sequence_notimeline","chronological","","","","","","",""
"","","","","","html-keyboard-response","52","215109","0.0-52.0","FB469A0CC87245F09B147031601ECA2A","019d6b89-0aa7-7cd4-83b9-c6824ab9f2b6","019d6b6d-d11f-7233-9b95-7a424dbf389f","","null","
                <div class=""stimulus-container"">
                    <img src=""semantic_sequence_notimeline/transportation_semantic/transportation_semantic_8.png"" class=""exp-image"">
                    <div class=""question-area""></div> 
                </div>","null","","","","","","","","","","","",""
"","","","","","html-button-response","53","215600","0.0-53.0","FB469A0CC87245F09B147031601ECA2A","019d6b89-0aa7-7cd4-83b9-c6824ab9f2b6","019d6b6d-d11f-7233-9b95-7a424dbf389f","","490","
                <div class=""stimulus-container"">
                    <img src=""semantic_sequence_notimeline/transportation_semantic/transportation_semantic_8.png"" class=""exp-image"">
                    <div class=""question-area"">
                        <p style=""font-size: 20px; font-weight: bold; margin: 0;"">Is there a person in this image?</p>
                    </div>
                </div>","1","main_experiment_trial","8","transportation_semantic","semantic_sequence_notimeline","chronological","","","","","","",""
"","","","","","html-keyboard-response","54","220610","0.0-54.0","FB469A0CC87245F09B147031601ECA2A","019d6b89-0aa7-7cd4-83b9-c6824ab9f2b6","019d6b6d-d11f-7233-9b95-7a424dbf389f","","null","
                <div class=""stimulus-container"">
                    <img src=""semantic_sequence_notimeline/transportation_semantic/transportation_semantic_9.png"" class=""exp-image"">
                    <div class=""question-area""></div> 
                </div>","null","","","","","","","","","","","",""
"","","","","","html-button-response","55","221387","0.0-55.0","FB469A0CC87245F09B147031601ECA2A","019d6b89-0aa7-7cd4-83b9-c6824ab9f2b6","019d6b6d-d11f-7233-9b95-7a424dbf389f","","776","
                <div class=""stimulus-container"">
                    <img src=""semantic_sequence_notimeline/transportation_semantic/transportation_semantic_9.png"" class=""exp-image"">
                    <div class=""question-area"">
                        <p style=""font-size: 20px; font-weight: bold; margin: 0;"">Is there a person in this image?</p>
                    </div>
                </div>","1","main_experiment_trial","9","transportation_semantic","semantic_sequence_notimeline","chronological","","","","","","",""
"","","","","","html-keyboard-response","56","226388","0.0-56.0","FB469A0CC87245F09B147031601ECA2A","019d6b89-0aa7-7cd4-83b9-c6824ab9f2b6","019d6b6d-d11f-7233-9b95-7a424dbf389f","","null","
                <div class=""stimulus-container"">
                    <img src=""semantic_sequence_notimeline/transportation_semantic/transportation_semantic_ten.png"" class=""exp-image"">
                    <div class=""question-area""></div> 
                </div>","null","","","","","","","","","","","",""
"","","","","","html-button-response","57","226942","0.0-57.0","FB469A0CC87245F09B147031601ECA2A","019d6b89-0aa7-7cd4-83b9-c6824ab9f2b6","019d6b6d-d11f-7233-9b95-7a424dbf389f","","553","
                <div class=""stimulus-container"">
                    <img src=""semantic_sequence_notimeline/transportation_semantic/transportation_semantic_ten.png"" class=""exp-image"">
                    <div class=""question-area"">
                        <p style=""font-size: 20px; font-weight: bold; margin: 0;"">Is there a person in this image?</p>
                    </div>
                </div>","1","main_experiment_trial","ten","transportation_semantic","semantic_sequence_notimeline","chronological","","","","","","",""
"","","","","","html-keyboard-response","58","231943","0.0-58.0","FB469A0CC87245F09B147031601ECA2A","019d6b89-0aa7-7cd4-83b9-c6824ab9f2b6","019d6b6d-d11f-7233-9b95-7a424dbf389f","","null","<div style=""background-color: white; width: 100vw; height: 100vh;""></div>","null","","","","","","","","","","","",""
"","","","","","html-keyboard-response","59","236951","0.0-59.0","FB469A0CC87245F09B147031601ECA2A","019d6b89-0aa7-7cd4-83b9-c6824ab9f2b6","019d6b6d-d11f-7233-9b95-7a424dbf389f","","null","
                <div class=""stimulus-container"">
                    <img src=""images/causal_sequence/package_causal/package_causal_1.png"" class=""exp-image"">
                    <div class=""question-area""></div> 
                </div>","null","","","","","","","","","","","",""
"","","","","","html-button-response","60","237686","0.0-60.0","FB469A0CC87245F09B147031601ECA2A","019d6b89-0aa7-7cd4-83b9-c6824ab9f2b6","019d6b6d-d11f-7233-9b95-7a424dbf389f","","734","
                <div class=""stimulus-container"">
                    <img src=""images/causal_sequence/package_causal/package_causal_1.png"" class=""exp-image"">
                    <div class=""question-area"">
                        <p style=""font-size: 20px; font-weight: bold; margin: 0;"">Is there a person in this image?</p>
                    </div>
                </div>","0","main_experiment_trial","1","package_causal","causal_sequence","chronological","","","","","","",""
"","","","","","html-keyboard-response","61","242701","0.0-61.0","FB469A0CC87245F09B147031601ECA2A","019d6b89-0aa7-7cd4-83b9-c6824ab9f2b6","019d6b6d-d11f-7233-9b95-7a424dbf389f","","null","
                <div class=""stimulus-container"">
                    <img src=""images/causal_sequence/package_causal/package_causal_2.png"" class=""exp-image"">
                    <div class=""question-area""></div> 
                </div>","null","","","","","","","","","","","",""
"","","","","","html-button-response","62","243957","0.0-62.0","FB469A0CC87245F09B147031601ECA2A","019d6b89-0aa7-7cd4-83b9-c6824ab9f2b6","019d6b6d-d11f-7233-9b95-7a424dbf389f","","1255","
                <div class=""stimulus-container"">
                    <img src=""images/causal_sequence/package_causal/package_causal_2.png"" class=""exp-image"">
                    <div class=""question-area"">
                        <p style=""font-size: 20px; font-weight: bold; margin: 0;"">Is there a person in this image?</p>
                    </div>
                </div>","0","main_experiment_trial","2","package_causal","causal_sequence","chronological","","","","","","",""
"","","","","","html-keyboard-response","63","248970","0.0-63.0","FB469A0CC87245F09B147031601ECA2A","019d6b89-0aa7-7cd4-83b9-c6824ab9f2b6","019d6b6d-d11f-7233-9b95-7a424dbf389f","","null","
                <div class=""stimulus-container"">
                    <img src=""images/causal_sequence/package_causal/package_causal_3.png"" class=""exp-image"">
                    <div class=""question-area""></div> 
                </div>","null","","","","","","","","","","","",""
"","","","","","html-button-response","64","249576","0.0-64.0","FB469A0CC87245F09B147031601ECA2A","019d6b89-0aa7-7cd4-83b9-c6824ab9f2b6","019d6b6d-d11f-7233-9b95-7a424dbf389f","","606","
                <div class=""stimulus-container"">
                    <img src=""images/causal_sequence/package_causal/package_causal_3.png"" class=""exp-image"">
                    <div class=""question-area"">
                        <p style=""font-size: 20px; font-weight: bold; margin: 0;"">Is there a person in this image?</p>
                    </div>
                </div>","0","main_experiment_trial","3","package_causal","causal_sequence","chronological","","","","","","",""
"","","","","","html-keyboard-response","65","254584","0.0-65.0","FB469A0CC87245F09B147031601ECA2A","019d6b89-0aa7-7cd4-83b9-c6824ab9f2b6","019d6b6d-d11f-7233-9b95-7a424dbf389f","","null","
                <div class=""stimulus-container"">
                    <img src=""images/causal_sequence/package_causal/package_causal_4.png"" class=""exp-image"">
                    <div class=""question-area""></div> 
                </div>","null","","","","","","","","","","","",""
"","","","","","html-button-response","66","255944","0.0-66.0","FB469A0CC87245F09B147031601ECA2A","019d6b89-0aa7-7cd4-83b9-c6824ab9f2b6","019d6b6d-d11f-7233-9b95-7a424dbf389f","","1359","
                <div class=""stimulus-container"">
                    <img src=""images/causal_sequence/package_causal/package_causal_4.png"" class=""exp-image"">
                    <div class=""question-area"">
                        <p style=""font-size: 20px; font-weight: bold; margin: 0;"">Is there a person in this image?</p>
                    </div>
                </div>","1","main_experiment_trial","4","package_causal","causal_sequence","chronological","","","","","","",""
"","","","","","html-keyboard-response","67","260960","0.0-67.0","FB469A0CC87245F09B147031601ECA2A","019d6b89-0aa7-7cd4-83b9-c6824ab9f2b6","019d6b6d-d11f-7233-9b95-7a424dbf389f","","null","
                <div class=""stimulus-container"">
                    <img src=""images/causal_sequence/package_causal/package_causal_5.png"" class=""exp-image"">
                    <div class=""question-area""></div> 
                </div>","null","","","","","","","","","","","",""
"","","","","","html-button-response","68","261707","0.0-68.0","FB469A0CC87245F09B147031601ECA2A","019d6b89-0aa7-7cd4-83b9-c6824ab9f2b6","019d6b6d-d11f-7233-9b95-7a424dbf389f","","747","
                <div class=""stimulus-container"">
                    <img src=""images/causal_sequence/package_causal/package_causal_5.png"" class=""exp-image"">
                    <div class=""question-area"">
                        <p style=""font-size: 20px; font-weight: bold; margin: 0;"">Is there a person in this image?</p>
                    </div>
                </div>","0","main_experiment_trial","5","package_causal","causal_sequence","chronological","","","","","","",""
"","","","","","html-keyboard-response","69","266709","0.0-69.0","FB469A0CC87245F09B147031601ECA2A","019d6b89-0aa7-7cd4-83b9-c6824ab9f2b6","019d6b6d-d11f-7233-9b95-7a424dbf389f","","null","
                <div class=""stimulus-container"">
                    <img src=""images/causal_sequence/package_causal/package_causal_6.png"" class=""exp-image"">
                    <div class=""question-area""></div> 
                </div>","null","","","","","","","","","","","",""
"","","","","","html-button-response","70","267374","0.0-70.0","FB469A0CC87245F09B147031601ECA2A","019d6b89-0aa7-7cd4-83b9-c6824ab9f2b6","019d6b6d-d11f-7233-9b95-7a424dbf389f","","665","
                <div class=""stimulus-container"">
                    <img src=""images/causal_sequence/package_causal/package_causal_6.png"" class=""exp-image"">
                    <div class=""question-area"">
                        <p style=""font-size: 20px; font-weight: bold; margin: 0;"">Is there a person in this image?</p>
                    </div>
                </div>","0","main_experiment_trial","6","package_causal","causal_sequence","chronological","","","","","","",""
"","","","","","html-keyboard-response","71","272376","0.0-71.0","FB469A0CC87245F09B147031601ECA2A","019d6b89-0aa7-7cd4-83b9-c6824ab9f2b6","019d6b6d-d11f-7233-9b95-7a424dbf389f","","null","
                <div class=""stimulus-container"">
                    <img src=""images/causal_sequence/package_causal/package_causal_7.png"" class=""exp-image"">
                    <div class=""question-area""></div> 
                </div>","null","","","","","","","","","","","",""
"","","","","","html-button-response","72","273516","0.0-72.0","FB469A0CC87245F09B147031601ECA2A","019d6b89-0aa7-7cd4-83b9-c6824ab9f2b6","019d6b6d-d11f-7233-9b95-7a424dbf389f","","1140","
                <div class=""stimulus-container"">
                    <img src=""images/causal_sequence/package_causal/package_causal_7.png"" class=""exp-image"">
                    <div class=""question-area"">
                        <p style=""font-size: 20px; font-weight: bold; margin: 0;"">Is there a person in this image?</p>
                    </div>
                </div>","0","main_experiment_trial","7","package_causal","causal_sequence","chronological","","","","","","",""
"","","","","","html-keyboard-response","73","278521","0.0-73.0","FB469A0CC87245F09B147031601ECA2A","019d6b89-0aa7-7cd4-83b9-c6824ab9f2b6","019d6b6d-d11f-7233-9b95-7a424dbf389f","","null","
                <div class=""stimulus-container"">
                    <img src=""images/causal_sequence/package_causal/package_causal_8.png"" class=""exp-image"">
                    <div class=""question-area""></div> 
                </div>","null","","","","","","","","","","","",""
"","","","","","html-button-response","74","279449","0.0-74.0","FB469A0CC87245F09B147031601ECA2A","019d6b89-0aa7-7cd4-83b9-c6824ab9f2b6","019d6b6d-d11f-7233-9b95-7a424dbf389f","","927","
                <div class=""stimulus-container"">
                    <img src=""images/causal_sequence/package_causal/package_causal_8.png"" class=""exp-image"">
                    <div class=""question-area"">
                        <p style=""font-size: 20px; font-weight: bold; margin: 0;"">Is there a person in this image?</p>
                    </div>
                </div>","0","main_experiment_trial","8","package_causal","causal_sequence","chronological","","","","","","",""
"","","","","","html-keyboard-response","75","284461","0.0-75.0","FB469A0CC87245F09B147031601ECA2A","019d6b89-0aa7-7cd4-83b9-c6824ab9f2b6","019d6b6d-d11f-7233-9b95-7a424dbf389f","","null","
                <div class=""stimulus-container"">
                    <img src=""images/causal_sequence/package_causal/package_causal_9.png"" class=""exp-image"">
                    <div class=""question-area""></div> 
                </div>","null","","","","","","","","","","","",""
"","","","","","html-button-response","76","285322","0.0-76.0","FB469A0CC87245F09B147031601ECA2A","019d6b89-0aa7-7cd4-83b9-c6824ab9f2b6","019d6b6d-d11f-7233-9b95-7a424dbf389f","","860","
                <div class=""stimulus-container"">
                    <img src=""images/causal_sequence/package_causal/package_causal_9.png"" class=""exp-image"">
                    <div class=""question-area"">
                        <p style=""font-size: 20px; font-weight: bold; margin: 0;"">Is there a person in this image?</p>
                    </div>
                </div>","0","main_experiment_trial","9","package_causal","causal_sequence","chronological","","","","","","",""
"","","","","","html-keyboard-response","77","290323","0.0-77.0","FB469A0CC87245F09B147031601ECA2A","019d6b89-0aa7-7cd4-83b9-c6824ab9f2b6","019d6b6d-d11f-7233-9b95-7a424dbf389f","","null","
                <div class=""stimulus-container"">
                    <img src=""images/causal_sequence/package_causal/package_causal_ten.png"" class=""exp-image"">
                    <div class=""question-area""></div> 
                </div>","null","","","","","","","","","","","",""
"","","","","","html-button-response","78","291209","0.0-78.0","FB469A0CC87245F09B147031601ECA2A","019d6b89-0aa7-7cd4-83b9-c6824ab9f2b6","019d6b6d-d11f-7233-9b95-7a424dbf389f","","885","
                <div class=""stimulus-container"">
                    <img src=""images/causal_sequence/package_causal/package_causal_ten.png"" class=""exp-image"">
                    <div class=""question-area"">
                        <p style=""font-size: 20px; font-weight: bold; margin: 0;"">Is there a person in this image?</p>
                    </div>
                </div>","0","main_experiment_trial","ten","package_causal","causal_sequence","chronological","","","","","","",""
"","","","","","html-keyboard-response","79","296220","0.0-79.0","FB469A0CC87245F09B147031601ECA2A","019d6b89-0aa7-7cd4-83b9-c6824ab9f2b6","019d6b6d-d11f-7233-9b95-7a424dbf389f","","null","<div style=""background-color: white; width: 100vw; height: 100vh;""></div>","null","","","","","","","","","","","",""
"","","","","","html-keyboard-response","80","301221","0.0-80.0","FB469A0CC87245F09B147031601ECA2A","019d6b89-0aa7-7cd4-83b9-c6824ab9f2b6","019d6b6d-d11f-7233-9b95-7a424dbf389f","","null","
                <div class=""stimulus-container"">
                    <img src=""images/causal_sequence/museum_causal/museum_causal_1.png"" class=""exp-image"">
                    <div class=""question-area""></div> 
                </div>","null","","","","","","","","","","","",""
"","","","","","html-button-response","81","302593","0.0-81.0","FB469A0CC87245F09B147031601ECA2A","019d6b89-0aa7-7cd4-83b9-c6824ab9f2b6","019d6b6d-d11f-7233-9b95-7a424dbf389f","","1371","
                <div class=""stimulus-container"">
                    <img src=""images/causal_sequence/museum_causal/museum_causal_1.png"" class=""exp-image"">
                    <div class=""question-area"">
                        <p style=""font-size: 20px; font-weight: bold; margin: 0;"">Is there a person in this image?</p>
                    </div>
                </div>","0","main_experiment_trial","1","museum_causal","causal_sequence","chronological","","","","","","",""
"","","","","","html-keyboard-response","82","307593","0.0-82.0","FB469A0CC87245F09B147031601ECA2A","019d6b89-0aa7-7cd4-83b9-c6824ab9f2b6","019d6b6d-d11f-7233-9b95-7a424dbf389f","","null","
                <div class=""stimulus-container"">
                    <img src=""images/causal_sequence/museum_causal/museum_causal_2.png"" class=""exp-image"">
                    <div class=""question-area""></div> 
                </div>","null","","","","","","","","","","","",""
"","","","","","html-button-response","83","308876","0.0-83.0","FB469A0CC87245F09B147031601ECA2A","019d6b89-0aa7-7cd4-83b9-c6824ab9f2b6","019d6b6d-d11f-7233-9b95-7a424dbf389f","","1282","
                <div class=""stimulus-container"">
                    <img src=""images/causal_sequence/museum_causal/museum_causal_2.png"" class=""exp-image"">
                    <div class=""question-area"">
                        <p style=""font-size: 20px; font-weight: bold; margin: 0;"">Is there a person in this image?</p>
                    </div>
                </div>","0","main_experiment_trial","2","museum_causal","causal_sequence","chronological","","","","","","",""
"","","","","","html-keyboard-response","84","313878","0.0-84.0","FB469A0CC87245F09B147031601ECA2A","019d6b89-0aa7-7cd4-83b9-c6824ab9f2b6","019d6b6d-d11f-7233-9b95-7a424dbf389f","","null","
                <div class=""stimulus-container"">
                    <img src=""images/causal_sequence/museum_causal/museum_causal_3.png"" class=""exp-image"">
                    <div class=""question-area""></div> 
                </div>","null","","","","","","","","","","","",""
"","","","","","html-button-response","85","314698","0.0-85.0","FB469A0CC87245F09B147031601ECA2A","019d6b89-0aa7-7cd4-83b9-c6824ab9f2b6","019d6b6d-d11f-7233-9b95-7a424dbf389f","","819","
                <div class=""stimulus-container"">
                    <img src=""images/causal_sequence/museum_causal/museum_causal_3.png"" class=""exp-image"">
                    <div class=""question-area"">
                        <p style=""font-size: 20px; font-weight: bold; margin: 0;"">Is there a person in this image?</p>
                    </div>
                </div>","0","main_experiment_trial","3","museum_causal","causal_sequence","chronological","","","","","","",""
"","","","","","html-keyboard-response","86","319701","0.0-86.0","FB469A0CC87245F09B147031601ECA2A","019d6b89-0aa7-7cd4-83b9-c6824ab9f2b6","019d6b6d-d11f-7233-9b95-7a424dbf389f","","null","
                <div class=""stimulus-container"">
                    <img src=""images/causal_sequence/museum_causal/museum_causal_4.png"" class=""exp-image"">
                    <div class=""question-area""></div> 
                </div>","null","","","","","","","","","","","",""
"","","","","","html-button-response","87","320829","0.0-87.0","FB469A0CC87245F09B147031601ECA2A","019d6b89-0aa7-7cd4-83b9-c6824ab9f2b6","019d6b6d-d11f-7233-9b95-7a424dbf389f","","1127","
                <div class=""stimulus-container"">
                    <img src=""images/causal_sequence/museum_causal/museum_causal_4.png"" class=""exp-image"">
                    <div class=""question-area"">
                        <p style=""font-size: 20px; font-weight: bold; margin: 0;"">Is there a person in this image?</p>
                    </div>
                </div>","1","main_experiment_trial","4","museum_causal","causal_sequence","chronological","","","","","","",""
"","","","","","html-keyboard-response","88","325830","0.0-88.0","FB469A0CC87245F09B147031601ECA2A","019d6b89-0aa7-7cd4-83b9-c6824ab9f2b6","019d6b6d-d11f-7233-9b95-7a424dbf389f","","null","
                <div class=""stimulus-container"">
                    <img src=""images/causal_sequence/museum_causal/museum_causal_5.png"" class=""exp-image"">
                    <div class=""question-area""></div> 
                </div>","null","","","","","","","","","","","",""
"","","","","","html-button-response","89","326505","0.0-89.0","FB469A0CC87245F09B147031601ECA2A","019d6b89-0aa7-7cd4-83b9-c6824ab9f2b6","019d6b6d-d11f-7233-9b95-7a424dbf389f","","674","
                <div class=""stimulus-container"">
                    <img src=""images/causal_sequence/museum_causal/museum_causal_5.png"" class=""exp-image"">
                    <div class=""question-area"">
                        <p style=""font-size: 20px; font-weight: bold; margin: 0;"">Is there a person in this image?</p>
                    </div>
                </div>","0","main_experiment_trial","5","museum_causal","causal_sequence","chronological","","","","","","",""
"","","","","","html-keyboard-response","90","331509","0.0-90.0","FB469A0CC87245F09B147031601ECA2A","019d6b89-0aa7-7cd4-83b9-c6824ab9f2b6","019d6b6d-d11f-7233-9b95-7a424dbf389f","","null","
                <div class=""stimulus-container"">
                    <img src=""images/causal_sequence/museum_causal/museum_causal_6.png"" class=""exp-image"">
                    <div class=""question-area""></div> 
                </div>","null","","","","","","","","","","","",""
"","","","","","html-button-response","91","331871","0.0-91.0","FB469A0CC87245F09B147031601ECA2A","019d6b89-0aa7-7cd4-83b9-c6824ab9f2b6","019d6b6d-d11f-7233-9b95-7a424dbf389f","","361","
                <div class=""stimulus-container"">
                    <img src=""images/causal_sequence/museum_causal/museum_causal_6.png"" class=""exp-image"">
                    <div class=""question-area"">
                        <p style=""font-size: 20px; font-weight: bold; margin: 0;"">Is there a person in this image?</p>
                    </div>
                </div>","0","main_experiment_trial","6","museum_causal","causal_sequence","chronological","","","","","","",""
"","","","","","html-keyboard-response","92","336878","0.0-92.0","FB469A0CC87245F09B147031601ECA2A","019d6b89-0aa7-7cd4-83b9-c6824ab9f2b6","019d6b6d-d11f-7233-9b95-7a424dbf389f","","null","
                <div class=""stimulus-container"">
                    <img src=""images/causal_sequence/museum_causal/museum_causal_7.png"" class=""exp-image"">
                    <div class=""question-area""></div> 
                </div>","null","","","","","","","","","","","",""
"","","","","","html-button-response","93","338991","0.0-93.0","FB469A0CC87245F09B147031601ECA2A","019d6b89-0aa7-7cd4-83b9-c6824ab9f2b6","019d6b6d-d11f-7233-9b95-7a424dbf389f","","2112","
                <div class=""stimulus-container"">
                    <img src=""images/causal_sequence/museum_causal/museum_causal_7.png"" class=""exp-image"">
                    <div class=""question-area"">
                        <p style=""font-size: 20px; font-weight: bold; margin: 0;"">Is there a person in this image?</p>
                    </div>
                </div>","1","main_experiment_trial","7","museum_causal","causal_sequence","chronological","","","","","","",""
"","","","","","html-keyboard-response","94","343992","0.0-94.0","FB469A0CC87245F09B147031601ECA2A","019d6b89-0aa7-7cd4-83b9-c6824ab9f2b6","019d6b6d-d11f-7233-9b95-7a424dbf389f","","null","
                <div class=""stimulus-container"">
                    <img src=""images/causal_sequence/museum_causal/museum_causal_8.png"" class=""exp-image"">
                    <div class=""question-area""></div> 
                </div>","null","","","","","","","","","","","",""
"","","","","","html-button-response","95","344761","0.0-95.0","FB469A0CC87245F09B147031601ECA2A","019d6b89-0aa7-7cd4-83b9-c6824ab9f2b6","019d6b6d-d11f-7233-9b95-7a424dbf389f","","768","
                <div class=""stimulus-container"">
                    <img src=""images/causal_sequence/museum_causal/museum_causal_8.png"" class=""exp-image"">
                    <div class=""question-area"">
                        <p style=""font-size: 20px; font-weight: bold; margin: 0;"">Is there a person in this image?</p>
                    </div>
                </div>","0","main_experiment_trial","8","museum_causal","causal_sequence","chronological","","","","","","",""
"","","","","","html-keyboard-response","96","349777","0.0-96.0","FB469A0CC87245F09B147031601ECA2A","019d6b89-0aa7-7cd4-83b9-c6824ab9f2b6","019d6b6d-d11f-7233-9b95-7a424dbf389f","","null","
                <div class=""stimulus-container"">
                    <img src=""images/causal_sequence/museum_causal/museum_causal_9.png"" class=""exp-image"">
                    <div class=""question-area""></div> 
                </div>","null","","","","","","","","","","","",""
"","","","","","html-button-response","97","350973","0.0-97.0","FB469A0CC87245F09B147031601ECA2A","019d6b89-0aa7-7cd4-83b9-c6824ab9f2b6","019d6b6d-d11f-7233-9b95-7a424dbf389f","","1195","
                <div class=""stimulus-container"">
                    <img src=""images/causal_sequence/museum_causal/museum_causal_9.png"" class=""exp-image"">
                    <div class=""question-area"">
                        <p style=""font-size: 20px; font-weight: bold; margin: 0;"">Is there a person in this image?</p>
                    </div>
                </div>","1","main_experiment_trial","9","museum_causal","causal_sequence","chronological","","","","","","",""
"","","","","","html-keyboard-response","98","355974","0.0-98.0","FB469A0CC87245F09B147031601ECA2A","019d6b89-0aa7-7cd4-83b9-c6824ab9f2b6","019d6b6d-d11f-7233-9b95-7a424dbf389f","","null","
                <div class=""stimulus-container"">
                    <img src=""images/causal_sequence/museum_causal/museum_causal_ten.png"" class=""exp-image"">
                    <div class=""question-area""></div> 
                </div>","null","","","","","","","","","","","",""
"","","","","","html-button-response","99","357355","0.0-99.0","FB469A0CC87245F09B147031601ECA2A","019d6b89-0aa7-7cd4-83b9-c6824ab9f2b6","019d6b6d-d11f-7233-9b95-7a424dbf389f","","1381","
                <div class=""stimulus-container"">
                    <img src=""images/causal_sequence/museum_causal/museum_causal_ten.png"" class=""exp-image"">
                    <div class=""question-area"">
                        <p style=""font-size: 20px; font-weight: bold; margin: 0;"">Is there a person in this image?</p>
                    </div>
                </div>","0","main_experiment_trial","ten","museum_causal","causal_sequence","chronological","","","","","","",""
"","","","","","html-keyboard-response","100","362362","0.0-100.0","FB469A0CC87245F09B147031601ECA2A","019d6b89-0aa7-7cd4-83b9-c6824ab9f2b6","019d6b6d-d11f-7233-9b95-7a424dbf389f","","null","<div style=""background-color: white; width: 100vw; height: 100vh;""></div>","null","","","","","","","","","","","",""
"","","","","","html-keyboard-response","101","367377","0.0-101.0","FB469A0CC87245F09B147031601ECA2A","019d6b89-0aa7-7cd4-83b9-c6824ab9f2b6","019d6b6d-d11f-7233-9b95-7a424dbf389f","","null","
                <div class=""stimulus-container"">
                    <img src=""semantic_sequence_notimeline/household_objects_semantic/household_objects_semantic_1.png"" class=""exp-image"">
                    <div class=""question-area""></div> 
                </div>","null","","","","","","","","","","","",""
"","","","","","html-button-response","102","368990","0.0-102.0","FB469A0CC87245F09B147031601ECA2A","019d6b89-0aa7-7cd4-83b9-c6824ab9f2b6","019d6b6d-d11f-7233-9b95-7a424dbf389f","","1612","
                <div class=""stimulus-container"">
                    <img src=""semantic_sequence_notimeline/household_objects_semantic/household_objects_semantic_1.png"" class=""exp-image"">
                    <div class=""question-area"">
                        <p style=""font-size: 20px; font-weight: bold; margin: 0;"">Is there a person in this image?</p>
                    </div>
                </div>","1","main_experiment_trial","1","household_objects_semantic","semantic_sequence_notimeline","chronological","","","","","","",""
"","","","","","html-keyboard-response","103","373990","0.0-103.0","FB469A0CC87245F09B147031601ECA2A","019d6b89-0aa7-7cd4-83b9-c6824ab9f2b6","019d6b6d-d11f-7233-9b95-7a424dbf389f","","null","
                <div class=""stimulus-container"">
                    <img src=""semantic_sequence_notimeline/household_objects_semantic/household_objects_semantic_2.png"" class=""exp-image"">
                    <div class=""question-area""></div> 
                </div>","null","","","","","","","","","","","",""
"","","","","","html-button-response","104","375131","0.0-104.0","FB469A0CC87245F09B147031601ECA2A","019d6b89-0aa7-7cd4-83b9-c6824ab9f2b6","019d6b6d-d11f-7233-9b95-7a424dbf389f","","1141","
                <div class=""stimulus-container"">
                    <img src=""semantic_sequence_notimeline/household_objects_semantic/household_objects_semantic_2.png"" class=""exp-image"">
                    <div class=""question-area"">
                        <p style=""font-size: 20px; font-weight: bold; margin: 0;"">Is there a person in this image?</p>
                    </div>
                </div>","1","main_experiment_trial","2","household_objects_semantic","semantic_sequence_notimeline","chronological","","","","","","",""
"","","","","","html-keyboard-response","105","380139","0.0-105.0","FB469A0CC87245F09B147031601ECA2A","019d6b89-0aa7-7cd4-83b9-c6824ab9f2b6","019d6b6d-d11f-7233-9b95-7a424dbf389f","","null","
                <div class=""stimulus-container"">
                    <img src=""semantic_sequence_notimeline/household_objects_semantic/household_objects_semantic_3.png"" class=""exp-image"">
                    <div class=""question-area""></div> 
                </div>","null","","","","","","","","","","","",""
"","","","","","html-button-response","106","380784","0.0-106.0","FB469A0CC87245F09B147031601ECA2A","019d6b89-0aa7-7cd4-83b9-c6824ab9f2b6","019d6b6d-d11f-7233-9b95-7a424dbf389f","","645","
                <div class=""stimulus-container"">
                    <img src=""semantic_sequence_notimeline/household_objects_semantic/household_objects_semantic_3.png"" class=""exp-image"">
                    <div class=""question-area"">
                        <p style=""font-size: 20px; font-weight: bold; margin: 0;"">Is there a person in this image?</p>
                    </div>
                </div>","1","main_experiment_trial","3","household_objects_semantic","semantic_sequence_notimeline","chronological","","","","","","",""
"","","","","","html-keyboard-response","107","385789","0.0-107.0","FB469A0CC87245F09B147031601ECA2A","019d6b89-0aa7-7cd4-83b9-c6824ab9f2b6","019d6b6d-d11f-7233-9b95-7a424dbf389f","","null","
                <div class=""stimulus-container"">
                    <img src=""semantic_sequence_notimeline/household_objects_semantic/household_objects_semantic_4.png"" class=""exp-image"">
                    <div class=""question-area""></div> 
                </div>","null","","","","","","","","","","","",""
"","","","","","html-button-response","108","386158","0.0-108.0","FB469A0CC87245F09B147031601ECA2A","019d6b89-0aa7-7cd4-83b9-c6824ab9f2b6","019d6b6d-d11f-7233-9b95-7a424dbf389f","","369","
                <div class=""stimulus-container"">
                    <img src=""semantic_sequence_notimeline/household_objects_semantic/household_objects_semantic_4.png"" class=""exp-image"">
                    <div class=""question-area"">
                        <p style=""font-size: 20px; font-weight: bold; margin: 0;"">Is there a person in this image?</p>
                    </div>
                </div>","1","main_experiment_trial","4","household_objects_semantic","semantic_sequence_notimeline","chronological","","","","","","",""
"","","","","","html-keyboard-response","109","391163","0.0-109.0","FB469A0CC87245F09B147031601ECA2A","019d6b89-0aa7-7cd4-83b9-c6824ab9f2b6","019d6b6d-d11f-7233-9b95-7a424dbf389f","","null","
                <div class=""stimulus-container"">
                    <img src=""semantic_sequence_notimeline/household_objects_semantic/household_objects_semantic_5.png"" class=""exp-image"">
                    <div class=""question-area""></div> 
                </div>","null","","","","","","","","","","","",""
"","","","","","html-button-response","110","391819","0.0-110.0","FB469A0CC87245F09B147031601ECA2A","019d6b89-0aa7-7cd4-83b9-c6824ab9f2b6","019d6b6d-d11f-7233-9b95-7a424dbf389f","","656","
                <div class=""stimulus-container"">
                    <img src=""semantic_sequence_notimeline/household_objects_semantic/household_objects_semantic_5.png"" class=""exp-image"">
                    <div class=""question-area"">
                        <p style=""font-size: 20px; font-weight: bold; margin: 0;"">Is there a person in this image?</p>
                    </div>
                </div>","1","main_experiment_trial","5","household_objects_semantic","semantic_sequence_notimeline","chronological","","","","","","",""
"","","","","","html-keyboard-response","111","396821","0.0-111.0","FB469A0CC87245F09B147031601ECA2A","019d6b89-0aa7-7cd4-83b9-c6824ab9f2b6","019d6b6d-d11f-7233-9b95-7a424dbf389f","","null","
                <div class=""stimulus-container"">
                    <img src=""semantic_sequence_notimeline/household_objects_semantic/household_objects_semantic_6.png"" class=""exp-image"">
                    <div class=""question-area""></div> 
                </div>","null","","","","","","","","","","","",""
"","","","","","html-button-response","112","397721","0.0-112.0","FB469A0CC87245F09B147031601ECA2A","019d6b89-0aa7-7cd4-83b9-c6824ab9f2b6","019d6b6d-d11f-7233-9b95-7a424dbf389f","","899","
                <div class=""stimulus-container"">
                    <img src=""semantic_sequence_notimeline/household_objects_semantic/household_objects_semantic_6.png"" class=""exp-image"">
                    <div class=""question-area"">
                        <p style=""font-size: 20px; font-weight: bold; margin: 0;"">Is there a person in this image?</p>
                    </div>
                </div>","1","main_experiment_trial","6","household_objects_semantic","semantic_sequence_notimeline","chronological","","","","","","",""
"","","","","","html-keyboard-response","113","402722","0.0-113.0","FB469A0CC87245F09B147031601ECA2A","019d6b89-0aa7-7cd4-83b9-c6824ab9f2b6","019d6b6d-d11f-7233-9b95-7a424dbf389f","","null","
                <div class=""stimulus-container"">
                    <img src=""semantic_sequence_notimeline/household_objects_semantic/household_objects_semantic_7.png"" class=""exp-image"">
                    <div class=""question-area""></div> 
                </div>","null","","","","","","","","","","","",""
"","","","","","html-button-response","114","403548","0.0-114.0","FB469A0CC87245F09B147031601ECA2A","019d6b89-0aa7-7cd4-83b9-c6824ab9f2b6","019d6b6d-d11f-7233-9b95-7a424dbf389f","","825","
                <div class=""stimulus-container"">
                    <img src=""semantic_sequence_notimeline/household_objects_semantic/household_objects_semantic_7.png"" class=""exp-image"">
                    <div class=""question-area"">
                        <p style=""font-size: 20px; font-weight: bold; margin: 0;"">Is there a person in this image?</p>
                    </div>
                </div>","1","main_experiment_trial","7","household_objects_semantic","semantic_sequence_notimeline","chronological","","","","","","",""
"","","","","","html-keyboard-response","115","408549","0.0-115.0","FB469A0CC87245F09B147031601ECA2A","019d6b89-0aa7-7cd4-83b9-c6824ab9f2b6","019d6b6d-d11f-7233-9b95-7a424dbf389f","","null","
                <div class=""stimulus-container"">
                    <img src=""semantic_sequence_notimeline/household_objects_semantic/household_objects_semantic_8.png"" class=""exp-image"">
                    <div class=""question-area""></div> 
                </div>","null","","","","","","","","","","","",""
"","","","","","html-button-response","116","409317","0.0-116.0","FB469A0CC87245F09B147031601ECA2A","019d6b89-0aa7-7cd4-83b9-c6824ab9f2b6","019d6b6d-d11f-7233-9b95-7a424dbf389f","","768","
                <div class=""stimulus-container"">
                    <img src=""semantic_sequence_notimeline/household_objects_semantic/household_objects_semantic_8.png"" class=""exp-image"">
                    <div class=""question-area"">
                        <p style=""font-size: 20px; font-weight: bold; margin: 0;"">Is there a person in this image?</p>
                    </div>
                </div>","1","main_experiment_trial","8","household_objects_semantic","semantic_sequence_notimeline","chronological","","","","","","",""
"","","","","","html-keyboard-response","117","414320","0.0-117.0","FB469A0CC87245F09B147031601ECA2A","019d6b89-0aa7-7cd4-83b9-c6824ab9f2b6","019d6b6d-d11f-7233-9b95-7a424dbf389f","","null","
                <div class=""stimulus-container"">
                    <img src=""semantic_sequence_notimeline/household_objects_semantic/household_objects_semantic_9.png"" class=""exp-image"">
                    <div class=""question-area""></div> 
                </div>","null","","","","","","","","","","","",""
"","","","","","html-button-response","118","414924","0.0-118.0","FB469A0CC87245F09B147031601ECA2A","019d6b89-0aa7-7cd4-83b9-c6824ab9f2b6","019d6b6d-d11f-7233-9b95-7a424dbf389f","","603","
                <div class=""stimulus-container"">
                    <img src=""semantic_sequence_notimeline/household_objects_semantic/household_objects_semantic_9.png"" class=""exp-image"">
                    <div class=""question-area"">
                        <p style=""font-size: 20px; font-weight: bold; margin: 0;"">Is there a person in this image?</p>
                    </div>
                </div>","1","main_experiment_trial","9","household_objects_semantic","semantic_sequence_notimeline","chronological","","","","","","",""
"","","","","","html-keyboard-response","119","419939","0.0-119.0","FB469A0CC87245F09B147031601ECA2A","019d6b89-0aa7-7cd4-83b9-c6824ab9f2b6","019d6b6d-d11f-7233-9b95-7a424dbf389f","","null","
                <div class=""stimulus-container"">
                    <img src=""semantic_sequence_notimeline/household_objects_semantic/household_objects_semantic_ten.png"" class=""exp-image"">
                    <div class=""question-area""></div> 
                </div>","null","","","","","","","","","","","",""
"","","","","","html-button-response","120","420569","0.0-120.0","FB469A0CC87245F09B147031601ECA2A","019d6b89-0aa7-7cd4-83b9-c6824ab9f2b6","019d6b6d-d11f-7233-9b95-7a424dbf389f","","631","
                <div class=""stimulus-container"">
                    <img src=""semantic_sequence_notimeline/household_objects_semantic/household_objects_semantic_ten.png"" class=""exp-image"">
                    <div class=""question-area"">
                        <p style=""font-size: 20px; font-weight: bold; margin: 0;"">Is there a person in this image?</p>
                    </div>
                </div>","1","main_experiment_trial","ten","household_objects_semantic","semantic_sequence_notimeline","chronological","","","","","","",""
"","","","","","html-keyboard-response","121","425570","0.0-121.0","FB469A0CC87245F09B147031601ECA2A","019d6b89-0aa7-7cd4-83b9-c6824ab9f2b6","019d6b6d-d11f-7233-9b95-7a424dbf389f","","null","<div style=""background-color: white; width: 100vw; height: 100vh;""></div>","null","","","","","","","","","","","",""
"","","","","","html-keyboard-response","122","430582","0.0-122.0","FB469A0CC87245F09B147031601ECA2A","019d6b89-0aa7-7cd4-83b9-c6824ab9f2b6","019d6b6d-d11f-7233-9b95-7a424dbf389f","","null","
                <div class=""stimulus-container"">
                    <img src=""images/causal_sequence/saving_a_cat_causal/saving_a_cat_causal_1.png"" class=""exp-image"">
                    <div class=""question-area""></div> 
                </div>","null","","","","","","","","","","","",""
"","","","","","html-button-response","123","431500","0.0-123.0","FB469A0CC87245F09B147031601ECA2A","019d6b89-0aa7-7cd4-83b9-c6824ab9f2b6","019d6b6d-d11f-7233-9b95-7a424dbf389f","","918","
                <div class=""stimulus-container"">
                    <img src=""images/causal_sequence/saving_a_cat_causal/saving_a_cat_causal_1.png"" class=""exp-image"">
                    <div class=""question-area"">
                        <p style=""font-size: 20px; font-weight: bold; margin: 0;"">Is there a person in this image?</p>
                    </div>
                </div>","0","main_experiment_trial","1","saving_a_cat_causal","causal_sequence","chronological","","","","","","",""
"","","","","","html-keyboard-response","124","436502","0.0-124.0","FB469A0CC87245F09B147031601ECA2A","019d6b89-0aa7-7cd4-83b9-c6824ab9f2b6","019d6b6d-d11f-7233-9b95-7a424dbf389f","","null","
                <div class=""stimulus-container"">
                    <img src=""images/causal_sequence/saving_a_cat_causal/saving_a_cat_causal_2.png"" class=""exp-image"">
                    <div class=""question-area""></div> 
                </div>","null","","","","","","","","","","","",""
"","","","","","html-button-response","125","437441","0.0-125.0","FB469A0CC87245F09B147031601ECA2A","019d6b89-0aa7-7cd4-83b9-c6824ab9f2b6","019d6b6d-d11f-7233-9b95-7a424dbf389f","","938","
                <div class=""stimulus-container"">
                    <img src=""images/causal_sequence/saving_a_cat_causal/saving_a_cat_causal_2.png"" class=""exp-image"">
                    <div class=""question-area"">
                        <p style=""font-size: 20px; font-weight: bold; margin: 0;"">Is there a person in this image?</p>
                    </div>
                </div>","1","main_experiment_trial","2","saving_a_cat_causal","causal_sequence","chronological","","","","","","",""
"","","","","","html-keyboard-response","126","442442","0.0-126.0","FB469A0CC87245F09B147031601ECA2A","019d6b89-0aa7-7cd4-83b9-c6824ab9f2b6","019d6b6d-d11f-7233-9b95-7a424dbf389f","","null","
                <div class=""stimulus-container"">
                    <img src=""images/causal_sequence/saving_a_cat_causal/saving_a_cat_causal_3.png"" class=""exp-image"">
                    <div class=""question-area""></div> 
                </div>","null","","","","","","","","","","","",""
"","","","","","html-button-response","127","443000","0.0-127.0","FB469A0CC87245F09B147031601ECA2A","019d6b89-0aa7-7cd4-83b9-c6824ab9f2b6","019d6b6d-d11f-7233-9b95-7a424dbf389f","","558","
                <div class=""stimulus-container"">
                    <img src=""images/causal_sequence/saving_a_cat_causal/saving_a_cat_causal_3.png"" class=""exp-image"">
                    <div class=""question-area"">
                        <p style=""font-size: 20px; font-weight: bold; margin: 0;"">Is there a person in this image?</p>
                    </div>
                </div>","1","main_experiment_trial","3","saving_a_cat_causal","causal_sequence","chronological","","","","","","",""
"","","","","","html-keyboard-response","128","448001","0.0-128.0","FB469A0CC87245F09B147031601ECA2A","019d6b89-0aa7-7cd4-83b9-c6824ab9f2b6","019d6b6d-d11f-7233-9b95-7a424dbf389f","","null","
                <div class=""stimulus-container"">
                    <img src=""images/causal_sequence/saving_a_cat_causal/saving_a_cat_causal_4.png"" class=""exp-image"">
                    <div class=""question-area""></div> 
                </div>","null","","","","","","","","","","","",""
"","","","","","html-button-response","129","448917","0.0-129.0","FB469A0CC87245F09B147031601ECA2A","019d6b89-0aa7-7cd4-83b9-c6824ab9f2b6","019d6b6d-d11f-7233-9b95-7a424dbf389f","","915","
                <div class=""stimulus-container"">
                    <img src=""images/causal_sequence/saving_a_cat_causal/saving_a_cat_causal_4.png"" class=""exp-image"">
                    <div class=""question-area"">
                        <p style=""font-size: 20px; font-weight: bold; margin: 0;"">Is there a person in this image?</p>
                    </div>
                </div>","0","main_experiment_trial","4","saving_a_cat_causal","causal_sequence","chronological","","","","","","",""
"","","","","","html-keyboard-response","130","453927","0.0-130.0","FB469A0CC87245F09B147031601ECA2A","019d6b89-0aa7-7cd4-83b9-c6824ab9f2b6","019d6b6d-d11f-7233-9b95-7a424dbf389f","","null","
                <div class=""stimulus-container"">
                    <img src=""images/causal_sequence/saving_a_cat_causal/saving_a_cat_causal_5.png"" class=""exp-image"">
                    <div class=""question-area""></div> 
                </div>","null","","","","","","","","","","","",""
"","","","","","html-button-response","131","454597","0.0-131.0","FB469A0CC87245F09B147031601ECA2A","019d6b89-0aa7-7cd4-83b9-c6824ab9f2b6","019d6b6d-d11f-7233-9b95-7a424dbf389f","","670","
                <div class=""stimulus-container"">
                    <img src=""images/causal_sequence/saving_a_cat_causal/saving_a_cat_causal_5.png"" class=""exp-image"">
                    <div class=""question-area"">
                        <p style=""font-size: 20px; font-weight: bold; margin: 0;"">Is there a person in this image?</p>
                    </div>
                </div>","0","main_experiment_trial","5","saving_a_cat_causal","causal_sequence","chronological","","","","","","",""
"","","","","","html-keyboard-response","132","459598","0.0-132.0","FB469A0CC87245F09B147031601ECA2A","019d6b89-0aa7-7cd4-83b9-c6824ab9f2b6","019d6b6d-d11f-7233-9b95-7a424dbf389f","","null","
                <div class=""stimulus-container"">
                    <img src=""images/causal_sequence/saving_a_cat_causal/saving_a_cat_causal_6.png"" class=""exp-image"">
                    <div class=""question-area""></div> 
                </div>","null","","","","","","","","","","","",""
"","","","","","html-button-response","133","460361","0.0-133.0","FB469A0CC87245F09B147031601ECA2A","019d6b89-0aa7-7cd4-83b9-c6824ab9f2b6","019d6b6d-d11f-7233-9b95-7a424dbf389f","","763","
                <div class=""stimulus-container"">
                    <img src=""images/causal_sequence/saving_a_cat_causal/saving_a_cat_causal_6.png"" class=""exp-image"">
                    <div class=""question-area"">
                        <p style=""font-size: 20px; font-weight: bold; margin: 0;"">Is there a person in this image?</p>
                    </div>
                </div>","0","main_experiment_trial","6","saving_a_cat_causal","causal_sequence","chronological","","","","","","",""
"","","","","","html-keyboard-response","134","465363","0.0-134.0","FB469A0CC87245F09B147031601ECA2A","019d6b89-0aa7-7cd4-83b9-c6824ab9f2b6","019d6b6d-d11f-7233-9b95-7a424dbf389f","","null","
                <div class=""stimulus-container"">
                    <img src=""images/causal_sequence/saving_a_cat_causal/saving_a_cat_causal_7.png"" class=""exp-image"">
                    <div class=""question-area""></div> 
                </div>","null","","","","","","","","","","","",""
"","","","","","html-button-response","135","466362","0.0-135.0","FB469A0CC87245F09B147031601ECA2A","019d6b89-0aa7-7cd4-83b9-c6824ab9f2b6","019d6b6d-d11f-7233-9b95-7a424dbf389f","","999","
                <div class=""stimulus-container"">
                    <img src=""images/causal_sequence/saving_a_cat_causal/saving_a_cat_causal_7.png"" class=""exp-image"">
                    <div class=""question-area"">
                        <p style=""font-size: 20px; font-weight: bold; margin: 0;"">Is there a person in this image?</p>
                    </div>
                </div>","0","main_experiment_trial","7","saving_a_cat_causal","causal_sequence","chronological","","","","","","",""
"","","","","","html-keyboard-response","136","471372","0.0-136.0","FB469A0CC87245F09B147031601ECA2A","019d6b89-0aa7-7cd4-83b9-c6824ab9f2b6","019d6b6d-d11f-7233-9b95-7a424dbf389f","","null","
                <div class=""stimulus-container"">
                    <img src=""images/causal_sequence/saving_a_cat_causal/saving_a_cat_causal_8.png"" class=""exp-image"">
                    <div class=""question-area""></div> 
                </div>","null","","","","","","","","","","","",""
"","","","","","html-button-response","137","472275","0.0-137.0","FB469A0CC87245F09B147031601ECA2A","019d6b89-0aa7-7cd4-83b9-c6824ab9f2b6","019d6b6d-d11f-7233-9b95-7a424dbf389f","","902","
                <div class=""stimulus-container"">
                    <img src=""images/causal_sequence/saving_a_cat_causal/saving_a_cat_causal_8.png"" class=""exp-image"">
                    <div class=""question-area"">
                        <p style=""font-size: 20px; font-weight: bold; margin: 0;"">Is there a person in this image?</p>
                    </div>
                </div>","0","main_experiment_trial","8","saving_a_cat_causal","causal_sequence","chronological","","","","","","",""
"","","","","","html-keyboard-response","138","477277","0.0-138.0","FB469A0CC87245F09B147031601ECA2A","019d6b89-0aa7-7cd4-83b9-c6824ab9f2b6","019d6b6d-d11f-7233-9b95-7a424dbf389f","","null","
                <div class=""stimulus-container"">
                    <img src=""images/causal_sequence/saving_a_cat_causal/saving_a_cat_causal_9.png"" class=""exp-image"">
                    <div class=""question-area""></div> 
                </div>","null","","","","","","","","","","","",""
"","","","","","html-button-response","139","477835","0.0-139.0","FB469A0CC87245F09B147031601ECA2A","019d6b89-0aa7-7cd4-83b9-c6824ab9f2b6","019d6b6d-d11f-7233-9b95-7a424dbf389f","","558","
                <div class=""stimulus-container"">
                    <img src=""images/causal_sequence/saving_a_cat_causal/saving_a_cat_causal_9.png"" class=""exp-image"">
                    <div class=""question-area"">
                        <p style=""font-size: 20px; font-weight: bold; margin: 0;"">Is there a person in this image?</p>
                    </div>
                </div>","0","main_experiment_trial","9","saving_a_cat_causal","causal_sequence","chronological","","","","","","",""
"","","","","","html-keyboard-response","140","482836","0.0-140.0","FB469A0CC87245F09B147031601ECA2A","019d6b89-0aa7-7cd4-83b9-c6824ab9f2b6","019d6b6d-d11f-7233-9b95-7a424dbf389f","","null","
                <div class=""stimulus-container"">
                    <img src=""images/causal_sequence/saving_a_cat_causal/saving_a_cat_causal_ten.png"" class=""exp-image"">
                    <div class=""question-area""></div> 
                </div>","null","","","","","","","","","","","",""
"","","","","","html-button-response","141","483692","0.0-141.0","FB469A0CC87245F09B147031601ECA2A","019d6b89-0aa7-7cd4-83b9-c6824ab9f2b6","019d6b6d-d11f-7233-9b95-7a424dbf389f","","856","
                <div class=""stimulus-container"">
                    <img src=""images/causal_sequence/saving_a_cat_causal/saving_a_cat_causal_ten.png"" class=""exp-image"">
                    <div class=""question-area"">
                        <p style=""font-size: 20px; font-weight: bold; margin: 0;"">Is there a person in this image?</p>
                    </div>
                </div>","0","main_experiment_trial","ten","saving_a_cat_causal","causal_sequence","chronological","","","","","","",""
"","","","","","html-keyboard-response","142","488706","0.0-142.0","FB469A0CC87245F09B147031601ECA2A","019d6b89-0aa7-7cd4-83b9-c6824ab9f2b6","019d6b6d-d11f-7233-9b95-7a424dbf389f","","null","<div style=""background-color: white; width: 100vw; height: 100vh;""></div>","null","","","","","","","","","","","",""
"","","","","","html-keyboard-response","143","493716","0.0-143.0","FB469A0CC87245F09B147031601ECA2A","019d6b89-0aa7-7cd4-83b9-c6824ab9f2b6","019d6b6d-d11f-7233-9b95-7a424dbf389f","","null","
                <div class=""stimulus-container"">
                    <img src=""semantic_sequence_notimeline/fruits_semantic/fruits_semantic_1.png"" class=""exp-image"">
                    <div class=""question-area""></div> 
                </div>","null","","","","","","","","","","","",""
"","","","","","html-button-response","144","494737","0.0-144.0","FB469A0CC87245F09B147031601ECA2A","019d6b89-0aa7-7cd4-83b9-c6824ab9f2b6","019d6b6d-d11f-7233-9b95-7a424dbf389f","","1021","
                <div class=""stimulus-container"">
                    <img src=""semantic_sequence_notimeline/fruits_semantic/fruits_semantic_1.png"" class=""exp-image"">
                    <div class=""question-area"">
                        <p style=""font-size: 20px; font-weight: bold; margin: 0;"">Is there a person in this image?</p>
                    </div>
                </div>","1","main_experiment_trial","1","fruits_semantic","semantic_sequence_notimeline","chronological","","","","","","",""
"","","","","","html-keyboard-response","145","499739","0.0-145.0","FB469A0CC87245F09B147031601ECA2A","019d6b89-0aa7-7cd4-83b9-c6824ab9f2b6","019d6b6d-d11f-7233-9b95-7a424dbf389f","","null","
                <div class=""stimulus-container"">
                    <img src=""semantic_sequence_notimeline/fruits_semantic/fruits_semantic_2.png"" class=""exp-image"">
                    <div class=""question-area""></div> 
                </div>","null","","","","","","","","","","","",""
"","","","","","html-button-response","146","500622","0.0-146.0","FB469A0CC87245F09B147031601ECA2A","019d6b89-0aa7-7cd4-83b9-c6824ab9f2b6","019d6b6d-d11f-7233-9b95-7a424dbf389f","","883","
                <div class=""stimulus-container"">
                    <img src=""semantic_sequence_notimeline/fruits_semantic/fruits_semantic_2.png"" class=""exp-image"">
                    <div class=""question-area"">
                        <p style=""font-size: 20px; font-weight: bold; margin: 0;"">Is there a person in this image?</p>
                    </div>
                </div>","1","main_experiment_trial","2","fruits_semantic","semantic_sequence_notimeline","chronological","","","","","","",""
"","","","","","html-keyboard-response","147","505625","0.0-147.0","FB469A0CC87245F09B147031601ECA2A","019d6b89-0aa7-7cd4-83b9-c6824ab9f2b6","019d6b6d-d11f-7233-9b95-7a424dbf389f","","null","
                <div class=""stimulus-container"">
                    <img src=""semantic_sequence_notimeline/fruits_semantic/fruits_semantic_3.png"" class=""exp-image"">
                    <div class=""question-area""></div> 
                </div>","null","","","","","","","","","","","",""
"","","","","","html-button-response","148","506311","0.0-148.0","FB469A0CC87245F09B147031601ECA2A","019d6b89-0aa7-7cd4-83b9-c6824ab9f2b6","019d6b6d-d11f-7233-9b95-7a424dbf389f","","686","
                <div class=""stimulus-container"">
                    <img src=""semantic_sequence_notimeline/fruits_semantic/fruits_semantic_3.png"" class=""exp-image"">
                    <div class=""question-area"">
                        <p style=""font-size: 20px; font-weight: bold; margin: 0;"">Is there a person in this image?</p>
                    </div>
                </div>","1","main_experiment_trial","3","fruits_semantic","semantic_sequence_notimeline","chronological","","","","","","",""
"","","","","","html-keyboard-response","149","511324","0.0-149.0","FB469A0CC87245F09B147031601ECA2A","019d6b89-0aa7-7cd4-83b9-c6824ab9f2b6","019d6b6d-d11f-7233-9b95-7a424dbf389f","","null","
                <div class=""stimulus-container"">
                    <img src=""semantic_sequence_notimeline/fruits_semantic/fruits_semantic_4.png"" class=""exp-image"">
                    <div class=""question-area""></div> 
                </div>","null","","","","","","","","","","","",""
"","","","","","html-button-response","150","511826","0.0-150.0","FB469A0CC87245F09B147031601ECA2A","019d6b89-0aa7-7cd4-83b9-c6824ab9f2b6","019d6b6d-d11f-7233-9b95-7a424dbf389f","","502","
                <div class=""stimulus-container"">
                    <img src=""semantic_sequence_notimeline/fruits_semantic/fruits_semantic_4.png"" class=""exp-image"">
                    <div class=""question-area"">
                        <p style=""font-size: 20px; font-weight: bold; margin: 0;"">Is there a person in this image?</p>
                    </div>
                </div>","1","main_experiment_trial","4","fruits_semantic","semantic_sequence_notimeline","chronological","","","","","","",""
"","","","","","html-keyboard-response","151","516839","0.0-151.0","FB469A0CC87245F09B147031601ECA2A","019d6b89-0aa7-7cd4-83b9-c6824ab9f2b6","019d6b6d-d11f-7233-9b95-7a424dbf389f","","null","
                <div class=""stimulus-container"">
                    <img src=""semantic_sequence_notimeline/fruits_semantic/fruits_semantic_5.png"" class=""exp-image"">
                    <div class=""question-area""></div> 
                </div>","null","","","","","","","","","","","",""
"","","","","","html-button-response","152","517266","0.0-152.0","FB469A0CC87245F09B147031601ECA2A","019d6b89-0aa7-7cd4-83b9-c6824ab9f2b6","019d6b6d-d11f-7233-9b95-7a424dbf389f","","426","
                <div class=""stimulus-container"">
                    <img src=""semantic_sequence_notimeline/fruits_semantic/fruits_semantic_5.png"" class=""exp-image"">
                    <div class=""question-area"">
                        <p style=""font-size: 20px; font-weight: bold; margin: 0;"">Is there a person in this image?</p>
                    </div>
                </div>","1","main_experiment_trial","5","fruits_semantic","semantic_sequence_notimeline","chronological","","","","","","",""
"","","","","","html-keyboard-response","153","522282","0.0-153.0","FB469A0CC87245F09B147031601ECA2A","019d6b89-0aa7-7cd4-83b9-c6824ab9f2b6","019d6b6d-d11f-7233-9b95-7a424dbf389f","","null","
                <div class=""stimulus-container"">
                    <img src=""semantic_sequence_notimeline/fruits_semantic/fruits_semantic_6.png"" class=""exp-image"">
                    <div class=""question-area""></div> 
                </div>","null","","","","","","","","","","","",""
"","","","","","html-button-response","154","522629","0.0-154.0","FB469A0CC87245F09B147031601ECA2A","019d6b89-0aa7-7cd4-83b9-c6824ab9f2b6","019d6b6d-d11f-7233-9b95-7a424dbf389f","","347","
                <div class=""stimulus-container"">
                    <img src=""semantic_sequence_notimeline/fruits_semantic/fruits_semantic_6.png"" class=""exp-image"">
                    <div class=""question-area"">
                        <p style=""font-size: 20px; font-weight: bold; margin: 0;"">Is there a person in this image?</p>
                    </div>
                </div>","1","main_experiment_trial","6","fruits_semantic","semantic_sequence_notimeline","chronological","","","","","","",""
"","","","","","html-keyboard-response","155","527640","0.0-155.0","FB469A0CC87245F09B147031601ECA2A","019d6b89-0aa7-7cd4-83b9-c6824ab9f2b6","019d6b6d-d11f-7233-9b95-7a424dbf389f","","null","
                <div class=""stimulus-container"">
                    <img src=""semantic_sequence_notimeline/fruits_semantic/fruits_semantic_7.png"" class=""exp-image"">
                    <div class=""question-area""></div> 
                </div>","null","","","","","","","","","","","",""
"","","","","","html-button-response","156","528001","0.0-156.0","FB469A0CC87245F09B147031601ECA2A","019d6b89-0aa7-7cd4-83b9-c6824ab9f2b6","019d6b6d-d11f-7233-9b95-7a424dbf389f","","361","
                <div class=""stimulus-container"">
                    <img src=""semantic_sequence_notimeline/fruits_semantic/fruits_semantic_7.png"" class=""exp-image"">
                    <div class=""question-area"">
                        <p style=""font-size: 20px; font-weight: bold; margin: 0;"">Is there a person in this image?</p>
                    </div>
                </div>","1","main_experiment_trial","7","fruits_semantic","semantic_sequence_notimeline","chronological","","","","","","",""
"","","","","","html-keyboard-response","157","533010","0.0-157.0","FB469A0CC87245F09B147031601ECA2A","019d6b89-0aa7-7cd4-83b9-c6824ab9f2b6","019d6b6d-d11f-7233-9b95-7a424dbf389f","","null","
                <div class=""stimulus-container"">
                    <img src=""semantic_sequence_notimeline/fruits_semantic/fruits_semantic_8.png"" class=""exp-image"">
                    <div class=""question-area""></div> 
                </div>","null","","","","","","","","","","","",""
"","","","","","html-button-response","158","533469","0.0-158.0","FB469A0CC87245F09B147031601ECA2A","019d6b89-0aa7-7cd4-83b9-c6824ab9f2b6","019d6b6d-d11f-7233-9b95-7a424dbf389f","","459","
                <div class=""stimulus-container"">
                    <img src=""semantic_sequence_notimeline/fruits_semantic/fruits_semantic_8.png"" class=""exp-image"">
                    <div class=""question-area"">
                        <p style=""font-size: 20px; font-weight: bold; margin: 0;"">Is there a person in this image?</p>
                    </div>
                </div>","1","main_experiment_trial","8","fruits_semantic","semantic_sequence_notimeline","chronological","","","","","","",""
"","","","","","html-keyboard-response","159","538471","0.0-159.0","FB469A0CC87245F09B147031601ECA2A","019d6b89-0aa7-7cd4-83b9-c6824ab9f2b6","019d6b6d-d11f-7233-9b95-7a424dbf389f","","null","
                <div class=""stimulus-container"">
                    <img src=""semantic_sequence_notimeline/fruits_semantic/fruits_semantic_9.png"" class=""exp-image"">
                    <div class=""question-area""></div> 
                </div>","null","","","","","","","","","","","",""
"","","","","","html-button-response","160","538898","0.0-160.0","FB469A0CC87245F09B147031601ECA2A","019d6b89-0aa7-7cd4-83b9-c6824ab9f2b6","019d6b6d-d11f-7233-9b95-7a424dbf389f","","427","
                <div class=""stimulus-container"">
                    <img src=""semantic_sequence_notimeline/fruits_semantic/fruits_semantic_9.png"" class=""exp-image"">
                    <div class=""question-area"">
                        <p style=""font-size: 20px; font-weight: bold; margin: 0;"">Is there a person in this image?</p>
                    </div>
                </div>","1","main_experiment_trial","9","fruits_semantic","semantic_sequence_notimeline","chronological","","","","","","",""
"","","","","","html-keyboard-response","161","543905","0.0-161.0","FB469A0CC87245F09B147031601ECA2A","019d6b89-0aa7-7cd4-83b9-c6824ab9f2b6","019d6b6d-d11f-7233-9b95-7a424dbf389f","","null","
                <div class=""stimulus-container"">
                    <img src=""semantic_sequence_notimeline/fruits_semantic/fruits_semantic_ten.png"" class=""exp-image"">
                    <div class=""question-area""></div> 
                </div>","null","","","","","","","","","","","",""
"","","","","","html-button-response","162","544520","0.0-162.0","FB469A0CC87245F09B147031601ECA2A","019d6b89-0aa7-7cd4-83b9-c6824ab9f2b6","019d6b6d-d11f-7233-9b95-7a424dbf389f","","615","
                <div class=""stimulus-container"">
                    <img src=""semantic_sequence_notimeline/fruits_semantic/fruits_semantic_ten.png"" class=""exp-image"">
                    <div class=""question-area"">
                        <p style=""font-size: 20px; font-weight: bold; margin: 0;"">Is there a person in this image?</p>
                    </div>
                </div>","1","main_experiment_trial","ten","fruits_semantic","semantic_sequence_notimeline","chronological","","","","","","",""
"","","","","","html-keyboard-response","163","549521","0.0-163.0","FB469A0CC87245F09B147031601ECA2A","019d6b89-0aa7-7cd4-83b9-c6824ab9f2b6","019d6b6d-d11f-7233-9b95-7a424dbf389f","","null","<div style=""background-color: white; width: 100vw; height: 100vh;""></div>","null","","","","","","","","","","","",""
"","","","","","html-keyboard-response","164","554534","0.0-164.0","FB469A0CC87245F09B147031601ECA2A","019d6b89-0aa7-7cd4-83b9-c6824ab9f2b6","019d6b6d-d11f-7233-9b95-7a424dbf389f","","null","
                <div class=""stimulus-container"">
                    <img src=""images/causal_sequence/the_performance_causal/the_performance_causal_1.png"" class=""exp-image"">
                    <div class=""question-area""></div> 
                </div>","null","","","","","","","","","","","",""
"","","","","","html-button-response","165","555469","0.0-165.0","FB469A0CC87245F09B147031601ECA2A","019d6b89-0aa7-7cd4-83b9-c6824ab9f2b6","019d6b6d-d11f-7233-9b95-7a424dbf389f","","935","
                <div class=""stimulus-container"">
                    <img src=""images/causal_sequence/the_performance_causal/the_performance_causal_1.png"" class=""exp-image"">
                    <div class=""question-area"">
                        <p style=""font-size: 20px; font-weight: bold; margin: 0;"">Is there a person in this image?</p>
                    </div>
                </div>","0","main_experiment_trial","1","the_performance_causal","causal_sequence","chronological","","","","","","",""
"","","","","","html-keyboard-response","166","560472","0.0-166.0","FB469A0CC87245F09B147031601ECA2A","019d6b89-0aa7-7cd4-83b9-c6824ab9f2b6","019d6b6d-d11f-7233-9b95-7a424dbf389f","","null","
                <div class=""stimulus-container"">
                    <img src=""images/causal_sequence/the_performance_causal/the_performance_causal_2.png"" class=""exp-image"">
                    <div class=""question-area""></div> 
                </div>","null","","","","","","","","","","","",""
"","","","","","html-button-response","167","561141","0.0-167.0","FB469A0CC87245F09B147031601ECA2A","019d6b89-0aa7-7cd4-83b9-c6824ab9f2b6","019d6b6d-d11f-7233-9b95-7a424dbf389f","","669","
                <div class=""stimulus-container"">
                    <img src=""images/causal_sequence/the_performance_causal/the_performance_causal_2.png"" class=""exp-image"">
                    <div class=""question-area"">
                        <p style=""font-size: 20px; font-weight: bold; margin: 0;"">Is there a person in this image?</p>
                    </div>
                </div>","0","main_experiment_trial","2","the_performance_causal","causal_sequence","chronological","","","","","","",""
"","","","","","html-keyboard-response","168","566154","0.0-168.0","FB469A0CC87245F09B147031601ECA2A","019d6b89-0aa7-7cd4-83b9-c6824ab9f2b6","019d6b6d-d11f-7233-9b95-7a424dbf389f","","null","
                <div class=""stimulus-container"">
                    <img src=""images/causal_sequence/the_performance_causal/the_performance_causal_3.png"" class=""exp-image"">
                    <div class=""question-area""></div> 
                </div>","null","","","","","","","","","","","",""
"","","","","","html-button-response","169","567237","0.0-169.0","FB469A0CC87245F09B147031601ECA2A","019d6b89-0aa7-7cd4-83b9-c6824ab9f2b6","019d6b6d-d11f-7233-9b95-7a424dbf389f","","1083","
                <div class=""stimulus-container"">
                    <img src=""images/causal_sequence/the_performance_causal/the_performance_causal_3.png"" class=""exp-image"">
                    <div class=""question-area"">
                        <p style=""font-size: 20px; font-weight: bold; margin: 0;"">Is there a person in this image?</p>
                    </div>
                </div>","0","main_experiment_trial","3","the_performance_causal","causal_sequence","chronological","","","","","","",""
"","","","","","html-keyboard-response","170","572242","0.0-170.0","FB469A0CC87245F09B147031601ECA2A","019d6b89-0aa7-7cd4-83b9-c6824ab9f2b6","019d6b6d-d11f-7233-9b95-7a424dbf389f","","null","
                <div class=""stimulus-container"">
                    <img src=""images/causal_sequence/the_performance_causal/the_performance_causal_4.png"" class=""exp-image"">
                    <div class=""question-area""></div> 
                </div>","null","","","","","","","","","","","",""
"","","","","","html-button-response","171","573382","0.0-171.0","FB469A0CC87245F09B147031601ECA2A","019d6b89-0aa7-7cd4-83b9-c6824ab9f2b6","019d6b6d-d11f-7233-9b95-7a424dbf389f","","1139","
                <div class=""stimulus-container"">
                    <img src=""images/causal_sequence/the_performance_causal/the_performance_causal_4.png"" class=""exp-image"">
                    <div class=""question-area"">
                        <p style=""font-size: 20px; font-weight: bold; margin: 0;"">Is there a person in this image?</p>
                    </div>
                </div>","0","main_experiment_trial","4","the_performance_causal","causal_sequence","chronological","","","","","","",""
"","","","","","html-keyboard-response","172","578383","0.0-172.0","FB469A0CC87245F09B147031601ECA2A","019d6b89-0aa7-7cd4-83b9-c6824ab9f2b6","019d6b6d-d11f-7233-9b95-7a424dbf389f","","null","
                <div class=""stimulus-container"">
                    <img src=""images/causal_sequence/the_performance_causal/the_performance_causal_5.png"" class=""exp-image"">
                    <div class=""question-area""></div> 
                </div>","null","","","","","","","","","","","",""
"","","","","","html-button-response","173","578978","0.0-173.0","FB469A0CC87245F09B147031601ECA2A","019d6b89-0aa7-7cd4-83b9-c6824ab9f2b6","019d6b6d-d11f-7233-9b95-7a424dbf389f","","595","
                <div class=""stimulus-container"">
                    <img src=""images/causal_sequence/the_performance_causal/the_performance_causal_5.png"" class=""exp-image"">
                    <div class=""question-area"">
                        <p style=""font-size: 20px; font-weight: bold; margin: 0;"">Is there a person in this image?</p>
                    </div>
                </div>","0","main_experiment_trial","5","the_performance_causal","causal_sequence","chronological","","","","","","",""
"","","","","","html-keyboard-response","174","583980","0.0-174.0","FB469A0CC87245F09B147031601ECA2A","019d6b89-0aa7-7cd4-83b9-c6824ab9f2b6","019d6b6d-d11f-7233-9b95-7a424dbf389f","","null","
                <div class=""stimulus-container"">
                    <img src=""images/causal_sequence/the_performance_causal/the_performance_causal_6.png"" class=""exp-image"">
                    <div class=""question-area""></div> 
                </div>","null","","","","","","","","","","","",""
"","","","","","html-button-response","175","584935","0.0-175.0","FB469A0CC87245F09B147031601ECA2A","019d6b89-0aa7-7cd4-83b9-c6824ab9f2b6","019d6b6d-d11f-7233-9b95-7a424dbf389f","","954","
                <div class=""stimulus-container"">
                    <img src=""images/causal_sequence/the_performance_causal/the_performance_causal_6.png"" class=""exp-image"">
                    <div class=""question-area"">
                        <p style=""font-size: 20px; font-weight: bold; margin: 0;"">Is there a person in this image?</p>
                    </div>
                </div>","0","main_experiment_trial","6","the_performance_causal","causal_sequence","chronological","","","","","","",""
"","","","","","html-keyboard-response","176","589938","0.0-176.0","FB469A0CC87245F09B147031601ECA2A","019d6b89-0aa7-7cd4-83b9-c6824ab9f2b6","019d6b6d-d11f-7233-9b95-7a424dbf389f","","null","
                <div class=""stimulus-container"">
                    <img src=""images/causal_sequence/the_performance_causal/the_performance_causal_7.png"" class=""exp-image"">
                    <div class=""question-area""></div> 
                </div>","null","","","","","","","","","","","",""
"","","","","","html-button-response","177","590813","0.0-177.0","FB469A0CC87245F09B147031601ECA2A","019d6b89-0aa7-7cd4-83b9-c6824ab9f2b6","019d6b6d-d11f-7233-9b95-7a424dbf389f","","875","
                <div class=""stimulus-container"">
