"success","timeout","failed_images","failed_audio","failed_video","trial_type","trial_index","time_elapsed","internal_node_id","subject_id","study_id","session_id","view_history","rt","stimulus","response","task","image_index","folder","sequence_type","valuable_image_index","reward_type","lucky_X","chosen_image_index"
"true","false","[]","[]","[]","preload","0","235372","0.0-0.0","02C11AF356464923B16DAB6166ACF8CB","019ceda7-9e16-70b5-b05b-48108f2e7bfb","019ceda4-7502-7cd5-b642-b8a83a30c71c","","","","","","","","","","","",""
"","","","","","instructions","1","911916","0.0-1.0","02C11AF356464923B16DAB6166ACF8CB","019ceda7-9e16-70b5-b05b-48108f2e7bfb","019ceda4-7502-7cd5-b642-b8a83a30c71c","[{""page_index"":0,""viewing_time"":676541}]","676541","","","","","","","","","",""
"","","","","","instructions","2","917030","0.0-2.0","02C11AF356464923B16DAB6166ACF8CB","019ceda7-9e16-70b5-b05b-48108f2e7bfb","019ceda4-7502-7cd5-b642-b8a83a30c71c","[{""page_index"":0,""viewing_time"":5114}]","5114","","","","","","","","","",""
"true","","","","","fullscreen","3","920141","0.0-3.0","02C11AF356464923B16DAB6166ACF8CB","019ceda7-9e16-70b5-b05b-48108f2e7bfb","019ceda4-7502-7cd5-b642-b8a83a30c71c","","2102","","","","","","","","","",""
"","","","","","instructions","4","931691","0.0-4.0","02C11AF356464923B16DAB6166ACF8CB","019ceda7-9e16-70b5-b05b-48108f2e7bfb","019ceda4-7502-7cd5-b642-b8a83a30c71c","[{""page_index"":0,""viewing_time"":11549}]","11550","","","","","","","","","",""
"","","","","","instructions","5","950330","0.0-5.0","02C11AF356464923B16DAB6166ACF8CB","019ceda7-9e16-70b5-b05b-48108f2e7bfb","019ceda4-7502-7cd5-b642-b8a83a30c71c","[{""page_index"":0,""viewing_time"":18639}]","18639","","","","","","","","","",""
"","","","","","html-keyboard-response","6","954337","0.0-6.0","02C11AF356464923B16DAB6166ACF8CB","019ceda7-9e16-70b5-b05b-48108f2e7bfb","019ceda4-7502-7cd5-b642-b8a83a30c71c","","null","
                <div class=""stimulus-container"">
                    <img src=""images/instructions/movie_1.png"" class=""exp-image"">
                    <div class=""question-area""></div> 
                </div>","null","","","","","","","",""
"","","","","","html-button-response","7","956862","0.0-7.0","02C11AF356464923B16DAB6166ACF8CB","019ceda7-9e16-70b5-b05b-48108f2e7bfb","019ceda4-7502-7cd5-b642-b8a83a30c71c","","2523","
                <div class=""stimulus-container"">
                    <img src=""images/instructions/movie_1.png"" class=""exp-image"">
                    <div class=""question-area"">
                        <p style=""font-size: 20px; font-weight: bold; margin: 0;"">Was there a person in this image?</p>
                    </div>
                </div>","0","example_question","1","","","","","",""
"","","","","","html-keyboard-response","8","960878","0.0-8.0","02C11AF356464923B16DAB6166ACF8CB","019ceda7-9e16-70b5-b05b-48108f2e7bfb","019ceda4-7502-7cd5-b642-b8a83a30c71c","","null","
                <div class=""stimulus-container"">
                    <img src=""images/instructions/movie_2.png"" class=""exp-image"">
                    <div class=""question-area""></div> 
                </div>","null","","","","","","","",""
"","","","","","html-button-response","9","961731","0.0-9.0","02C11AF356464923B16DAB6166ACF8CB","019ceda7-9e16-70b5-b05b-48108f2e7bfb","019ceda4-7502-7cd5-b642-b8a83a30c71c","","852","
                <div class=""stimulus-container"">
                    <img src=""images/instructions/movie_2.png"" class=""exp-image"">
                    <div class=""question-area"">
                        <p style=""font-size: 20px; font-weight: bold; margin: 0;"">Was there a person in this image?</p>
                    </div>
                </div>","0","example_question","2","","","","","",""
"","","","","","html-keyboard-response","10","965745","0.0-10.0","02C11AF356464923B16DAB6166ACF8CB","019ceda7-9e16-70b5-b05b-48108f2e7bfb","019ceda4-7502-7cd5-b642-b8a83a30c71c","","null","
                <div class=""stimulus-container"">
                    <img src=""images/instructions/movie_3.png"" class=""exp-image"">
                    <div class=""question-area""></div> 
                </div>","null","","","","","","","",""
"","","","","","html-button-response","11","966631","0.0-11.0","02C11AF356464923B16DAB6166ACF8CB","019ceda7-9e16-70b5-b05b-48108f2e7bfb","019ceda4-7502-7cd5-b642-b8a83a30c71c","","885","
                <div class=""stimulus-container"">
                    <img src=""images/instructions/movie_3.png"" class=""exp-image"">
                    <div class=""question-area"">
                        <p style=""font-size: 20px; font-weight: bold; margin: 0;"">Was there a person in this image?</p>
                    </div>
                </div>","0","example_question","3","","","","","",""
"","","","","","html-keyboard-response","12","970645","0.0-12.0","02C11AF356464923B16DAB6166ACF8CB","019ceda7-9e16-70b5-b05b-48108f2e7bfb","019ceda4-7502-7cd5-b642-b8a83a30c71c","","null","
                <div class=""stimulus-container"">
                    <img src=""images/instructions/movie_4.png"" class=""exp-image"">
                    <div class=""question-area""></div> 
                </div>","null","","","","","","","",""
"","","","","","html-button-response","13","971628","0.0-13.0","02C11AF356464923B16DAB6166ACF8CB","019ceda7-9e16-70b5-b05b-48108f2e7bfb","019ceda4-7502-7cd5-b642-b8a83a30c71c","","982","
                <div class=""stimulus-container"">
                    <img src=""images/instructions/movie_4.png"" class=""exp-image"">
                    <div class=""question-area"">
                        <p style=""font-size: 20px; font-weight: bold; margin: 0;"">Was there a person in this image?</p>
                    </div>
                </div>","0","example_question","4","","","","","",""
"","","","","","instructions","14","974190","0.0-14.0","02C11AF356464923B16DAB6166ACF8CB","019ceda7-9e16-70b5-b05b-48108f2e7bfb","019ceda4-7502-7cd5-b642-b8a83a30c71c","[{""page_index"":0,""viewing_time"":2561}]","2561","","","","","","","","","",""
"","","","","","instructions","15","983293","0.0-15.0","02C11AF356464923B16DAB6166ACF8CB","019ceda7-9e16-70b5-b05b-48108f2e7bfb","019ceda4-7502-7cd5-b642-b8a83a30c71c","[{""page_index"":0,""viewing_time"":9102}]","9103","","","","","","","","","",""
"","","","","","html-keyboard-response","16","984303","0.0-16.0","02C11AF356464923B16DAB6166ACF8CB","019ceda7-9e16-70b5-b05b-48108f2e7bfb","019ceda4-7502-7cd5-b642-b8a83a30c71c","","null","<div style=""background-color: white; width: 100vw; height: 100vh;""></div>","null","","","","","","","",""
"","","","","","html-keyboard-response","17","989313","0.0-17.0","02C11AF356464923B16DAB6166ACF8CB","019ceda7-9e16-70b5-b05b-48108f2e7bfb","019ceda4-7502-7cd5-b642-b8a83a30c71c","","null","
                <div class=""stimulus-container"">
                    <img src=""images/schematic_sequence/dinner_party_scheme/dinner_party_scheme_1.png"" class=""exp-image"">
                    <div class=""question-area""></div> 
                </div>","null","","","","","","","",""
"","","","","","html-button-response","18","992177","0.0-18.0","02C11AF356464923B16DAB6166ACF8CB","019ceda7-9e16-70b5-b05b-48108f2e7bfb","019ceda4-7502-7cd5-b642-b8a83a30c71c","","2862","
                <div class=""stimulus-container"">
                    <img src=""images/schematic_sequence/dinner_party_scheme/dinner_party_scheme_1.png"" class=""exp-image"">
                    <div class=""question-area"">
                        <p style=""font-size: 20px; font-weight: bold; margin: 0;"">Is there a person in this image?</p>
                    </div>
                </div>","0","main_experiment_trial","1","dinner_party_scheme","schematic_sequence","","","",""
"","","","","","html-keyboard-response","19","997184","0.0-19.0","02C11AF356464923B16DAB6166ACF8CB","019ceda7-9e16-70b5-b05b-48108f2e7bfb","019ceda4-7502-7cd5-b642-b8a83a30c71c","","null","
                <div class=""stimulus-container"">
                    <img src=""images/schematic_sequence/dinner_party_scheme/dinner_party_scheme_2.png"" class=""exp-image"">
                    <div class=""question-area""></div> 
                </div>","null","","","","","","","",""
"","","","","","html-button-response","20","998156","0.0-20.0","02C11AF356464923B16DAB6166ACF8CB","019ceda7-9e16-70b5-b05b-48108f2e7bfb","019ceda4-7502-7cd5-b642-b8a83a30c71c","","971","
                <div class=""stimulus-container"">
                    <img src=""images/schematic_sequence/dinner_party_scheme/dinner_party_scheme_2.png"" class=""exp-image"">
                    <div class=""question-area"">
                        <p style=""font-size: 20px; font-weight: bold; margin: 0;"">Is there a person in this image?</p>
                    </div>
                </div>","0","main_experiment_trial","2","dinner_party_scheme","schematic_sequence","","","",""
"","","","","","html-keyboard-response","21","1003172","0.0-21.0","02C11AF356464923B16DAB6166ACF8CB","019ceda7-9e16-70b5-b05b-48108f2e7bfb","019ceda4-7502-7cd5-b642-b8a83a30c71c","","null","
                <div class=""stimulus-container"">
                    <img src=""images/schematic_sequence/dinner_party_scheme/dinner_party_scheme_3.png"" class=""exp-image"">
                    <div class=""question-area""></div> 
                </div>","null","","","","","","","",""
"","","","","","html-button-response","22","1004394","0.0-22.0","02C11AF356464923B16DAB6166ACF8CB","019ceda7-9e16-70b5-b05b-48108f2e7bfb","019ceda4-7502-7cd5-b642-b8a83a30c71c","","1220","
                <div class=""stimulus-container"">
                    <img src=""images/schematic_sequence/dinner_party_scheme/dinner_party_scheme_3.png"" class=""exp-image"">
                    <div class=""question-area"">
                        <p style=""font-size: 20px; font-weight: bold; margin: 0;"">Is there a person in this image?</p>
                    </div>
                </div>","0","main_experiment_trial","3","dinner_party_scheme","schematic_sequence","","","",""
"","","","","","html-keyboard-response","23","1009410","0.0-23.0","02C11AF356464923B16DAB6166ACF8CB","019ceda7-9e16-70b5-b05b-48108f2e7bfb","019ceda4-7502-7cd5-b642-b8a83a30c71c","","null","
                <div class=""stimulus-container"">
                    <img src=""images/schematic_sequence/dinner_party_scheme/dinner_party_scheme_4.png"" class=""exp-image"">
                    <div class=""question-area""></div> 
                </div>","null","","","","","","","",""
"","","","","","html-button-response","24","1010593","0.0-24.0","02C11AF356464923B16DAB6166ACF8CB","019ceda7-9e16-70b5-b05b-48108f2e7bfb","019ceda4-7502-7cd5-b642-b8a83a30c71c","","1181","
                <div class=""stimulus-container"">
                    <img src=""images/schematic_sequence/dinner_party_scheme/dinner_party_scheme_4.png"" class=""exp-image"">
                    <div class=""question-area"">
                        <p style=""font-size: 20px; font-weight: bold; margin: 0;"">Is there a person in this image?</p>
                    </div>
                </div>","0","main_experiment_trial","4","dinner_party_scheme","schematic_sequence","","","",""
"","","","","","html-keyboard-response","25","1015595","0.0-25.0","02C11AF356464923B16DAB6166ACF8CB","019ceda7-9e16-70b5-b05b-48108f2e7bfb","019ceda4-7502-7cd5-b642-b8a83a30c71c","","null","
                <div class=""stimulus-container"">
                    <img src=""images/schematic_sequence/dinner_party_scheme/dinner_party_scheme_5.png"" class=""exp-image"">
                    <div class=""question-area""></div> 
                </div>","null","","","","","","","",""
"","","","","","html-button-response","26","1016587","0.0-26.0","02C11AF356464923B16DAB6166ACF8CB","019ceda7-9e16-70b5-b05b-48108f2e7bfb","019ceda4-7502-7cd5-b642-b8a83a30c71c","","991","
                <div class=""stimulus-container"">
                    <img src=""images/schematic_sequence/dinner_party_scheme/dinner_party_scheme_5.png"" class=""exp-image"">
                    <div class=""question-area"">
                        <p style=""font-size: 20px; font-weight: bold; margin: 0;"">Is there a person in this image?</p>
                    </div>
                </div>","0","main_experiment_trial","5","dinner_party_scheme","schematic_sequence","","","",""
"","","","","","html-keyboard-response","27","1021596","0.0-27.0","02C11AF356464923B16DAB6166ACF8CB","019ceda7-9e16-70b5-b05b-48108f2e7bfb","019ceda4-7502-7cd5-b642-b8a83a30c71c","","null","
                <div class=""stimulus-container"">
                    <img src=""images/schematic_sequence/dinner_party_scheme/dinner_party_scheme_6.png"" class=""exp-image"">
                    <div class=""question-area""></div> 
                </div>","null","","","","","","","",""
"","","","","","html-button-response","28","1022317","0.0-28.0","02C11AF356464923B16DAB6166ACF8CB","019ceda7-9e16-70b5-b05b-48108f2e7bfb","019ceda4-7502-7cd5-b642-b8a83a30c71c","","719","
                <div class=""stimulus-container"">
                    <img src=""images/schematic_sequence/dinner_party_scheme/dinner_party_scheme_6.png"" class=""exp-image"">
                    <div class=""question-area"">
                        <p style=""font-size: 20px; font-weight: bold; margin: 0;"">Is there a person in this image?</p>
                    </div>
                </div>","0","main_experiment_trial","6","dinner_party_scheme","schematic_sequence","","","",""
"","","","","","html-keyboard-response","29","1027328","0.0-29.0","02C11AF356464923B16DAB6166ACF8CB","019ceda7-9e16-70b5-b05b-48108f2e7bfb","019ceda4-7502-7cd5-b642-b8a83a30c71c","","null","
                <div class=""stimulus-container"">
                    <img src=""images/schematic_sequence/dinner_party_scheme/dinner_party_scheme_7.png"" class=""exp-image"">
                    <div class=""question-area""></div> 
                </div>","null","","","","","","","",""
"","","","","","html-button-response","30","1028125","0.0-30.0","02C11AF356464923B16DAB6166ACF8CB","019ceda7-9e16-70b5-b05b-48108f2e7bfb","019ceda4-7502-7cd5-b642-b8a83a30c71c","","794","
                <div class=""stimulus-container"">
                    <img src=""images/schematic_sequence/dinner_party_scheme/dinner_party_scheme_7.png"" class=""exp-image"">
                    <div class=""question-area"">
                        <p style=""font-size: 20px; font-weight: bold; margin: 0;"">Is there a person in this image?</p>
                    </div>
                </div>","0","main_experiment_trial","7","dinner_party_scheme","schematic_sequence","","","",""
"","","","","","html-keyboard-response","31","1033129","0.0-31.0","02C11AF356464923B16DAB6166ACF8CB","019ceda7-9e16-70b5-b05b-48108f2e7bfb","019ceda4-7502-7cd5-b642-b8a83a30c71c","","null","
                <div class=""stimulus-container"">
                    <img src=""images/schematic_sequence/dinner_party_scheme/dinner_party_scheme_8.png"" class=""exp-image"">
                    <div class=""question-area""></div> 
                </div>","null","","","","","","","",""
"","","","","","html-button-response","32","1034225","0.0-32.0","02C11AF356464923B16DAB6166ACF8CB","019ceda7-9e16-70b5-b05b-48108f2e7bfb","019ceda4-7502-7cd5-b642-b8a83a30c71c","","1096","
                <div class=""stimulus-container"">
                    <img src=""images/schematic_sequence/dinner_party_scheme/dinner_party_scheme_8.png"" class=""exp-image"">
                    <div class=""question-area"">
                        <p style=""font-size: 20px; font-weight: bold; margin: 0;"">Is there a person in this image?</p>
                    </div>
                </div>","0","main_experiment_trial","8","dinner_party_scheme","schematic_sequence","","","",""
"","","","","","html-keyboard-response","33","1039238","0.0-33.0","02C11AF356464923B16DAB6166ACF8CB","019ceda7-9e16-70b5-b05b-48108f2e7bfb","019ceda4-7502-7cd5-b642-b8a83a30c71c","","null","
                <div class=""stimulus-container"">
                    <img src=""images/schematic_sequence/dinner_party_scheme/dinner_party_scheme_9.png"" class=""exp-image"">
                    <div class=""question-area""></div> 
                </div>","null","","","","","","","",""
"","","","","","html-button-response","34","1040048","0.0-34.0","02C11AF356464923B16DAB6166ACF8CB","019ceda7-9e16-70b5-b05b-48108f2e7bfb","019ceda4-7502-7cd5-b642-b8a83a30c71c","","808","
                <div class=""stimulus-container"">
                    <img src=""images/schematic_sequence/dinner_party_scheme/dinner_party_scheme_9.png"" class=""exp-image"">
                    <div class=""question-area"">
                        <p style=""font-size: 20px; font-weight: bold; margin: 0;"">Is there a person in this image?</p>
                    </div>
                </div>","0","main_experiment_trial","9","dinner_party_scheme","schematic_sequence","","","",""
"","","","","","html-keyboard-response","35","1045056","0.0-35.0","02C11AF356464923B16DAB6166ACF8CB","019ceda7-9e16-70b5-b05b-48108f2e7bfb","019ceda4-7502-7cd5-b642-b8a83a30c71c","","null","
                <div class=""stimulus-container"">
                    <img src=""images/schematic_sequence/dinner_party_scheme/dinner_party_scheme_ten.png"" class=""exp-image"">
                    <div class=""question-area""></div> 
                </div>","null","","","","","","","",""
"","","","","","html-button-response","36","1046300","0.0-36.0","02C11AF356464923B16DAB6166ACF8CB","019ceda7-9e16-70b5-b05b-48108f2e7bfb","019ceda4-7502-7cd5-b642-b8a83a30c71c","","1242","
                <div class=""stimulus-container"">
                    <img src=""images/schematic_sequence/dinner_party_scheme/dinner_party_scheme_ten.png"" class=""exp-image"">
                    <div class=""question-area"">
                        <p style=""font-size: 20px; font-weight: bold; margin: 0;"">Is there a person in this image?</p>
                    </div>
                </div>","0","main_experiment_trial","ten","dinner_party_scheme","schematic_sequence","","","",""
"","","","","","html-keyboard-response","37","1047310","0.0-37.0","02C11AF356464923B16DAB6166ACF8CB","019ceda7-9e16-70b5-b05b-48108f2e7bfb","019ceda4-7502-7cd5-b642-b8a83a30c71c","","null","<div style=""background-color: white; width: 100vw; height: 100vh;""></div>","null","","","","","","","",""
"","","","","","html-keyboard-response","38","1052322","0.0-38.0","02C11AF356464923B16DAB6166ACF8CB","019ceda7-9e16-70b5-b05b-48108f2e7bfb","019ceda4-7502-7cd5-b642-b8a83a30c71c","","null","
                <div class=""stimulus-container"">
                    <img src=""images/schematic_sequence/supermarket_scheme/supermarket_scheme_1.png"" class=""exp-image"">
                    <div class=""question-area""></div> 
                </div>","null","","","","","","","",""
"","","","","","html-button-response","39","1053153","0.0-39.0","02C11AF356464923B16DAB6166ACF8CB","019ceda7-9e16-70b5-b05b-48108f2e7bfb","019ceda4-7502-7cd5-b642-b8a83a30c71c","","830","
                <div class=""stimulus-container"">
                    <img src=""images/schematic_sequence/supermarket_scheme/supermarket_scheme_1.png"" class=""exp-image"">
                    <div class=""question-area"">
                        <p style=""font-size: 20px; font-weight: bold; margin: 0;"">Is there a person in this image?</p>
                    </div>
                </div>","1","main_experiment_trial","1","supermarket_scheme","schematic_sequence","","","",""
"","","","","","html-keyboard-response","40","1058156","0.0-40.0","02C11AF356464923B16DAB6166ACF8CB","019ceda7-9e16-70b5-b05b-48108f2e7bfb","019ceda4-7502-7cd5-b642-b8a83a30c71c","","null","
                <div class=""stimulus-container"">
                    <img src=""images/schematic_sequence/supermarket_scheme/supermarket_scheme_2.png"" class=""exp-image"">
                    <div class=""question-area""></div> 
                </div>","null","","","","","","","",""
"","","","","","html-button-response","41","1058951","0.0-41.0","02C11AF356464923B16DAB6166ACF8CB","019ceda7-9e16-70b5-b05b-48108f2e7bfb","019ceda4-7502-7cd5-b642-b8a83a30c71c","","794","
                <div class=""stimulus-container"">
                    <img src=""images/schematic_sequence/supermarket_scheme/supermarket_scheme_2.png"" class=""exp-image"">
                    <div class=""question-area"">
                        <p style=""font-size: 20px; font-weight: bold; margin: 0;"">Is there a person in this image?</p>
                    </div>
                </div>","1","main_experiment_trial","2","supermarket_scheme","schematic_sequence","","","",""
"","","","","","html-keyboard-response","42","1063963","0.0-42.0","02C11AF356464923B16DAB6166ACF8CB","019ceda7-9e16-70b5-b05b-48108f2e7bfb","019ceda4-7502-7cd5-b642-b8a83a30c71c","","null","
                <div class=""stimulus-container"">
                    <img src=""images/schematic_sequence/supermarket_scheme/supermarket_scheme_3.png"" class=""exp-image"">
                    <div class=""question-area""></div> 
                </div>","null","","","","","","","",""
"","","","","","html-button-response","43","1064871","0.0-43.0","02C11AF356464923B16DAB6166ACF8CB","019ceda7-9e16-70b5-b05b-48108f2e7bfb","019ceda4-7502-7cd5-b642-b8a83a30c71c","","906","
                <div class=""stimulus-container"">
                    <img src=""images/schematic_sequence/supermarket_scheme/supermarket_scheme_3.png"" class=""exp-image"">
                    <div class=""question-area"">
                        <p style=""font-size: 20px; font-weight: bold; margin: 0;"">Is there a person in this image?</p>
                    </div>
                </div>","1","main_experiment_trial","3","supermarket_scheme","schematic_sequence","","","",""
"","","","","","html-keyboard-response","44","1069875","0.0-44.0","02C11AF356464923B16DAB6166ACF8CB","019ceda7-9e16-70b5-b05b-48108f2e7bfb","019ceda4-7502-7cd5-b642-b8a83a30c71c","","null","
                <div class=""stimulus-container"">
                    <img src=""images/schematic_sequence/supermarket_scheme/supermarket_scheme_4.png"" class=""exp-image"">
                    <div class=""question-area""></div> 
                </div>","null","","","","","","","",""
"","","","","","html-button-response","45","1070619","0.0-45.0","02C11AF356464923B16DAB6166ACF8CB","019ceda7-9e16-70b5-b05b-48108f2e7bfb","019ceda4-7502-7cd5-b642-b8a83a30c71c","","743","
                <div class=""stimulus-container"">
                    <img src=""images/schematic_sequence/supermarket_scheme/supermarket_scheme_4.png"" class=""exp-image"">
                    <div class=""question-area"">
                        <p style=""font-size: 20px; font-weight: bold; margin: 0;"">Is there a person in this image?</p>
                    </div>
                </div>","0","main_experiment_trial","4","supermarket_scheme","schematic_sequence","","","",""
"","","","","","html-keyboard-response","46","1075628","0.0-46.0","02C11AF356464923B16DAB6166ACF8CB","019ceda7-9e16-70b5-b05b-48108f2e7bfb","019ceda4-7502-7cd5-b642-b8a83a30c71c","","null","
                <div class=""stimulus-container"">
                    <img src=""images/schematic_sequence/supermarket_scheme/supermarket_scheme_5.png"" class=""exp-image"">
                    <div class=""question-area""></div> 
                </div>","null","","","","","","","",""
"","","","","","html-button-response","47","1077687","0.0-47.0","02C11AF356464923B16DAB6166ACF8CB","019ceda7-9e16-70b5-b05b-48108f2e7bfb","019ceda4-7502-7cd5-b642-b8a83a30c71c","","2058","
                <div class=""stimulus-container"">
                    <img src=""images/schematic_sequence/supermarket_scheme/supermarket_scheme_5.png"" class=""exp-image"">
                    <div class=""question-area"">
                        <p style=""font-size: 20px; font-weight: bold; margin: 0;"">Is there a person in this image?</p>
                    </div>
                </div>","1","main_experiment_trial","5","supermarket_scheme","schematic_sequence","","","",""
"","","","","","html-keyboard-response","48","1082696","0.0-48.0","02C11AF356464923B16DAB6166ACF8CB","019ceda7-9e16-70b5-b05b-48108f2e7bfb","019ceda4-7502-7cd5-b642-b8a83a30c71c","","null","
                <div class=""stimulus-container"">
                    <img src=""images/schematic_sequence/supermarket_scheme/supermarket_scheme_6.png"" class=""exp-image"">
                    <div class=""question-area""></div> 
                </div>","null","","","","","","","",""
"","","","","","html-button-response","49","1084476","0.0-49.0","02C11AF356464923B16DAB6166ACF8CB","019ceda7-9e16-70b5-b05b-48108f2e7bfb","019ceda4-7502-7cd5-b642-b8a83a30c71c","","1779","
                <div class=""stimulus-container"">
                    <img src=""images/schematic_sequence/supermarket_scheme/supermarket_scheme_6.png"" class=""exp-image"">
                    <div class=""question-area"">
                        <p style=""font-size: 20px; font-weight: bold; margin: 0;"">Is there a person in this image?</p>
                    </div>
                </div>","0","main_experiment_trial","6","supermarket_scheme","schematic_sequence","","","",""
"","","","","","html-keyboard-response","50","1089480","0.0-50.0","02C11AF356464923B16DAB6166ACF8CB","019ceda7-9e16-70b5-b05b-48108f2e7bfb","019ceda4-7502-7cd5-b642-b8a83a30c71c","","null","
                <div class=""stimulus-container"">
                    <img src=""images/schematic_sequence/supermarket_scheme/supermarket_scheme_7.png"" class=""exp-image"">
                    <div class=""question-area""></div> 
                </div>","null","","","","","","","",""
"","","","","","html-button-response","51","1090254","0.0-51.0","02C11AF356464923B16DAB6166ACF8CB","019ceda7-9e16-70b5-b05b-48108f2e7bfb","019ceda4-7502-7cd5-b642-b8a83a30c71c","","772","
                <div class=""stimulus-container"">
                    <img src=""images/schematic_sequence/supermarket_scheme/supermarket_scheme_7.png"" class=""exp-image"">
                    <div class=""question-area"">
                        <p style=""font-size: 20px; font-weight: bold; margin: 0;"">Is there a person in this image?</p>
                    </div>
                </div>","0","main_experiment_trial","7","supermarket_scheme","schematic_sequence","","","",""
"","","","","","html-keyboard-response","52","1095259","0.0-52.0","02C11AF356464923B16DAB6166ACF8CB","019ceda7-9e16-70b5-b05b-48108f2e7bfb","019ceda4-7502-7cd5-b642-b8a83a30c71c","","null","
                <div class=""stimulus-container"">
                    <img src=""images/schematic_sequence/supermarket_scheme/supermarket_scheme_8.png"" class=""exp-image"">
                    <div class=""question-area""></div> 
                </div>","null","","","","","","","",""
"","","","","","html-button-response","53","1096079","0.0-53.0","02C11AF356464923B16DAB6166ACF8CB","019ceda7-9e16-70b5-b05b-48108f2e7bfb","019ceda4-7502-7cd5-b642-b8a83a30c71c","","819","
                <div class=""stimulus-container"">
                    <img src=""images/schematic_sequence/supermarket_scheme/supermarket_scheme_8.png"" class=""exp-image"">
                    <div class=""question-area"">
                        <p style=""font-size: 20px; font-weight: bold; margin: 0;"">Is there a person in this image?</p>
                    </div>
                </div>","0","main_experiment_trial","8","supermarket_scheme","schematic_sequence","","","",""
"","","","","","html-keyboard-response","54","1101095","0.0-54.0","02C11AF356464923B16DAB6166ACF8CB","019ceda7-9e16-70b5-b05b-48108f2e7bfb","019ceda4-7502-7cd5-b642-b8a83a30c71c","","null","
                <div class=""stimulus-container"">
                    <img src=""images/schematic_sequence/supermarket_scheme/supermarket_scheme_9.png"" class=""exp-image"">
                    <div class=""question-area""></div> 
                </div>","null","","","","","","","",""
"","","","","","html-button-response","55","1102037","0.0-55.0","02C11AF356464923B16DAB6166ACF8CB","019ceda7-9e16-70b5-b05b-48108f2e7bfb","019ceda4-7502-7cd5-b642-b8a83a30c71c","","941","
                <div class=""stimulus-container"">
                    <img src=""images/schematic_sequence/supermarket_scheme/supermarket_scheme_9.png"" class=""exp-image"">
                    <div class=""question-area"">
                        <p style=""font-size: 20px; font-weight: bold; margin: 0;"">Is there a person in this image?</p>
                    </div>
                </div>","0","main_experiment_trial","9","supermarket_scheme","schematic_sequence","","","",""
"","","","","","html-keyboard-response","56","1107040","0.0-56.0","02C11AF356464923B16DAB6166ACF8CB","019ceda7-9e16-70b5-b05b-48108f2e7bfb","019ceda4-7502-7cd5-b642-b8a83a30c71c","","null","
                <div class=""stimulus-container"">
                    <img src=""images/schematic_sequence/supermarket_scheme/supermarket_scheme_ten.png"" class=""exp-image"">
                    <div class=""question-area""></div> 
                </div>","null","","","","","","","",""
"","","","","","html-button-response","57","1108177","0.0-57.0","02C11AF356464923B16DAB6166ACF8CB","019ceda7-9e16-70b5-b05b-48108f2e7bfb","019ceda4-7502-7cd5-b642-b8a83a30c71c","","1135","
                <div class=""stimulus-container"">
                    <img src=""images/schematic_sequence/supermarket_scheme/supermarket_scheme_ten.png"" class=""exp-image"">
                    <div class=""question-area"">
                        <p style=""font-size: 20px; font-weight: bold; margin: 0;"">Is there a person in this image?</p>
                    </div>
                </div>","1","main_experiment_trial","ten","supermarket_scheme","schematic_sequence","","","",""
"","","","","","html-keyboard-response","58","1109193","0.0-58.0","02C11AF356464923B16DAB6166ACF8CB","019ceda7-9e16-70b5-b05b-48108f2e7bfb","019ceda4-7502-7cd5-b642-b8a83a30c71c","","null","<div style=""background-color: white; width: 100vw; height: 100vh;""></div>","null","","","","","","","",""
"","","","","","html-keyboard-response","59","1114197","0.0-59.0","02C11AF356464923B16DAB6166ACF8CB","019ceda7-9e16-70b5-b05b-48108f2e7bfb","019ceda4-7502-7cd5-b642-b8a83a30c71c","","null","
                <div class=""stimulus-container"">
                    <img src=""images/causal_sequence/dog_causal/dog_causal_1.png"" class=""exp-image"">
                    <div class=""question-area""></div> 
                </div>","null","","","","","","","",""
"","","","","","html-button-response","60","1115851","0.0-60.0","02C11AF356464923B16DAB6166ACF8CB","019ceda7-9e16-70b5-b05b-48108f2e7bfb","019ceda4-7502-7cd5-b642-b8a83a30c71c","","1652","
                <div class=""stimulus-container"">
                    <img src=""images/causal_sequence/dog_causal/dog_causal_1.png"" class=""exp-image"">
                    <div class=""question-area"">
                        <p style=""font-size: 20px; font-weight: bold; margin: 0;"">Is there a person in this image?</p>
                    </div>
                </div>","0","main_experiment_trial","1","dog_causal","causal_sequence","","","",""
"","","","","","html-keyboard-response","61","1120863","0.0-61.0","02C11AF356464923B16DAB6166ACF8CB","019ceda7-9e16-70b5-b05b-48108f2e7bfb","019ceda4-7502-7cd5-b642-b8a83a30c71c","","null","
                <div class=""stimulus-container"">
                    <img src=""images/causal_sequence/dog_causal/dog_causal_2.png"" class=""exp-image"">
                    <div class=""question-area""></div> 
                </div>","null","","","","","","","",""
"","","","","","html-button-response","62","1121911","0.0-62.0","02C11AF356464923B16DAB6166ACF8CB","019ceda7-9e16-70b5-b05b-48108f2e7bfb","019ceda4-7502-7cd5-b642-b8a83a30c71c","","1046","
                <div class=""stimulus-container"">
                    <img src=""images/causal_sequence/dog_causal/dog_causal_2.png"" class=""exp-image"">
                    <div class=""question-area"">
                        <p style=""font-size: 20px; font-weight: bold; margin: 0;"">Is there a person in this image?</p>
                    </div>
                </div>","0","main_experiment_trial","2","dog_causal","causal_sequence","","","",""
"","","","","","html-keyboard-response","63","1126914","0.0-63.0","02C11AF356464923B16DAB6166ACF8CB","019ceda7-9e16-70b5-b05b-48108f2e7bfb","019ceda4-7502-7cd5-b642-b8a83a30c71c","","null","
                <div class=""stimulus-container"">
                    <img src=""images/causal_sequence/dog_causal/dog_causal_3.png"" class=""exp-image"">
                    <div class=""question-area""></div> 
                </div>","null","","","","","","","",""
"","","","","","html-button-response","64","1127669","0.0-64.0","02C11AF356464923B16DAB6166ACF8CB","019ceda7-9e16-70b5-b05b-48108f2e7bfb","019ceda4-7502-7cd5-b642-b8a83a30c71c","","753","
                <div class=""stimulus-container"">
                    <img src=""images/causal_sequence/dog_causal/dog_causal_3.png"" class=""exp-image"">
                    <div class=""question-area"">
                        <p style=""font-size: 20px; font-weight: bold; margin: 0;"">Is there a person in this image?</p>
                    </div>
                </div>","0","main_experiment_trial","3","dog_causal","causal_sequence","","","",""
"","","","","","html-keyboard-response","65","1132678","0.0-65.0","02C11AF356464923B16DAB6166ACF8CB","019ceda7-9e16-70b5-b05b-48108f2e7bfb","019ceda4-7502-7cd5-b642-b8a83a30c71c","","null","
                <div class=""stimulus-container"">
                    <img src=""images/causal_sequence/dog_causal/dog_causal_4.png"" class=""exp-image"">
                    <div class=""question-area""></div> 
                </div>","null","","","","","","","",""
"","","","","","html-button-response","66","1133734","0.0-66.0","02C11AF356464923B16DAB6166ACF8CB","019ceda7-9e16-70b5-b05b-48108f2e7bfb","019ceda4-7502-7cd5-b642-b8a83a30c71c","","1053","
                <div class=""stimulus-container"">
                    <img src=""images/causal_sequence/dog_causal/dog_causal_4.png"" class=""exp-image"">
                    <div class=""question-area"">
                        <p style=""font-size: 20px; font-weight: bold; margin: 0;"">Is there a person in this image?</p>
                    </div>
                </div>","0","main_experiment_trial","4","dog_causal","causal_sequence","","","",""
"","","","","","html-keyboard-response","67","1138744","0.0-67.0","02C11AF356464923B16DAB6166ACF8CB","019ceda7-9e16-70b5-b05b-48108f2e7bfb","019ceda4-7502-7cd5-b642-b8a83a30c71c","","null","
                <div class=""stimulus-container"">
                    <img src=""images/causal_sequence/dog_causal/dog_causal_5.png"" class=""exp-image"">
                    <div class=""question-area""></div> 
                </div>","null","","","","","","","",""
"","","","","","html-button-response","68","1139599","0.0-68.0","02C11AF356464923B16DAB6166ACF8CB","019ceda7-9e16-70b5-b05b-48108f2e7bfb","019ceda4-7502-7cd5-b642-b8a83a30c71c","","853","
                <div class=""stimulus-container"">
                    <img src=""images/causal_sequence/dog_causal/dog_causal_5.png"" class=""exp-image"">
                    <div class=""question-area"">
                        <p style=""font-size: 20px; font-weight: bold; margin: 0;"">Is there a person in this image?</p>
                    </div>
                </div>","0","main_experiment_trial","5","dog_causal","causal_sequence","","","",""
"","","","","","html-keyboard-response","69","1144613","0.0-69.0","02C11AF356464923B16DAB6166ACF8CB","019ceda7-9e16-70b5-b05b-48108f2e7bfb","019ceda4-7502-7cd5-b642-b8a83a30c71c","","null","
                <div class=""stimulus-container"">
                    <img src=""images/causal_sequence/dog_causal/dog_causal_6.png"" class=""exp-image"">
                    <div class=""question-area""></div> 
                </div>","null","","","","","","","",""
"","","","","","html-button-response","70","1145519","0.0-70.0","02C11AF356464923B16DAB6166ACF8CB","019ceda7-9e16-70b5-b05b-48108f2e7bfb","019ceda4-7502-7cd5-b642-b8a83a30c71c","","904","
                <div class=""stimulus-container"">
                    <img src=""images/causal_sequence/dog_causal/dog_causal_6.png"" class=""exp-image"">
                    <div class=""question-area"">
                        <p style=""font-size: 20px; font-weight: bold; margin: 0;"">Is there a person in this image?</p>
                    </div>
                </div>","0","main_experiment_trial","6","dog_causal","causal_sequence","","","",""
"","","","","","html-keyboard-response","71","1150528","0.0-71.0","02C11AF356464923B16DAB6166ACF8CB","019ceda7-9e16-70b5-b05b-48108f2e7bfb","019ceda4-7502-7cd5-b642-b8a83a30c71c","","null","
                <div class=""stimulus-container"">
                    <img src=""images/causal_sequence/dog_causal/dog_causal_7.png"" class=""exp-image"">
                    <div class=""question-area""></div> 
                </div>","null","","","","","","","",""
"","","","","","html-button-response","72","1151617","0.0-72.0","02C11AF356464923B16DAB6166ACF8CB","019ceda7-9e16-70b5-b05b-48108f2e7bfb","019ceda4-7502-7cd5-b642-b8a83a30c71c","","1089","
                <div class=""stimulus-container"">
                    <img src=""images/causal_sequence/dog_causal/dog_causal_7.png"" class=""exp-image"">
                    <div class=""question-area"">
                        <p style=""font-size: 20px; font-weight: bold; margin: 0;"">Is there a person in this image?</p>
                    </div>
                </div>","0","main_experiment_trial","7","dog_causal","causal_sequence","","","",""
"","","","","","html-keyboard-response","73","1156628","0.0-73.0","02C11AF356464923B16DAB6166ACF8CB","019ceda7-9e16-70b5-b05b-48108f2e7bfb","019ceda4-7502-7cd5-b642-b8a83a30c71c","","null","
                <div class=""stimulus-container"">
                    <img src=""images/causal_sequence/dog_causal/dog_causal_8.png"" class=""exp-image"">
                    <div class=""question-area""></div> 
                </div>","null","","","","","","","",""
"","","","","","html-button-response","74","1158113","0.0-74.0","02C11AF356464923B16DAB6166ACF8CB","019ceda7-9e16-70b5-b05b-48108f2e7bfb","019ceda4-7502-7cd5-b642-b8a83a30c71c","","1482","
                <div class=""stimulus-container"">
                    <img src=""images/causal_sequence/dog_causal/dog_causal_8.png"" class=""exp-image"">
                    <div class=""question-area"">
                        <p style=""font-size: 20px; font-weight: bold; margin: 0;"">Is there a person in this image?</p>
                    </div>
                </div>","0","main_experiment_trial","8","dog_causal","causal_sequence","","","",""
"","","","","","html-keyboard-response","75","1163129","0.0-75.0","02C11AF356464923B16DAB6166ACF8CB","019ceda7-9e16-70b5-b05b-48108f2e7bfb","019ceda4-7502-7cd5-b642-b8a83a30c71c","","null","
                <div class=""stimulus-container"">
                    <img src=""images/causal_sequence/dog_causal/dog_causal_9.png"" class=""exp-image"">
                    <div class=""question-area""></div> 
                </div>","null","","","","","","","",""
"","","","","","html-button-response","76","1164501","0.0-76.0","02C11AF356464923B16DAB6166ACF8CB","019ceda7-9e16-70b5-b05b-48108f2e7bfb","019ceda4-7502-7cd5-b642-b8a83a30c71c","","1371","
                <div class=""stimulus-container"">
                    <img src=""images/causal_sequence/dog_causal/dog_causal_9.png"" class=""exp-image"">
                    <div class=""question-area"">
                        <p style=""font-size: 20px; font-weight: bold; margin: 0;"">Is there a person in this image?</p>
                    </div>
                </div>","0","main_experiment_trial","9","dog_causal","causal_sequence","","","",""
"","","","","","html-keyboard-response","77","1169511","0.0-77.0","02C11AF356464923B16DAB6166ACF8CB","019ceda7-9e16-70b5-b05b-48108f2e7bfb","019ceda4-7502-7cd5-b642-b8a83a30c71c","","null","
                <div class=""stimulus-container"">
                    <img src=""images/causal_sequence/dog_causal/dog_causal_ten.png"" class=""exp-image"">
                    <div class=""question-area""></div> 
                </div>","null","","","","","","","",""
"","","","","","html-button-response","78","1170771","0.0-78.0","02C11AF356464923B16DAB6166ACF8CB","019ceda7-9e16-70b5-b05b-48108f2e7bfb","019ceda4-7502-7cd5-b642-b8a83a30c71c","","1259","
                <div class=""stimulus-container"">
                    <img src=""images/causal_sequence/dog_causal/dog_causal_ten.png"" class=""exp-image"">
                    <div class=""question-area"">
                        <p style=""font-size: 20px; font-weight: bold; margin: 0;"">Is there a person in this image?</p>
                    </div>
                </div>","0","main_experiment_trial","ten","dog_causal","causal_sequence","","","",""
"","","","","","html-keyboard-response","79","1171777","0.0-79.0","02C11AF356464923B16DAB6166ACF8CB","019ceda7-9e16-70b5-b05b-48108f2e7bfb","019ceda4-7502-7cd5-b642-b8a83a30c71c","","null","<div style=""background-color: white; width: 100vw; height: 100vh;""></div>","null","","","","","","","",""
"","","","","","html-keyboard-response","80","1176794","0.0-80.0","02C11AF356464923B16DAB6166ACF8CB","019ceda7-9e16-70b5-b05b-48108f2e7bfb","019ceda4-7502-7cd5-b642-b8a83a30c71c","","null","
                <div class=""stimulus-container"">
                    <img src=""images/schematic_sequence/hotel_scheme/hotel_scheme_1.png"" class=""exp-image"">
                    <div class=""question-area""></div> 
                </div>","null","","","","","","","",""
"","","","","","html-button-response","81","1178796","0.0-81.0","02C11AF356464923B16DAB6166ACF8CB","019ceda7-9e16-70b5-b05b-48108f2e7bfb","019ceda4-7502-7cd5-b642-b8a83a30c71c","","2001","
                <div class=""stimulus-container"">
                    <img src=""images/schematic_sequence/hotel_scheme/hotel_scheme_1.png"" class=""exp-image"">
                    <div class=""question-area"">
                        <p style=""font-size: 20px; font-weight: bold; margin: 0;"">Is there a person in this image?</p>
                    </div>
                </div>","1","main_experiment_trial","1","hotel_scheme","schematic_sequence","","","",""
"","","","","","html-keyboard-response","82","1183800","0.0-82.0","02C11AF356464923B16DAB6166ACF8CB","019ceda7-9e16-70b5-b05b-48108f2e7bfb","019ceda4-7502-7cd5-b642-b8a83a30c71c","","null","
                <div class=""stimulus-container"">
                    <img src=""images/schematic_sequence/hotel_scheme/hotel_scheme_2.png"" class=""exp-image"">
                    <div class=""question-area""></div> 
                </div>","null","","","","","","","",""
"","","","","","html-button-response","83","1186137","0.0-83.0","02C11AF356464923B16DAB6166ACF8CB","019ceda7-9e16-70b5-b05b-48108f2e7bfb","019ceda4-7502-7cd5-b642-b8a83a30c71c","","2335","
                <div class=""stimulus-container"">
                    <img src=""images/schematic_sequence/hotel_scheme/hotel_scheme_2.png"" class=""exp-image"">
                    <div class=""question-area"">
                        <p style=""font-size: 20px; font-weight: bold; margin: 0;"">Is there a person in this image?</p>
                    </div>
                </div>","0","main_experiment_trial","2","hotel_scheme","schematic_sequence","","","",""
"","","","","","html-keyboard-response","84","1191145","0.0-84.0","02C11AF356464923B16DAB6166ACF8CB","019ceda7-9e16-70b5-b05b-48108f2e7bfb","019ceda4-7502-7cd5-b642-b8a83a30c71c","","null","
                <div class=""stimulus-container"">
                    <img src=""images/schematic_sequence/hotel_scheme/hotel_scheme_3.png"" class=""exp-image"">
                    <div class=""question-area""></div> 
                </div>","null","","","","","","","",""
"","","","","","html-button-response","85","1192163","0.0-85.0","02C11AF356464923B16DAB6166ACF8CB","019ceda7-9e16-70b5-b05b-48108f2e7bfb","019ceda4-7502-7cd5-b642-b8a83a30c71c","","1016","
                <div class=""stimulus-container"">
                    <img src=""images/schematic_sequence/hotel_scheme/hotel_scheme_3.png"" class=""exp-image"">
                    <div class=""question-area"">
                        <p style=""font-size: 20px; font-weight: bold; margin: 0;"">Is there a person in this image?</p>
                    </div>
                </div>","0","main_experiment_trial","3","hotel_scheme","schematic_sequence","","","",""
"","","","","","html-keyboard-response","86","1197167","0.0-86.0","02C11AF356464923B16DAB6166ACF8CB","019ceda7-9e16-70b5-b05b-48108f2e7bfb","019ceda4-7502-7cd5-b642-b8a83a30c71c","","null","
                <div class=""stimulus-container"">
                    <img src=""images/schematic_sequence/hotel_scheme/hotel_scheme_4.png"" class=""exp-image"">
                    <div class=""question-area""></div> 
                </div>","null","","","","","","","",""
"","","","","","html-button-response","87","1198046","0.0-87.0","02C11AF356464923B16DAB6166ACF8CB","019ceda7-9e16-70b5-b05b-48108f2e7bfb","019ceda4-7502-7cd5-b642-b8a83a30c71c","","877","
                <div class=""stimulus-container"">
                    <img src=""images/schematic_sequence/hotel_scheme/hotel_scheme_4.png"" class=""exp-image"">
                    <div class=""question-area"">
                        <p style=""font-size: 20px; font-weight: bold; margin: 0;"">Is there a person in this image?</p>
                    </div>
                </div>","1","main_experiment_trial","4","hotel_scheme","schematic_sequence","","","",""
"","","","","","html-keyboard-response","88","1203055","0.0-88.0","02C11AF356464923B16DAB6166ACF8CB","019ceda7-9e16-70b5-b05b-48108f2e7bfb","019ceda4-7502-7cd5-b642-b8a83a30c71c","","null","
                <div class=""stimulus-container"">
                    <img src=""images/schematic_sequence/hotel_scheme/hotel_scheme_5.png"" class=""exp-image"">
                    <div class=""question-area""></div> 
                </div>","null","","","","","","","",""
"","","","","","html-button-response","89","1204273","0.0-89.0","02C11AF356464923B16DAB6166ACF8CB","019ceda7-9e16-70b5-b05b-48108f2e7bfb","019ceda4-7502-7cd5-b642-b8a83a30c71c","","1216","
                <div class=""stimulus-container"">
                    <img src=""images/schematic_sequence/hotel_scheme/hotel_scheme_5.png"" class=""exp-image"">
                    <div class=""question-area"">
                        <p style=""font-size: 20px; font-weight: bold; margin: 0;"">Is there a person in this image?</p>
                    </div>
                </div>","0","main_experiment_trial","5","hotel_scheme","schematic_sequence","","","",""
"","","","","","html-keyboard-response","90","1209282","0.0-90.0","02C11AF356464923B16DAB6166ACF8CB","019ceda7-9e16-70b5-b05b-48108f2e7bfb","019ceda4-7502-7cd5-b642-b8a83a30c71c","","null","
                <div class=""stimulus-container"">
                    <img src=""images/schematic_sequence/hotel_scheme/hotel_scheme_6.png"" class=""exp-image"">
                    <div class=""question-area""></div> 
                </div>","null","","","","","","","",""
"","","","","","html-button-response","91","1210474","0.0-91.0","02C11AF356464923B16DAB6166ACF8CB","019ceda7-9e16-70b5-b05b-48108f2e7bfb","019ceda4-7502-7cd5-b642-b8a83a30c71c","","1190","
                <div class=""stimulus-container"">
                    <img src=""images/schematic_sequence/hotel_scheme/hotel_scheme_6.png"" class=""exp-image"">
                    <div class=""question-area"">
                        <p style=""font-size: 20px; font-weight: bold; margin: 0;"">Is there a person in this image?</p>
                    </div>
                </div>","0","main_experiment_trial","6","hotel_scheme","schematic_sequence","","","",""
"","","","","","html-keyboard-response","92","1215480","0.0-92.0","02C11AF356464923B16DAB6166ACF8CB","019ceda7-9e16-70b5-b05b-48108f2e7bfb","019ceda4-7502-7cd5-b642-b8a83a30c71c","","null","
                <div class=""stimulus-container"">
                    <img src=""images/schematic_sequence/hotel_scheme/hotel_scheme_7.png"" class=""exp-image"">
                    <div class=""question-area""></div> 
                </div>","null","","","","","","","",""
"","","","","","html-button-response","93","1216920","0.0-93.0","02C11AF356464923B16DAB6166ACF8CB","019ceda7-9e16-70b5-b05b-48108f2e7bfb","019ceda4-7502-7cd5-b642-b8a83a30c71c","","1439","
                <div class=""stimulus-container"">
                    <img src=""images/schematic_sequence/hotel_scheme/hotel_scheme_7.png"" class=""exp-image"">
                    <div class=""question-area"">
                        <p style=""font-size: 20px; font-weight: bold; margin: 0;"">Is there a person in this image?</p>
                    </div>
                </div>","0","main_experiment_trial","7","hotel_scheme","schematic_sequence","","","",""
"","","","","","html-keyboard-response","94","1221929","0.0-94.0","02C11AF356464923B16DAB6166ACF8CB","019ceda7-9e16-70b5-b05b-48108f2e7bfb","019ceda4-7502-7cd5-b642-b8a83a30c71c","","null","
                <div class=""stimulus-container"">
                    <img src=""images/schematic_sequence/hotel_scheme/hotel_scheme_8.png"" class=""exp-image"">
                    <div class=""question-area""></div> 
                </div>","null","","","","","","","",""
"","","","","","html-button-response","95","1222941","0.0-95.0","02C11AF356464923B16DAB6166ACF8CB","019ceda7-9e16-70b5-b05b-48108f2e7bfb","019ceda4-7502-7cd5-b642-b8a83a30c71c","","1011","
                <div class=""stimulus-container"">
                    <img src=""images/schematic_sequence/hotel_scheme/hotel_scheme_8.png"" class=""exp-image"">
                    <div class=""question-area"">
                        <p style=""font-size: 20px; font-weight: bold; margin: 0;"">Is there a person in this image?</p>
                    </div>
                </div>","0","main_experiment_trial","8","hotel_scheme","schematic_sequence","","","",""
"","","","","","html-keyboard-response","96","1227957","0.0-96.0","02C11AF356464923B16DAB6166ACF8CB","019ceda7-9e16-70b5-b05b-48108f2e7bfb","019ceda4-7502-7cd5-b642-b8a83a30c71c","","null","
                <div class=""stimulus-container"">
                    <img src=""images/schematic_sequence/hotel_scheme/hotel_scheme_9.png"" class=""exp-image"">
                    <div class=""question-area""></div> 
                </div>","null","","","","","","","",""
"","","","","","html-button-response","97","1230678","0.0-97.0","02C11AF356464923B16DAB6166ACF8CB","019ceda7-9e16-70b5-b05b-48108f2e7bfb","019ceda4-7502-7cd5-b642-b8a83a30c71c","","2718","
                <div class=""stimulus-container"">
                    <img src=""images/schematic_sequence/hotel_scheme/hotel_scheme_9.png"" class=""exp-image"">
                    <div class=""question-area"">
                        <p style=""font-size: 20px; font-weight: bold; margin: 0;"">Is there a person in this image?</p>
                    </div>
                </div>","0","main_experiment_trial","9","hotel_scheme","schematic_sequence","","","",""
"","","","","","html-keyboard-response","98","1235687","0.0-98.0","02C11AF356464923B16DAB6166ACF8CB","019ceda7-9e16-70b5-b05b-48108f2e7bfb","019ceda4-7502-7cd5-b642-b8a83a30c71c","","null","
                <div class=""stimulus-container"">
                    <img src=""images/schematic_sequence/hotel_scheme/hotel_scheme_ten.png"" class=""exp-image"">
                    <div class=""question-area""></div> 
                </div>","null","","","","","","","",""
"","","","","","html-button-response","99","1237896","0.0-99.0","02C11AF356464923B16DAB6166ACF8CB","019ceda7-9e16-70b5-b05b-48108f2e7bfb","019ceda4-7502-7cd5-b642-b8a83a30c71c","","2207","
                <div class=""stimulus-container"">
                    <img src=""images/schematic_sequence/hotel_scheme/hotel_scheme_ten.png"" class=""exp-image"">
                    <div class=""question-area"">
                        <p style=""font-size: 20px; font-weight: bold; margin: 0;"">Is there a person in this image?</p>
                    </div>
                </div>","0","main_experiment_trial","ten","hotel_scheme","schematic_sequence","","","",""
"","","","","","html-keyboard-response","100","1238910","0.0-100.0","02C11AF356464923B16DAB6166ACF8CB","019ceda7-9e16-70b5-b05b-48108f2e7bfb","019ceda4-7502-7cd5-b642-b8a83a30c71c","","null","<div style=""background-color: white; width: 100vw; height: 100vh;""></div>","null","","","","","","","",""
"","","","","","html-keyboard-response","101","1243912","0.0-101.0","02C11AF356464923B16DAB6166ACF8CB","019ceda7-9e16-70b5-b05b-48108f2e7bfb","019ceda4-7502-7cd5-b642-b8a83a30c71c","","null","
                <div class=""stimulus-container"">
                    <img src=""images/schematic_sequence/restaurant_scheme/restaurant_scheme_1.png"" class=""exp-image"">
                    <div class=""question-area""></div> 
                </div>","null","","","","","","","",""
"","","","","","html-button-response","102","1245221","0.0-102.0","02C11AF356464923B16DAB6166ACF8CB","019ceda7-9e16-70b5-b05b-48108f2e7bfb","019ceda4-7502-7cd5-b642-b8a83a30c71c","","1307","
                <div class=""stimulus-container"">
                    <img src=""images/schematic_sequence/restaurant_scheme/restaurant_scheme_1.png"" class=""exp-image"">
                    <div class=""question-area"">
                        <p style=""font-size: 20px; font-weight: bold; margin: 0;"">Is there a person in this image?</p>
                    </div>
                </div>","0","main_experiment_trial","1","restaurant_scheme","schematic_sequence","","","",""
"","","","","","html-keyboard-response","103","1250232","0.0-103.0","02C11AF356464923B16DAB6166ACF8CB","019ceda7-9e16-70b5-b05b-48108f2e7bfb","019ceda4-7502-7cd5-b642-b8a83a30c71c","","null","
                <div class=""stimulus-container"">
                    <img src=""images/schematic_sequence/restaurant_scheme/restaurant_scheme_2.png"" class=""exp-image"">
                    <div class=""question-area""></div> 
                </div>","null","","","","","","","",""
"","","","","","html-button-response","104","1252679","0.0-104.0","02C11AF356464923B16DAB6166ACF8CB","019ceda7-9e16-70b5-b05b-48108f2e7bfb","019ceda4-7502-7cd5-b642-b8a83a30c71c","","2445","
                <div class=""stimulus-container"">
                    <img src=""images/schematic_sequence/restaurant_scheme/restaurant_scheme_2.png"" class=""exp-image"">
                    <div class=""question-area"">
                        <p style=""font-size: 20px; font-weight: bold; margin: 0;"">Is there a person in this image?</p>
                    </div>
                </div>","1","main_experiment_trial","2","restaurant_scheme","schematic_sequence","","","",""
"","","","","","html-keyboard-response","105","1257694","0.0-105.0","02C11AF356464923B16DAB6166ACF8CB","019ceda7-9e16-70b5-b05b-48108f2e7bfb","019ceda4-7502-7cd5-b642-b8a83a30c71c","","null","
                <div class=""stimulus-container"">
                    <img src=""images/schematic_sequence/restaurant_scheme/restaurant_scheme_3.png"" class=""exp-image"">
                    <div class=""question-area""></div> 
                </div>","null","","","","","","","",""
"","","","","","html-button-response","106","1259848","0.0-106.0","02C11AF356464923B16DAB6166ACF8CB","019ceda7-9e16-70b5-b05b-48108f2e7bfb","019ceda4-7502-7cd5-b642-b8a83a30c71c","","2153","
                <div class=""stimulus-container"">
                    <img src=""images/schematic_sequence/restaurant_scheme/restaurant_scheme_3.png"" class=""exp-image"">
                    <div class=""question-area"">
                        <p style=""font-size: 20px; font-weight: bold; margin: 0;"">Is there a person in this image?</p>
                    </div>
                </div>","1","main_experiment_trial","3","restaurant_scheme","schematic_sequence","","","",""
"","","","","","html-keyboard-response","107","1264861","0.0-107.0","02C11AF356464923B16DAB6166ACF8CB","019ceda7-9e16-70b5-b05b-48108f2e7bfb","019ceda4-7502-7cd5-b642-b8a83a30c71c","","null","
                <div class=""stimulus-container"">
                    <img src=""images/schematic_sequence/restaurant_scheme/restaurant_scheme_4.png"" class=""exp-image"">
                    <div class=""question-area""></div> 
                </div>","null","","","","","","","",""
"","","","","","html-button-response","108","1266161","0.0-108.0","02C11AF356464923B16DAB6166ACF8CB","019ceda7-9e16-70b5-b05b-48108f2e7bfb","019ceda4-7502-7cd5-b642-b8a83a30c71c","","1299","
                <div class=""stimulus-container"">
                    <img src=""images/schematic_sequence/restaurant_scheme/restaurant_scheme_4.png"" class=""exp-image"">
                    <div class=""question-area"">
                        <p style=""font-size: 20px; font-weight: bold; margin: 0;"">Is there a person in this image?</p>
                    </div>
                </div>","0","main_experiment_trial","4","restaurant_scheme","schematic_sequence","","","",""
"","","","","","html-keyboard-response","109","1271163","0.0-109.0","02C11AF356464923B16DAB6166ACF8CB","019ceda7-9e16-70b5-b05b-48108f2e7bfb","019ceda4-7502-7cd5-b642-b8a83a30c71c","","null","
                <div class=""stimulus-container"">
                    <img src=""images/schematic_sequence/restaurant_scheme/restaurant_scheme_5.png"" class=""exp-image"">
                    <div class=""question-area""></div> 
                </div>","null","","","","","","","",""
"","","","","","html-button-response","110","1274171","0.0-110.0","02C11AF356464923B16DAB6166ACF8CB","019ceda7-9e16-70b5-b05b-48108f2e7bfb","019ceda4-7502-7cd5-b642-b8a83a30c71c","","null","
                <div class=""stimulus-container"">
                    <img src=""images/schematic_sequence/restaurant_scheme/restaurant_scheme_5.png"" class=""exp-image"">
                    <div class=""question-area"">
                        <p style=""font-size: 20px; font-weight: bold; margin: 0;"">Is there a person in this image?</p>
                    </div>
                </div>","null","main_experiment_trial","5","restaurant_scheme","schematic_sequence","","","",""
"","","","","","html-keyboard-response","111","1279173","0.0-111.0","02C11AF356464923B16DAB6166ACF8CB","019ceda7-9e16-70b5-b05b-48108f2e7bfb","019ceda4-7502-7cd5-b642-b8a83a30c71c","","null","
                <div class=""stimulus-container"">
                    <img src=""images/schematic_sequence/restaurant_scheme/restaurant_scheme_6.png"" class=""exp-image"">
                    <div class=""question-area""></div> 
                </div>","null","","","","","","","",""
"","","","","","html-button-response","112","1280527","0.0-112.0","02C11AF356464923B16DAB6166ACF8CB","019ceda7-9e16-70b5-b05b-48108f2e7bfb","019ceda4-7502-7cd5-b642-b8a83a30c71c","","1353","
                <div class=""stimulus-container"">
                    <img src=""images/schematic_sequence/restaurant_scheme/restaurant_scheme_6.png"" class=""exp-image"">
                    <div class=""question-area"">
                        <p style=""font-size: 20px; font-weight: bold; margin: 0;"">Is there a person in this image?</p>
                    </div>
                </div>","1","main_experiment_trial","6","restaurant_scheme","schematic_sequence","","","",""
"","","","","","html-keyboard-response","113","1285539","0.0-113.0","02C11AF356464923B16DAB6166ACF8CB","019ceda7-9e16-70b5-b05b-48108f2e7bfb","019ceda4-7502-7cd5-b642-b8a83a30c71c","","null","
                <div class=""stimulus-container"">
                    <img src=""images/schematic_sequence/restaurant_scheme/restaurant_scheme_7.png"" class=""exp-image"">
                    <div class=""question-area""></div> 
                </div>","null","","","","","","","",""
"","","","","","html-button-response","114","1286552","0.0-114.0","02C11AF356464923B16DAB6166ACF8CB","019ceda7-9e16-70b5-b05b-48108f2e7bfb","019ceda4-7502-7cd5-b642-b8a83a30c71c","","1012","
                <div class=""stimulus-container"">
                    <img src=""images/schematic_sequence/restaurant_scheme/restaurant_scheme_7.png"" class=""exp-image"">
                    <div class=""question-area"">
                        <p style=""font-size: 20px; font-weight: bold; margin: 0;"">Is there a person in this image?</p>
                    </div>
                </div>","1","main_experiment_trial","7","restaurant_scheme","schematic_sequence","","","",""
"","","","","","html-keyboard-response","115","1291563","0.0-115.0","02C11AF356464923B16DAB6166ACF8CB","019ceda7-9e16-70b5-b05b-48108f2e7bfb","019ceda4-7502-7cd5-b642-b8a83a30c71c","","null","
                <div class=""stimulus-container"">
                    <img src=""images/schematic_sequence/restaurant_scheme/restaurant_scheme_8.png"" class=""exp-image"">
                    <div class=""question-area""></div> 
                </div>","null","","","","","","","",""
"","","","","","html-button-response","116","1293110","0.0-116.0","02C11AF356464923B16DAB6166ACF8CB","019ceda7-9e16-70b5-b05b-48108f2e7bfb","019ceda4-7502-7cd5-b642-b8a83a30c71c","","1546","
                <div class=""stimulus-container"">
                    <img src=""images/schematic_sequence/restaurant_scheme/restaurant_scheme_8.png"" class=""exp-image"">
                    <div class=""question-area"">
                        <p style=""font-size: 20px; font-weight: bold; margin: 0;"">Is there a person in this image?</p>
                    </div>
                </div>","0","main_experiment_trial","8","restaurant_scheme","schematic_sequence","","","",""
"","","","","","html-keyboard-response","117","1298114","0.0-117.0","02C11AF356464923B16DAB6166ACF8CB","019ceda7-9e16-70b5-b05b-48108f2e7bfb","019ceda4-7502-7cd5-b642-b8a83a30c71c","","null","
                <div class=""stimulus-container"">
                    <img src=""images/schematic_sequence/restaurant_scheme/restaurant_scheme_9.png"" class=""exp-image"">
                    <div class=""question-area""></div> 
                </div>","null","","","","","","","",""
"","","","","","html-button-response","118","1298953","0.0-118.0","02C11AF356464923B16DAB6166ACF8CB","019ceda7-9e16-70b5-b05b-48108f2e7bfb","019ceda4-7502-7cd5-b642-b8a83a30c71c","","837","
                <div class=""stimulus-container"">
                    <img src=""images/schematic_sequence/restaurant_scheme/restaurant_scheme_9.png"" class=""exp-image"">
                    <div class=""question-area"">
                        <p style=""font-size: 20px; font-weight: bold; margin: 0;"">Is there a person in this image?</p>
                    </div>
                </div>","0","main_experiment_trial","9","restaurant_scheme","schematic_sequence","","","",""
"","","","","","html-keyboard-response","119","1303955","0.0-119.0","02C11AF356464923B16DAB6166ACF8CB","019ceda7-9e16-70b5-b05b-48108f2e7bfb","019ceda4-7502-7cd5-b642-b8a83a30c71c","","null","
                <div class=""stimulus-container"">
                    <img src=""images/schematic_sequence/restaurant_scheme/restaurant_scheme_ten.png"" class=""exp-image"">
                    <div class=""question-area""></div> 
                </div>","null","","","","","","","",""
"","","","","","html-button-response","120","1304808","0.0-120.0","02C11AF356464923B16DAB6166ACF8CB","019ceda7-9e16-70b5-b05b-48108f2e7bfb","019ceda4-7502-7cd5-b642-b8a83a30c71c","","851","
                <div class=""stimulus-container"">
                    <img src=""images/schematic_sequence/restaurant_scheme/restaurant_scheme_ten.png"" class=""exp-image"">
                    <div class=""question-area"">
                        <p style=""font-size: 20px; font-weight: bold; margin: 0;"">Is there a person in this image?</p>
                    </div>
                </div>","0","main_experiment_trial","ten","restaurant_scheme","schematic_sequence","","","",""
"","","","","","html-keyboard-response","121","1305809","0.0-121.0","02C11AF356464923B16DAB6166ACF8CB","019ceda7-9e16-70b5-b05b-48108f2e7bfb","019ceda4-7502-7cd5-b642-b8a83a30c71c","","null","<div style=""background-color: white; width: 100vw; height: 100vh;""></div>","null","","","","","","","",""
"","","","","","html-keyboard-response","122","1310815","0.0-122.0","02C11AF356464923B16DAB6166ACF8CB","019ceda7-9e16-70b5-b05b-48108f2e7bfb","019ceda4-7502-7cd5-b642-b8a83a30c71c","","null","
                <div class=""stimulus-container"">
                    <img src=""images/causal_sequence/saving_a_cat_causal/saving_a_cat_causal_1.png"" class=""exp-image"">
                    <div class=""question-area""></div> 
                </div>","null","","","","","","","",""
"","","","","","html-button-response","123","1311741","0.0-123.0","02C11AF356464923B16DAB6166ACF8CB","019ceda7-9e16-70b5-b05b-48108f2e7bfb","019ceda4-7502-7cd5-b642-b8a83a30c71c","","924","
                <div class=""stimulus-container"">
                    <img src=""images/causal_sequence/saving_a_cat_causal/saving_a_cat_causal_1.png"" class=""exp-image"">
                    <div class=""question-area"">
                        <p style=""font-size: 20px; font-weight: bold; margin: 0;"">Is there a person in this image?</p>
                    </div>
                </div>","0","main_experiment_trial","1","saving_a_cat_causal","causal_sequence","","","",""
"","","","","","html-keyboard-response","124","1316747","0.0-124.0","02C11AF356464923B16DAB6166ACF8CB","019ceda7-9e16-70b5-b05b-48108f2e7bfb","019ceda4-7502-7cd5-b642-b8a83a30c71c","","null","
                <div class=""stimulus-container"">
                    <img src=""images/causal_sequence/saving_a_cat_causal/saving_a_cat_causal_2.png"" class=""exp-image"">
                    <div class=""question-area""></div> 
                </div>","null","","","","","","","",""
"","","","","","html-button-response","125","1317505","0.0-125.0","02C11AF356464923B16DAB6166ACF8CB","019ceda7-9e16-70b5-b05b-48108f2e7bfb","019ceda4-7502-7cd5-b642-b8a83a30c71c","","757","
                <div class=""stimulus-container"">
                    <img src=""images/causal_sequence/saving_a_cat_causal/saving_a_cat_causal_2.png"" class=""exp-image"">
                    <div class=""question-area"">
                        <p style=""font-size: 20px; font-weight: bold; margin: 0;"">Is there a person in this image?</p>
                    </div>
                </div>","1","main_experiment_trial","2","saving_a_cat_causal","causal_sequence","","","",""
"","","","","","html-keyboard-response","126","1322514","0.0-126.0","02C11AF356464923B16DAB6166ACF8CB","019ceda7-9e16-70b5-b05b-48108f2e7bfb","019ceda4-7502-7cd5-b642-b8a83a30c71c","","null","
                <div class=""stimulus-container"">
                    <img src=""images/causal_sequence/saving_a_cat_causal/saving_a_cat_causal_3.png"" class=""exp-image"">
                    <div class=""question-area""></div> 
                </div>","null","","","","","","","",""
"","","","","","html-button-response","127","1325529","0.0-127.0","02C11AF356464923B16DAB6166ACF8CB","019ceda7-9e16-70b5-b05b-48108f2e7bfb","019ceda4-7502-7cd5-b642-b8a83a30c71c","","null","
                <div class=""stimulus-container"">
                    <img src=""images/causal_sequence/saving_a_cat_causal/saving_a_cat_causal_3.png"" class=""exp-image"">
                    <div class=""question-area"">
                        <p style=""font-size: 20px; font-weight: bold; margin: 0;"">Is there a person in this image?</p>
                    </div>
                </div>","null","main_experiment_trial","3","saving_a_cat_causal","causal_sequence","","","",""
"","","","","","html-keyboard-response","128","1330533","0.0-128.0","02C11AF356464923B16DAB6166ACF8CB","019ceda7-9e16-70b5-b05b-48108f2e7bfb","019ceda4-7502-7cd5-b642-b8a83a30c71c","","null","
                <div class=""stimulus-container"">
                    <img src=""images/causal_sequence/saving_a_cat_causal/saving_a_cat_causal_4.png"" class=""exp-image"">
                    <div class=""question-area""></div> 
                </div>","null","","","","","","","",""
"","","","","","html-button-response","129","1332960","0.0-129.0","02C11AF356464923B16DAB6166ACF8CB","019ceda7-9e16-70b5-b05b-48108f2e7bfb","019ceda4-7502-7cd5-b642-b8a83a30c71c","","2425","
                <div class=""stimulus-container"">
                    <img src=""images/causal_sequence/saving_a_cat_causal/saving_a_cat_causal_4.png"" class=""exp-image"">
                    <div class=""question-area"">
                        <p style=""font-size: 20px; font-weight: bold; margin: 0;"">Is there a person in this image?</p>
                    </div>
                </div>","0","main_experiment_trial","4","saving_a_cat_causal","causal_sequence","","","",""
"","","","","","html-keyboard-response","130","1337964","0.0-130.0","02C11AF356464923B16DAB6166ACF8CB","019ceda7-9e16-70b5-b05b-48108f2e7bfb","019ceda4-7502-7cd5-b642-b8a83a30c71c","","null","
                <div class=""stimulus-container"">
                    <img src=""images/causal_sequence/saving_a_cat_causal/saving_a_cat_causal_5.png"" class=""exp-image"">
                    <div class=""question-area""></div> 
                </div>","null","","","","","","","",""
"","","","","","html-button-response","131","1338662","0.0-131.0","02C11AF356464923B16DAB6166ACF8CB","019ceda7-9e16-70b5-b05b-48108f2e7bfb","019ceda4-7502-7cd5-b642-b8a83a30c71c","","696","
                <div class=""stimulus-container"">
                    <img src=""images/causal_sequence/saving_a_cat_causal/saving_a_cat_causal_5.png"" class=""exp-image"">
                    <div class=""question-area"">
                        <p style=""font-size: 20px; font-weight: bold; margin: 0;"">Is there a person in this image?</p>
                    </div>
                </div>","0","main_experiment_trial","5","saving_a_cat_causal","causal_sequence","","","",""
"","","","","","html-keyboard-response","132","1343679","0.0-132.0","02C11AF356464923B16DAB6166ACF8CB","019ceda7-9e16-70b5-b05b-48108f2e7bfb","019ceda4-7502-7cd5-b642-b8a83a30c71c","","null","
                <div class=""stimulus-container"">
                    <img src=""images/causal_sequence/saving_a_cat_causal/saving_a_cat_causal_6.png"" class=""exp-image"">
                    <div class=""question-area""></div> 
                </div>","null","","","","","","","",""
"","","","","","html-button-response","133","1344407","0.0-133.0","02C11AF356464923B16DAB6166ACF8CB","019ceda7-9e16-70b5-b05b-48108f2e7bfb","019ceda4-7502-7cd5-b642-b8a83a30c71c","","727","
                <div class=""stimulus-container"">
                    <img src=""images/causal_sequence/saving_a_cat_causal/saving_a_cat_causal_6.png"" class=""exp-image"">
                    <div class=""question-area"">
                        <p style=""font-size: 20px; font-weight: bold; margin: 0;"">Is there a person in this image?</p>
                    </div>
                </div>","0","main_experiment_trial","6","saving_a_cat_causal","causal_sequence","","","",""
"","","","","","html-keyboard-response","134","1349410","0.0-134.0","02C11AF356464923B16DAB6166ACF8CB","019ceda7-9e16-70b5-b05b-48108f2e7bfb","019ceda4-7502-7cd5-b642-b8a83a30c71c","","null","
                <div class=""stimulus-container"">
                    <img src=""images/causal_sequence/saving_a_cat_causal/saving_a_cat_causal_7.png"" class=""exp-image"">
                    <div class=""question-area""></div> 
                </div>","null","","","","","","","",""
"","","","","","html-button-response","135","1350242","0.0-135.0","02C11AF356464923B16DAB6166ACF8CB","019ceda7-9e16-70b5-b05b-48108f2e7bfb","019ceda4-7502-7cd5-b642-b8a83a30c71c","","830","
                <div class=""stimulus-container"">
                    <img src=""images/causal_sequence/saving_a_cat_causal/saving_a_cat_causal_7.png"" class=""exp-image"">
                    <div class=""question-area"">
                        <p style=""font-size: 20px; font-weight: bold; margin: 0;"">Is there a person in this image?</p>
                    </div>
                </div>","0","main_experiment_trial","7","saving_a_cat_causal","causal_sequence","","","",""
"","","","","","html-keyboard-response","136","1355250","0.0-136.0","02C11AF356464923B16DAB6166ACF8CB","019ceda7-9e16-70b5-b05b-48108f2e7bfb","019ceda4-7502-7cd5-b642-b8a83a30c71c","","null","
                <div class=""stimulus-container"">
                    <img src=""images/causal_sequence/saving_a_cat_causal/saving_a_cat_causal_8.png"" class=""exp-image"">
                    <div class=""question-area""></div> 
                </div>","null","","","","","","","",""
"","","","","","html-button-response","137","1356017","0.0-137.0","02C11AF356464923B16DAB6166ACF8CB","019ceda7-9e16-70b5-b05b-48108f2e7bfb","019ceda4-7502-7cd5-b642-b8a83a30c71c","","764","
                <div class=""stimulus-container"">
                    <img src=""images/causal_sequence/saving_a_cat_causal/saving_a_cat_causal_8.png"" class=""exp-image"">
                    <div class=""question-area"">
                        <p style=""font-size: 20px; font-weight: bold; margin: 0;"">Is there a person in this image?</p>
                    </div>
                </div>","0","main_experiment_trial","8","saving_a_cat_causal","causal_sequence","","","",""
"","","","","","html-keyboard-response","138","1361029","0.0-138.0","02C11AF356464923B16DAB6166ACF8CB","019ceda7-9e16-70b5-b05b-48108f2e7bfb","019ceda4-7502-7cd5-b642-b8a83a30c71c","","null","
                <div class=""stimulus-container"">
                    <img src=""images/causal_sequence/saving_a_cat_causal/saving_a_cat_causal_9.png"" class=""exp-image"">
                    <div class=""question-area""></div> 
                </div>","null","","","","","","","",""
"","","","","","html-button-response","139","1361801","0.0-139.0","02C11AF356464923B16DAB6166ACF8CB","019ceda7-9e16-70b5-b05b-48108f2e7bfb","019ceda4-7502-7cd5-b642-b8a83a30c71c","","771","
                <div class=""stimulus-container"">
                    <img src=""images/causal_sequence/saving_a_cat_causal/saving_a_cat_causal_9.png"" class=""exp-image"">
                    <div class=""question-area"">
                        <p style=""font-size: 20px; font-weight: bold; margin: 0;"">Is there a person in this image?</p>
                    </div>
                </div>","0","main_experiment_trial","9","saving_a_cat_causal","causal_sequence","","","",""
"","","","","","html-keyboard-response","140","1366811","0.0-140.0","02C11AF356464923B16DAB6166ACF8CB","019ceda7-9e16-70b5-b05b-48108f2e7bfb","019ceda4-7502-7cd5-b642-b8a83a30c71c","","null","
                <div class=""stimulus-container"">
                    <img src=""images/causal_sequence/saving_a_cat_causal/saving_a_cat_causal_ten.png"" class=""exp-image"">
                    <div class=""question-area""></div> 
                </div>","null","","","","","","","",""
"","","","","","html-button-response","141","1367757","0.0-141.0","02C11AF356464923B16DAB6166ACF8CB","019ceda7-9e16-70b5-b05b-48108f2e7bfb","019ceda4-7502-7cd5-b642-b8a83a30c71c","","945","
                <div class=""stimulus-container"">
                    <img src=""images/causal_sequence/saving_a_cat_causal/saving_a_cat_causal_ten.png"" class=""exp-image"">
                    <div class=""question-area"">
                        <p style=""font-size: 20px; font-weight: bold; margin: 0;"">Is there a person in this image?</p>
                    </div>
                </div>","0","main_experiment_trial","ten","saving_a_cat_causal","causal_sequence","","","",""
"","","","","","html-keyboard-response","142","1368761","0.0-142.0","02C11AF356464923B16DAB6166ACF8CB","019ceda7-9e16-70b5-b05b-48108f2e7bfb","019ceda4-7502-7cd5-b642-b8a83a30c71c","","null","<div style=""background-color: white; width: 100vw; height: 100vh;""></div>","null","","","","","","","",""
"","","","","","html-keyboard-response","143","1373772","0.0-143.0","02C11AF356464923B16DAB6166ACF8CB","019ceda7-9e16-70b5-b05b-48108f2e7bfb","019ceda4-7502-7cd5-b642-b8a83a30c71c","","null","
                <div class=""stimulus-container"">
                    <img src=""images/schematic_sequence/interview_scheme/interview_scheme_1.png"" class=""exp-image"">
                    <div class=""question-area""></div> 
                </div>","null","","","","","","","",""
"","","","","","html-button-response","144","1374900","0.0-144.0","02C11AF356464923B16DAB6166ACF8CB","019ceda7-9e16-70b5-b05b-48108f2e7bfb","019ceda4-7502-7cd5-b642-b8a83a30c71c","","1127","
                <div class=""stimulus-container"">
                    <img src=""images/schematic_sequence/interview_scheme/interview_scheme_1.png"" class=""exp-image"">
                    <div class=""question-area"">
                        <p style=""font-size: 20px; font-weight: bold; margin: 0;"">Is there a person in this image?</p>
                    </div>
                </div>","1","main_experiment_trial","1","interview_scheme","schematic_sequence","","","",""
"","","","","","html-keyboard-response","145","1379912","0.0-145.0","02C11AF356464923B16DAB6166ACF8CB","019ceda7-9e16-70b5-b05b-48108f2e7bfb","019ceda4-7502-7cd5-b642-b8a83a30c71c","","null","
                <div class=""stimulus-container"">
                    <img src=""images/schematic_sequence/interview_scheme/interview_scheme_2.png"" class=""exp-image"">
                    <div class=""question-area""></div> 
                </div>","null","","","","","","","",""
"","","","","","html-button-response","146","1381398","0.0-146.0","02C11AF356464923B16DAB6166ACF8CB","019ceda7-9e16-70b5-b05b-48108f2e7bfb","019ceda4-7502-7cd5-b642-b8a83a30c71c","","1485","
                <div class=""stimulus-container"">
                    <img src=""images/schematic_sequence/interview_scheme/interview_scheme_2.png"" class=""exp-image"">
                    <div class=""question-area"">
                        <p style=""font-size: 20px; font-weight: bold; margin: 0;"">Is there a person in this image?</p>
                    </div>
                </div>","0","main_experiment_trial","2","interview_scheme","schematic_sequence","","","",""
"","","","","","html-keyboard-response","147","1386400","0.0-147.0","02C11AF356464923B16DAB6166ACF8CB","019ceda7-9e16-70b5-b05b-48108f2e7bfb","019ceda4-7502-7cd5-b642-b8a83a30c71c","","null","
                <div class=""stimulus-container"">
                    <img src=""images/schematic_sequence/interview_scheme/interview_scheme_3.png"" class=""exp-image"">
                    <div class=""question-area""></div> 
                </div>","null","","","","","","","",""
"","","","","","html-button-response","148","1387466","0.0-148.0","02C11AF356464923B16DAB6166ACF8CB","019ceda7-9e16-70b5-b05b-48108f2e7bfb","019ceda4-7502-7cd5-b642-b8a83a30c71c","","1064","
                <div class=""stimulus-container"">
                    <img src=""images/schematic_sequence/interview_scheme/interview_scheme_3.png"" class=""exp-image"">
                    <div class=""question-area"">
                        <p style=""font-size: 20px; font-weight: bold; margin: 0;"">Is there a person in this image?</p>
                    </div>
                </div>","1","main_experiment_trial","3","interview_scheme","schematic_sequence","","","",""
"","","","","","html-keyboard-response","149","1392478","0.0-149.0","02C11AF356464923B16DAB6166ACF8CB","019ceda7-9e16-70b5-b05b-48108f2e7bfb","019ceda4-7502-7cd5-b642-b8a83a30c71c","","null","
                <div class=""stimulus-container"">
                    <img src=""images/schematic_sequence/interview_scheme/interview_scheme_4.png"" class=""exp-image"">
                    <div class=""question-area""></div> 
                </div>","null","","","","","","","",""
"","","","","","html-button-response","150","1393270","0.0-150.0","02C11AF356464923B16DAB6166ACF8CB","019ceda7-9e16-70b5-b05b-48108f2e7bfb","019ceda4-7502-7cd5-b642-b8a83a30c71c","","790","
                <div class=""stimulus-container"">
                    <img src=""images/schematic_sequence/interview_scheme/interview_scheme_4.png"" class=""exp-image"">
                    <div class=""question-area"">
                        <p style=""font-size: 20px; font-weight: bold; margin: 0;"">Is there a person in this image?</p>
                    </div>
                </div>","1","main_experiment_trial","4","interview_scheme","schematic_sequence","","","",""
"","","","","","html-keyboard-response","151","1398276","0.0-151.0","02C11AF356464923B16DAB6166ACF8CB","019ceda7-9e16-70b5-b05b-48108f2e7bfb","019ceda4-7502-7cd5-b642-b8a83a30c71c","","null","
                <div class=""stimulus-container"">
                    <img src=""images/schematic_sequence/interview_scheme/interview_scheme_5.png"" class=""exp-image"">
                    <div class=""question-area""></div> 
                </div>","null","","","","","","","",""
"","","","","","html-button-response","152","1398956","0.0-152.0","02C11AF356464923B16DAB6166ACF8CB","019ceda7-9e16-70b5-b05b-48108f2e7bfb","019ceda4-7502-7cd5-b642-b8a83a30c71c","","678","
                <div class=""stimulus-container"">
                    <img src=""images/schematic_sequence/interview_scheme/interview_scheme_5.png"" class=""exp-image"">
                    <div class=""question-area"">
                        <p style=""font-size: 20px; font-weight: bold; margin: 0;"">Is there a person in this image?</p>
                    </div>
                </div>","0","main_experiment_trial","5","interview_scheme","schematic_sequence","","","",""
"","","","","","html-keyboard-response","153","1403964","0.0-153.0","02C11AF356464923B16DAB6166ACF8CB","019ceda7-9e16-70b5-b05b-48108f2e7bfb","019ceda4-7502-7cd5-b642-b8a83a30c71c","","null","
                <div class=""stimulus-container"">
                    <img src=""images/schematic_sequence/interview_scheme/interview_scheme_6.png"" class=""exp-image"">
                    <div class=""question-area""></div> 
                </div>","null","","","","","","","",""
"","","","","","html-button-response","154","1406977","0.0-154.0","02C11AF356464923B16DAB6166ACF8CB","019ceda7-9e16-70b5-b05b-48108f2e7bfb","019ceda4-7502-7cd5-b642-b8a83a30c71c","","null","
                <div class=""stimulus-container"">
                    <img src=""images/schematic_sequence/interview_scheme/interview_scheme_6.png"" class=""exp-image"">
                    <div class=""question-area"">
                        <p style=""font-size: 20px; font-weight: bold; margin: 0;"">Is there a person in this image?</p>
                    </div>
                </div>","null","main_experiment_trial","6","interview_scheme","schematic_sequence","","","",""
"","","","","","html-keyboard-response","155","1411984","0.0-155.0","02C11AF356464923B16DAB6166ACF8CB","019ceda7-9e16-70b5-b05b-48108f2e7bfb","019ceda4-7502-7cd5-b642-b8a83a30c71c","","null","
                <div class=""stimulus-container"">
                    <img src=""images/schematic_sequence/interview_scheme/interview_scheme_7.png"" class=""exp-image"">
                    <div class=""question-area""></div> 
                </div>","null","","","","","","","",""
"","","","","","html-button-response","156","1412688","0.0-156.0","02C11AF356464923B16DAB6166ACF8CB","019ceda7-9e16-70b5-b05b-48108f2e7bfb","019ceda4-7502-7cd5-b642-b8a83a30c71c","","702","
                <div class=""stimulus-container"">
                    <img src=""images/schematic_sequence/interview_scheme/interview_scheme_7.png"" class=""exp-image"">
                    <div class=""question-area"">
                        <p style=""font-size: 20px; font-weight: bold; margin: 0;"">Is there a person in this image?</p>
                    </div>
                </div>","0","main_experiment_trial","7","interview_scheme","schematic_sequence","","","",""
"","","","","","html-keyboard-response","157","1417692","0.0-157.0","02C11AF356464923B16DAB6166ACF8CB","019ceda7-9e16-70b5-b05b-48108f2e7bfb","019ceda4-7502-7cd5-b642-b8a83a30c71c","","null","
                <div class=""stimulus-container"">
                    <img src=""images/schematic_sequence/interview_scheme/interview_scheme_8.png"" class=""exp-image"">
                    <div class=""question-area""></div> 
                </div>","null","","","","","","","",""
"","","","","","html-button-response","158","1418625","0.0-158.0","02C11AF356464923B16DAB6166ACF8CB","019ceda7-9e16-70b5-b05b-48108f2e7bfb","019ceda4-7502-7cd5-b642-b8a83a30c71c","","931","
                <div class=""stimulus-container"">
                    <img src=""images/schematic_sequence/interview_scheme/interview_scheme_8.png"" class=""exp-image"">
                    <div class=""question-area"">
                        <p style=""font-size: 20px; font-weight: bold; margin: 0;"">Is there a person in this image?</p>
                    </div>
                </div>","0","main_experiment_trial","8","interview_scheme","schematic_sequence","","","",""
"","","","","","html-keyboard-response","159","1423630","0.0-159.0","02C11AF356464923B16DAB6166ACF8CB","019ceda7-9e16-70b5-b05b-48108f2e7bfb","019ceda4-7502-7cd5-b642-b8a83a30c71c","","null","
                <div class=""stimulus-container"">
                    <img src=""images/schematic_sequence/interview_scheme/interview_scheme_9.png"" class=""exp-image"">
                    <div class=""question-area""></div> 
                </div>","null","","","","","","","",""
"","","","","","html-button-response","160","1424507","0.0-160.0","02C11AF356464923B16DAB6166ACF8CB","019ceda7-9e16-70b5-b05b-48108f2e7bfb","019ceda4-7502-7cd5-b642-b8a83a30c71c","","875","
                <div class=""stimulus-container"">
                    <img src=""images/schematic_sequence/interview_scheme/interview_scheme_9.png"" class=""exp-image"">
                    <div class=""question-area"">
                        <p style=""font-size: 20px; font-weight: bold; margin: 0;"">Is there a person in this image?</p>
                    </div>
                </div>","0","main_experiment_trial","9","interview_scheme","schematic_sequence","","","",""
"","","","","","html-keyboard-response","161","1429511","0.0-161.0","02C11AF356464923B16DAB6166ACF8CB","019ceda7-9e16-70b5-b05b-48108f2e7bfb","019ceda4-7502-7cd5-b642-b8a83a30c71c","","null","
                <div class=""stimulus-container"">
                    <img src=""images/schematic_sequence/interview_scheme/interview_scheme_ten.png"" class=""exp-image"">
                    <div class=""question-area""></div> 
                </div>","null","","","","","","","",""
"","","","","","html-button-response","162","1430994","0.0-162.0","02C11AF356464923B16DAB6166ACF8CB","019ceda7-9e16-70b5-b05b-48108f2e7bfb","019ceda4-7502-7cd5-b642-b8a83a30c71c","","1482","
                <div class=""stimulus-container"">
                    <img src=""images/schematic_sequence/interview_scheme/interview_scheme_ten.png"" class=""exp-image"">
                    <div class=""question-area"">
                        <p style=""font-size: 20px; font-weight: bold; margin: 0;"">Is there a person in this image?</p>
                    </div>
                </div>","0","main_experiment_trial","ten","interview_scheme","schematic_sequence","","","",""
"","","","","","html-keyboard-response","163","1432009","0.0-163.0","02C11AF356464923B16DAB6166ACF8CB","019ceda7-9e16-70b5-b05b-48108f2e7bfb","019ceda4-7502-7cd5-b642-b8a83a30c71c","","null","<div style=""background-color: white; width: 100vw; height: 100vh;""></div>","null","","","","","","","",""
"","","","","","html-keyboard-response","164","1437012","0.0-164.0","02C11AF356464923B16DAB6166ACF8CB","019ceda7-9e16-70b5-b05b-48108f2e7bfb","019ceda4-7502-7cd5-b642-b8a83a30c71c","","null","
                <div class=""stimulus-container"">
                    <img src=""images/causal_sequence/coin_causal/coin_causal_1.png"" class=""exp-image"">
                    <div class=""question-area""></div> 
                </div>","null","","","","","","","",""
"","","","","","html-button-response","165","1437785","0.0-165.0","02C11AF356464923B16DAB6166ACF8CB","019ceda7-9e16-70b5-b05b-48108f2e7bfb","019ceda4-7502-7cd5-b642-b8a83a30c71c","","772","
                <div class=""stimulus-container"">
                    <img src=""images/causal_sequence/coin_causal/coin_causal_1.png"" class=""exp-image"">
                    <div class=""question-area"">
                        <p style=""font-size: 20px; font-weight: bold; margin: 0;"">Is there a person in this image?</p>
                    </div>
                </div>","0","main_experiment_trial","1","coin_causal","causal_sequence","","","",""
"","","","","","html-keyboard-response","166","1442795","0.0-166.0","02C11AF356464923B16DAB6166ACF8CB","019ceda7-9e16-70b5-b05b-48108f2e7bfb","019ceda4-7502-7cd5-b642-b8a83a30c71c","","null","
                <div class=""stimulus-container"">
                    <img src=""images/causal_sequence/coin_causal/coin_causal_2.png"" class=""exp-image"">
                    <div class=""question-area""></div> 
                </div>","null","","","","","","","",""
"","","","","","html-button-response","167","1443598","0.0-167.0","02C11AF356464923B16DAB6166ACF8CB","019ceda7-9e16-70b5-b05b-48108f2e7bfb","019ceda4-7502-7cd5-b642-b8a83a30c71c","","801","
                <div class=""stimulus-container"">
                    <img src=""images/causal_sequence/coin_causal/coin_causal_2.png"" class=""exp-image"">
                    <div class=""question-area"">
                        <p style=""font-size: 20px; font-weight: bold; margin: 0;"">Is there a person in this image?</p>
                    </div>
                </div>","0","main_experiment_trial","2","coin_causal","causal_sequence","","","",""
"","","","","","html-keyboard-response","168","1448612","0.0-168.0","02C11AF356464923B16DAB6166ACF8CB","019ceda7-9e16-70b5-b05b-48108f2e7bfb","019ceda4-7502-7cd5-b642-b8a83a30c71c","","null","
                <div class=""stimulus-container"">
                    <img src=""images/causal_sequence/coin_causal/coin_causal_3.png"" class=""exp-image"">
                    <div class=""question-area""></div> 
                </div>","null","","","","","","","",""
"","","","","","html-button-response","169","1449563","0.0-169.0","02C11AF356464923B16DAB6166ACF8CB","019ceda7-9e16-70b5-b05b-48108f2e7bfb","019ceda4-7502-7cd5-b642-b8a83a30c71c","","950","
                <div class=""stimulus-container"">
                    <img src=""images/causal_sequence/coin_causal/coin_causal_3.png"" class=""exp-image"">
                    <div class=""question-area"">
                        <p style=""font-size: 20px; font-weight: bold; margin: 0;"">Is there a person in this image?</p>
                    </div>
                </div>","0","main_experiment_trial","3","coin_causal","causal_sequence","","","",""
"","","","","","html-keyboard-response","170","1454572","0.0-170.0","02C11AF356464923B16DAB6166ACF8CB","019ceda7-9e16-70b5-b05b-48108f2e7bfb","019ceda4-7502-7cd5-b642-b8a83a30c71c","","null","
                <div class=""stimulus-container"">
                    <img src=""images/causal_sequence/coin_causal/coin_causal_4.png"" class=""exp-image"">
                    <div class=""question-area""></div> 
                </div>","null","","","","","","","",""
"","","","","","html-button-response","171","1456261","0.0-171.0","02C11AF356464923B16DAB6166ACF8CB","019ceda7-9e16-70b5-b05b-48108f2e7bfb","019ceda4-7502-7cd5-b642-b8a83a30c71c","","1688","
                <div class=""stimulus-container"">
                    <img src=""images/causal_sequence/coin_causal/coin_causal_4.png"" class=""exp-image"">
                    <div class=""question-area"">
                        <p style=""font-size: 20px; font-weight: bold; margin: 0;"">Is there a person in this image?</p>
                    </div>
                </div>","0","main_experiment_trial","4","coin_causal","causal_sequence","","","",""
"","","","","","html-keyboard-response","172","1461276","0.0-172.0","02C11AF356464923B16DAB6166ACF8CB","019ceda7-9e16-70b5-b05b-48108f2e7bfb","019ceda4-7502-7cd5-b642-b8a83a30c71c","","null","
                <div class=""stimulus-container"">
                    <img src=""images/causal_sequence/coin_causal/coin_causal_5.png"" class=""exp-image"">
                    <div class=""question-area""></div> 
                </div>","null","","","","","","","",""
"","","","","","html-button-response","173","1462333","0.0-173.0","02C11AF356464923B16DAB6166ACF8CB","019ceda7-9e16-70b5-b05b-48108f2e7bfb","019ceda4-7502-7cd5-b642-b8a83a30c71c","","1055","
                <div class=""stimulus-container"">
                    <img src=""images/causal_sequence/coin_causal/coin_causal_5.png"" class=""exp-image"">
                    <div class=""question-area"">
                        <p style=""font-size: 20px; font-weight: bold; margin: 0;"">Is there a person in this image?</p>
                    </div>
                </div>","0","main_experiment_trial","5","coin_causal","causal_sequence","","","",""
"","","","","","html-keyboard-response","174","1467340","0.0-174.0","02C11AF356464923B16DAB6166ACF8CB","019ceda7-9e16-70b5-b05b-48108f2e7bfb","019ceda4-7502-7cd5-b642-b8a83a30c71c","","null","
                <div class=""stimulus-container"">
                    <img src=""images/causal_sequence/coin_causal/coin_causal_6.png"" class=""exp-image"">
                    <div class=""question-area""></div> 
                </div>","null","","","","","","","",""
"","","","","","html-button-response","175","1468513","0.0-175.0","02C11AF356464923B16DAB6166ACF8CB","019ceda7-9e16-70b5-b05b-48108f2e7bfb","019ceda4-7502-7cd5-b642-b8a83a30c71c","","1172","
                <div class=""stimulus-container"">
                    <img src=""images/causal_sequence/coin_causal/coin_causal_6.png"" class=""exp-image"">
                    <div class=""question-area"">
                        <p style=""font-size: 20px; font-weight: bold; margin: 0;"">Is there a person in this image?</p>
                    </div>
                </div>","0","main_experiment_trial","6","coin_causal","causal_sequence","","","",""
"","","","","","html-keyboard-response","176","1473523","0.0-176.0","02C11AF356464923B16DAB6166ACF8CB","019ceda7-9e16-70b5-b05b-48108f2e7bfb","019ceda4-7502-7cd5-b642-b8a83a30c71c","","null","
                <div class=""stimulus-container"">
                    <img src=""images/causal_sequence/coin_causal/coin_causal_7.png"" class=""exp-image"">
                    <div class=""question-area""></div> 
                </div>","null","","","","","","","",""
"","","","","","html-button-response","177","1474883","0.0-177.0","02C11AF356464923B16DAB6166ACF8CB","019ceda7-9e16-70b5-b05b-48108f2e7bfb","019ceda4-7502-7cd5-b642-b8a83a30c71c","","1359","
                <div class=""stimulus-container"">
                    <img src=""images/causal_sequence/coin_causal/coin_causal_7.png"" class=""exp-image"">
                    <div class=""question-area"">
                        <p style=""font-size: 20px; font-weight: bold; margin: 0;"">Is there a person in this image?</p>
                    </div>
                </div>","1","main_experiment_trial","7","coin_causal","causal_sequence","","","",""
"","","","","","html-keyboard-response","178","1479900","0.0-178.0","02C11AF356464923B16DAB6166ACF8CB","019ceda7-9e16-70b5-b05b-48108f2e7bfb","019ceda4-7502-7cd5-b642-b8a83a30c71c","","null","
                <div class=""stimulus-container"">
                    <img src=""images/causal_sequence/coin_causal/coin_causal_8.png"" class=""exp-image"">
                    <div class=""question-area""></div> 
                </div>","null","","","","","","","",""
"","","","","","html-button-response","179","1480950","0.0-179.0","02C11AF356464923B16DAB6166ACF8CB","019ceda7-9e16-70b5-b05b-48108f2e7bfb","019ceda4-7502-7cd5-b642-b8a83a30c71c","","1049","
                <div class=""stimulus-container"">
                    <img src=""images/causal_sequence/coin_causal/coin_causal_8.png"" class=""exp-image"">
                    <div class=""question-area"">
                        <p style=""font-size: 20px; font-weight: bold; margin: 0;"">Is there a person in this image?</p>
                    </div>
                </div>","0","main_experiment_trial","8","coin_causal","causal_sequence","","","",""
"","","","","","html-keyboard-response","180","1485963","0.0-180.0","02C11AF356464923B16DAB6166ACF8CB","019ceda7-9e16-70b5-b05b-48108f2e7bfb","019ceda4-7502-7cd5-b642-b8a83a30c71c","","null","
                <div class=""stimulus-container"">
                    <img src=""images/causal_sequence/coin_causal/coin_causal_9.png"" class=""exp-image"">
                    <div class=""question-area""></div> 
                </div>","null","","","","","","","",""
"","","","","","html-button-response","181","1487688","0.0-181.0","02C11AF356464923B16DAB6166ACF8CB","019ceda7-9e16-70b5-b05b-48108f2e7bfb","019ceda4-7502-7cd5-b642-b8a83a30c71c","","1725","
                <div class=""stimulus-container"">
                    <img src=""images/causal_sequence/coin_causal/coin_causal_9.png"" class=""exp-image"">
                    <div class=""question-area"">
                        <p style=""font-size: 20px; font-weight: bold; margin: 0;"">Is there a person in this image?</p>
                    </div>
                </div>","0","main_experiment_trial","9","coin_causal","causal_sequence","","","",""
"","","","","","html-keyboard-response","182","1492695","0.0-182.0","02C11AF356464923B16DAB6166ACF8CB","019ceda7-9e16-70b5-b05b-48108f2e7bfb","019ceda4-7502-7cd5-b642-b8a83a30c71c","","null","
                <div class=""stimulus-container"">
                    <img src=""images/causal_sequence/coin_causal/coin_causal_ten.png"" class=""exp-image"">
                    <div class=""question-area""></div> 
                </div>","null","","","","","","","",""
"","","","","","html-button-response","183","1493907","0.0-183.0","02C11AF356464923B16DAB6166ACF8CB","019ceda7-9e16-70b5-b05b-48108f2e7bfb","019ceda4-7502-7cd5-b642-b8a83a30c71c","","1211","
                <div class=""stimulus-container"">
                    <img src=""images/causal_sequence/coin_causal/coin_causal_ten.png"" class=""exp-image"">
                    <div class=""question-area"">
                        <p style=""font-size: 20px; font-weight: bold; margin: 0;"">Is there a person in this image?</p>
                    </div>
                </div>","0","main_experiment_trial","ten","coin_causal","causal_sequence","","","",""
