"success","timeout","failed_images","failed_audio","failed_video","trial_type","trial_index","time_elapsed","internal_node_id","subject_id","study_id","session_id","view_history","rt","stimulus","response","task","image_index","folder","sequence_type","presentation_order","valuable_image_index","reward_type","distance_from_x","target_X","chosen_image_index","is_x_plus_dist","correct_choice"
"true","false","[]","[]","[]","preload","0","401598","0.0-0.0","38E90ABCA93E4FB2935AE952F28BF806","019cfc3a-9add-78e8-b8f7-93a90176c4ff","019cfc28-2143-7934-89cc-ce6402563331","","","","","","","","","","","","","","","",""
"","","","","","instructions","1","472768","0.0-1.0","38E90ABCA93E4FB2935AE952F28BF806","019cfc3a-9add-78e8-b8f7-93a90176c4ff","019cfc28-2143-7934-89cc-ce6402563331","[{""page_index"":0,""viewing_time"":71168}]","71169","","","","","","","","","","","","","",""
"","","","","","instructions","2","566297","0.0-2.0","38E90ABCA93E4FB2935AE952F28BF806","019cfc3a-9add-78e8-b8f7-93a90176c4ff","019cfc28-2143-7934-89cc-ce6402563331","[{""page_index"":0,""viewing_time"":93526}]","93527","","","","","","","","","","","","","",""
"true","","","","","fullscreen","3","589484","0.0-3.0","38E90ABCA93E4FB2935AE952F28BF806","019cfc3a-9add-78e8-b8f7-93a90176c4ff","019cfc28-2143-7934-89cc-ce6402563331","","22173","","","","","","","","","","","","","",""
"","","","","","instructions","4","594717","0.0-4.0","38E90ABCA93E4FB2935AE952F28BF806","019cfc3a-9add-78e8-b8f7-93a90176c4ff","019cfc28-2143-7934-89cc-ce6402563331","[{""page_index"":0,""viewing_time"":5232}]","5232","","","","","","","","","","","","","",""
"","","","","","instructions","5","736477","0.0-5.0","38E90ABCA93E4FB2935AE952F28BF806","019cfc3a-9add-78e8-b8f7-93a90176c4ff","019cfc28-2143-7934-89cc-ce6402563331","[{""page_index"":0,""viewing_time"":141758}]","141759","","","","","","","","","","","","","",""
"","","","","","html-keyboard-response","6","740489","0.0-6.0","38E90ABCA93E4FB2935AE952F28BF806","019cfc3a-9add-78e8-b8f7-93a90176c4ff","019cfc28-2143-7934-89cc-ce6402563331","","null","
                <div class=""stimulus-container"">
                    <img src=""images/instructions/movie_1.png"" class=""exp-image"">
                    <div class=""question-area""></div> 
                </div>","null","","","","","","","","","","","",""
"","","","","","html-button-response","7","743495","0.0-7.0","38E90ABCA93E4FB2935AE952F28BF806","019cfc3a-9add-78e8-b8f7-93a90176c4ff","019cfc28-2143-7934-89cc-ce6402563331","","null","
                <div class=""stimulus-container"">
                    <img src=""images/instructions/movie_1.png"" class=""exp-image"">
                    <div class=""question-area"">
                        <p style=""font-size: 20px; font-weight: bold; margin: 0;"">Was there a person in this image?</p>
                    </div>
                </div>","null","example_question","1","","","","","","","","","",""
"","","","","","html-keyboard-response","8","747514","0.0-8.0","38E90ABCA93E4FB2935AE952F28BF806","019cfc3a-9add-78e8-b8f7-93a90176c4ff","019cfc28-2143-7934-89cc-ce6402563331","","null","
                <div class=""stimulus-container"">
                    <img src=""images/instructions/movie_2.png"" class=""exp-image"">
                    <div class=""question-area""></div> 
                </div>","null","","","","","","","","","","","",""
"","","","","","html-button-response","9","750525","0.0-9.0","38E90ABCA93E4FB2935AE952F28BF806","019cfc3a-9add-78e8-b8f7-93a90176c4ff","019cfc28-2143-7934-89cc-ce6402563331","","null","
                <div class=""stimulus-container"">
                    <img src=""images/instructions/movie_2.png"" class=""exp-image"">
                    <div class=""question-area"">
                        <p style=""font-size: 20px; font-weight: bold; margin: 0;"">Was there a person in this image?</p>
                    </div>
                </div>","null","example_question","2","","","","","","","","","",""
"","","","","","html-keyboard-response","10","754534","0.0-10.0","38E90ABCA93E4FB2935AE952F28BF806","019cfc3a-9add-78e8-b8f7-93a90176c4ff","019cfc28-2143-7934-89cc-ce6402563331","","null","
                <div class=""stimulus-container"">
                    <img src=""images/instructions/movie_3.png"" class=""exp-image"">
                    <div class=""question-area""></div> 
                </div>","null","","","","","","","","","","","",""
"","","","","","html-button-response","11","757537","0.0-11.0","38E90ABCA93E4FB2935AE952F28BF806","019cfc3a-9add-78e8-b8f7-93a90176c4ff","019cfc28-2143-7934-89cc-ce6402563331","","null","
                <div class=""stimulus-container"">
                    <img src=""images/instructions/movie_3.png"" class=""exp-image"">
                    <div class=""question-area"">
                        <p style=""font-size: 20px; font-weight: bold; margin: 0;"">Was there a person in this image?</p>
                    </div>
                </div>","null","example_question","3","","","","","","","","","",""
"","","","","","html-keyboard-response","12","761556","0.0-12.0","38E90ABCA93E4FB2935AE952F28BF806","019cfc3a-9add-78e8-b8f7-93a90176c4ff","019cfc28-2143-7934-89cc-ce6402563331","","null","
                <div class=""stimulus-container"">
                    <img src=""images/instructions/movie_4.png"" class=""exp-image"">
                    <div class=""question-area""></div> 
                </div>","null","","","","","","","","","","","",""
"","","","","","html-button-response","13","762939","0.0-13.0","38E90ABCA93E4FB2935AE952F28BF806","019cfc3a-9add-78e8-b8f7-93a90176c4ff","019cfc28-2143-7934-89cc-ce6402563331","","1381","
                <div class=""stimulus-container"">
                    <img src=""images/instructions/movie_4.png"" class=""exp-image"">
                    <div class=""question-area"">
                        <p style=""font-size: 20px; font-weight: bold; margin: 0;"">Was there a person in this image?</p>
                    </div>
                </div>","0","example_question","4","","","","","","","","","",""
"","","","","","instructions","14","766727","0.0-14.0","38E90ABCA93E4FB2935AE952F28BF806","019cfc3a-9add-78e8-b8f7-93a90176c4ff","019cfc28-2143-7934-89cc-ce6402563331","[{""page_index"":0,""viewing_time"":3786}]","3787","","","","","","","","","","","","","",""
"","","","","","instructions","15","771946","0.0-15.0","38E90ABCA93E4FB2935AE952F28BF806","019cfc3a-9add-78e8-b8f7-93a90176c4ff","019cfc28-2143-7934-89cc-ce6402563331","[{""page_index"":0,""viewing_time"":5217}]","5218","","","","","","","","","","","","","",""
"","","","","","html-keyboard-response","16","776954","0.0-16.0","38E90ABCA93E4FB2935AE952F28BF806","019cfc3a-9add-78e8-b8f7-93a90176c4ff","019cfc28-2143-7934-89cc-ce6402563331","","null","<div style=""background-color: white; width: 100vw; height: 100vh;""></div>","null","","","","","","","","","","","",""
"","","","","","html-keyboard-response","17","781974","0.0-17.0","38E90ABCA93E4FB2935AE952F28BF806","019cfc3a-9add-78e8-b8f7-93a90176c4ff","019cfc28-2143-7934-89cc-ce6402563331","","null","
                <div class=""stimulus-container"">
                    <img src=""images/schematic_sequence/hotel_scheme/hotel_scheme_1.png"" class=""exp-image"">
                    <div class=""question-area""></div> 
                </div>","null","","","","","","","","","","","",""
"","","","","","html-button-response","18","784985","0.0-18.0","38E90ABCA93E4FB2935AE952F28BF806","019cfc3a-9add-78e8-b8f7-93a90176c4ff","019cfc28-2143-7934-89cc-ce6402563331","","null","
                <div class=""stimulus-container"">
                    <img src=""images/schematic_sequence/hotel_scheme/hotel_scheme_1.png"" class=""exp-image"">
                    <div class=""question-area"">
                        <p style=""font-size: 20px; font-weight: bold; margin: 0;"">Is there a person in this image?</p>
                    </div>
                </div>","null","main_experiment_trial","1","hotel_scheme","schematic_sequence","chronological","","","","","","",""
"","","","","","html-keyboard-response","19","789996","0.0-19.0","38E90ABCA93E4FB2935AE952F28BF806","019cfc3a-9add-78e8-b8f7-93a90176c4ff","019cfc28-2143-7934-89cc-ce6402563331","","null","
                <div class=""stimulus-container"">
                    <img src=""images/schematic_sequence/hotel_scheme/hotel_scheme_2.png"" class=""exp-image"">
                    <div class=""question-area""></div> 
                </div>","null","","","","","","","","","","","",""
"","","","","","html-button-response","20","791577","0.0-20.0","38E90ABCA93E4FB2935AE952F28BF806","019cfc3a-9add-78e8-b8f7-93a90176c4ff","019cfc28-2143-7934-89cc-ce6402563331","","1579","
                <div class=""stimulus-container"">
                    <img src=""images/schematic_sequence/hotel_scheme/hotel_scheme_2.png"" class=""exp-image"">
                    <div class=""question-area"">
                        <p style=""font-size: 20px; font-weight: bold; margin: 0;"">Is there a person in this image?</p>
                    </div>
                </div>","0","main_experiment_trial","2","hotel_scheme","schematic_sequence","chronological","","","","","","",""
"","","","","","html-keyboard-response","21","796584","0.0-21.0","38E90ABCA93E4FB2935AE952F28BF806","019cfc3a-9add-78e8-b8f7-93a90176c4ff","019cfc28-2143-7934-89cc-ce6402563331","","null","
                <div class=""stimulus-container"">
                    <img src=""images/schematic_sequence/hotel_scheme/hotel_scheme_3.png"" class=""exp-image"">
                    <div class=""question-area""></div> 
                </div>","null","","","","","","","","","","","",""
"","","","","","html-button-response","22","798068","0.0-22.0","38E90ABCA93E4FB2935AE952F28BF806","019cfc3a-9add-78e8-b8f7-93a90176c4ff","019cfc28-2143-7934-89cc-ce6402563331","","1482","
                <div class=""stimulus-container"">
                    <img src=""images/schematic_sequence/hotel_scheme/hotel_scheme_3.png"" class=""exp-image"">
                    <div class=""question-area"">
                        <p style=""font-size: 20px; font-weight: bold; margin: 0;"">Is there a person in this image?</p>
                    </div>
                </div>","0","main_experiment_trial","3","hotel_scheme","schematic_sequence","chronological","","","","","","",""
"","","","","","html-keyboard-response","23","803084","0.0-23.0","38E90ABCA93E4FB2935AE952F28BF806","019cfc3a-9add-78e8-b8f7-93a90176c4ff","019cfc28-2143-7934-89cc-ce6402563331","","null","
                <div class=""stimulus-container"">
                    <img src=""images/schematic_sequence/hotel_scheme/hotel_scheme_4.png"" class=""exp-image"">
                    <div class=""question-area""></div> 
                </div>","null","","","","","","","","","","","",""
"","","","","","html-button-response","24","805347","0.0-24.0","38E90ABCA93E4FB2935AE952F28BF806","019cfc3a-9add-78e8-b8f7-93a90176c4ff","019cfc28-2143-7934-89cc-ce6402563331","","2261","
                <div class=""stimulus-container"">
                    <img src=""images/schematic_sequence/hotel_scheme/hotel_scheme_4.png"" class=""exp-image"">
                    <div class=""question-area"">
                        <p style=""font-size: 20px; font-weight: bold; margin: 0;"">Is there a person in this image?</p>
                    </div>
                </div>","1","main_experiment_trial","4","hotel_scheme","schematic_sequence","chronological","","","","","","",""
"","","","","","html-keyboard-response","25","810365","0.0-25.0","38E90ABCA93E4FB2935AE952F28BF806","019cfc3a-9add-78e8-b8f7-93a90176c4ff","019cfc28-2143-7934-89cc-ce6402563331","","null","
                <div class=""stimulus-container"">
                    <img src=""images/schematic_sequence/hotel_scheme/hotel_scheme_5.png"" class=""exp-image"">
                    <div class=""question-area""></div> 
                </div>","null","","","","","","","","","","","",""
"","","","","","html-button-response","26","812487","0.0-26.0","38E90ABCA93E4FB2935AE952F28BF806","019cfc3a-9add-78e8-b8f7-93a90176c4ff","019cfc28-2143-7934-89cc-ce6402563331","","2120","
                <div class=""stimulus-container"">
                    <img src=""images/schematic_sequence/hotel_scheme/hotel_scheme_5.png"" class=""exp-image"">
                    <div class=""question-area"">
                        <p style=""font-size: 20px; font-weight: bold; margin: 0;"">Is there a person in this image?</p>
                    </div>
                </div>","0","main_experiment_trial","5","hotel_scheme","schematic_sequence","chronological","","","","","","",""
"","","","","","html-keyboard-response","27","817494","0.0-27.0","38E90ABCA93E4FB2935AE952F28BF806","019cfc3a-9add-78e8-b8f7-93a90176c4ff","019cfc28-2143-7934-89cc-ce6402563331","","null","
                <div class=""stimulus-container"">
                    <img src=""images/schematic_sequence/hotel_scheme/hotel_scheme_6.png"" class=""exp-image"">
                    <div class=""question-area""></div> 
                </div>","null","","","","","","","","","","","",""
"","","","","","html-button-response","28","820502","0.0-28.0","38E90ABCA93E4FB2935AE952F28BF806","019cfc3a-9add-78e8-b8f7-93a90176c4ff","019cfc28-2143-7934-89cc-ce6402563331","","null","
                <div class=""stimulus-container"">
                    <img src=""images/schematic_sequence/hotel_scheme/hotel_scheme_6.png"" class=""exp-image"">
                    <div class=""question-area"">
                        <p style=""font-size: 20px; font-weight: bold; margin: 0;"">Is there a person in this image?</p>
                    </div>
                </div>","null","main_experiment_trial","6","hotel_scheme","schematic_sequence","chronological","","","","","","",""
"","","","","","html-keyboard-response","29","825514","0.0-29.0","38E90ABCA93E4FB2935AE952F28BF806","019cfc3a-9add-78e8-b8f7-93a90176c4ff","019cfc28-2143-7934-89cc-ce6402563331","","null","
                <div class=""stimulus-container"">
                    <img src=""images/schematic_sequence/hotel_scheme/hotel_scheme_7.png"" class=""exp-image"">
                    <div class=""question-area""></div> 
                </div>","null","","","","","","","","","","","",""
"","","","","","html-button-response","30","828535","0.0-30.0","38E90ABCA93E4FB2935AE952F28BF806","019cfc3a-9add-78e8-b8f7-93a90176c4ff","019cfc28-2143-7934-89cc-ce6402563331","","null","
                <div class=""stimulus-container"">
                    <img src=""images/schematic_sequence/hotel_scheme/hotel_scheme_7.png"" class=""exp-image"">
                    <div class=""question-area"">
                        <p style=""font-size: 20px; font-weight: bold; margin: 0;"">Is there a person in this image?</p>
                    </div>
                </div>","null","main_experiment_trial","7","hotel_scheme","schematic_sequence","chronological","","","","","","",""
"","","","","","html-keyboard-response","31","833545","0.0-31.0","38E90ABCA93E4FB2935AE952F28BF806","019cfc3a-9add-78e8-b8f7-93a90176c4ff","019cfc28-2143-7934-89cc-ce6402563331","","null","
                <div class=""stimulus-container"">
                    <img src=""images/schematic_sequence/hotel_scheme/hotel_scheme_8.png"" class=""exp-image"">
                    <div class=""question-area""></div> 
                </div>","null","","","","","","","","","","","",""
"","","","","","html-button-response","32","834737","0.0-32.0","38E90ABCA93E4FB2935AE952F28BF806","019cfc3a-9add-78e8-b8f7-93a90176c4ff","019cfc28-2143-7934-89cc-ce6402563331","","1190","
                <div class=""stimulus-container"">
                    <img src=""images/schematic_sequence/hotel_scheme/hotel_scheme_8.png"" class=""exp-image"">
                    <div class=""question-area"">
                        <p style=""font-size: 20px; font-weight: bold; margin: 0;"">Is there a person in this image?</p>
                    </div>
                </div>","0","main_experiment_trial","8","hotel_scheme","schematic_sequence","chronological","","","","","","",""
"","","","","","html-keyboard-response","33","839754","0.0-33.0","38E90ABCA93E4FB2935AE952F28BF806","019cfc3a-9add-78e8-b8f7-93a90176c4ff","019cfc28-2143-7934-89cc-ce6402563331","","null","
                <div class=""stimulus-container"">
                    <img src=""images/schematic_sequence/hotel_scheme/hotel_scheme_9.png"" class=""exp-image"">
                    <div class=""question-area""></div> 
                </div>","null","","","","","","","","","","","",""
"","","","","","html-button-response","34","841178","0.0-34.0","38E90ABCA93E4FB2935AE952F28BF806","019cfc3a-9add-78e8-b8f7-93a90176c4ff","019cfc28-2143-7934-89cc-ce6402563331","","1422","
                <div class=""stimulus-container"">
                    <img src=""images/schematic_sequence/hotel_scheme/hotel_scheme_9.png"" class=""exp-image"">
                    <div class=""question-area"">
                        <p style=""font-size: 20px; font-weight: bold; margin: 0;"">Is there a person in this image?</p>
                    </div>
                </div>","0","main_experiment_trial","9","hotel_scheme","schematic_sequence","chronological","","","","","","",""
"","","","","","html-keyboard-response","35","846185","0.0-35.0","38E90ABCA93E4FB2935AE952F28BF806","019cfc3a-9add-78e8-b8f7-93a90176c4ff","019cfc28-2143-7934-89cc-ce6402563331","","null","
                <div class=""stimulus-container"">
                    <img src=""images/schematic_sequence/hotel_scheme/hotel_scheme_ten.png"" class=""exp-image"">
                    <div class=""question-area""></div> 
                </div>","null","","","","","","","","","","","",""
"","","","","","html-button-response","36","847337","0.0-36.0","38E90ABCA93E4FB2935AE952F28BF806","019cfc3a-9add-78e8-b8f7-93a90176c4ff","019cfc28-2143-7934-89cc-ce6402563331","","1150","
                <div class=""stimulus-container"">
                    <img src=""images/schematic_sequence/hotel_scheme/hotel_scheme_ten.png"" class=""exp-image"">
                    <div class=""question-area"">
                        <p style=""font-size: 20px; font-weight: bold; margin: 0;"">Is there a person in this image?</p>
                    </div>
                </div>","0","main_experiment_trial","ten","hotel_scheme","schematic_sequence","chronological","","","","","","",""
"","","","","","html-keyboard-response","37","852344","0.0-37.0","38E90ABCA93E4FB2935AE952F28BF806","019cfc3a-9add-78e8-b8f7-93a90176c4ff","019cfc28-2143-7934-89cc-ce6402563331","","null","<div style=""background-color: white; width: 100vw; height: 100vh;""></div>","null","","","","","","","","","","","",""
"","","","","","html-keyboard-response","38","857363","0.0-38.0","38E90ABCA93E4FB2935AE952F28BF806","019cfc3a-9add-78e8-b8f7-93a90176c4ff","019cfc28-2143-7934-89cc-ce6402563331","","null","
                <div class=""stimulus-container"">
                    <img src=""images/semantic_sequence/visiting_cities_semantic/visiting_cities_semantic_1.png"" class=""exp-image"">
                    <div class=""question-area""></div> 
                </div>","null","","","","","","","","","","","",""
"","","","","","html-button-response","39","860375","0.0-39.0","38E90ABCA93E4FB2935AE952F28BF806","019cfc3a-9add-78e8-b8f7-93a90176c4ff","019cfc28-2143-7934-89cc-ce6402563331","","null","
                <div class=""stimulus-container"">
                    <img src=""images/semantic_sequence/visiting_cities_semantic/visiting_cities_semantic_1.png"" class=""exp-image"">
                    <div class=""question-area"">
                        <p style=""font-size: 20px; font-weight: bold; margin: 0;"">Is there a person in this image?</p>
                    </div>
                </div>","null","main_experiment_trial","1","visiting_cities_semantic","semantic_sequence","chronological","","","","","","",""
"","","","","","html-keyboard-response","40","865395","0.0-40.0","38E90ABCA93E4FB2935AE952F28BF806","019cfc3a-9add-78e8-b8f7-93a90176c4ff","019cfc28-2143-7934-89cc-ce6402563331","","null","
                <div class=""stimulus-container"">
                    <img src=""images/semantic_sequence/visiting_cities_semantic/visiting_cities_semantic_2.png"" class=""exp-image"">
                    <div class=""question-area""></div> 
                </div>","null","","","","","","","","","","","",""
"","","","","","html-button-response","41","866872","0.0-41.0","38E90ABCA93E4FB2935AE952F28BF806","019cfc3a-9add-78e8-b8f7-93a90176c4ff","019cfc28-2143-7934-89cc-ce6402563331","","1476","
                <div class=""stimulus-container"">
                    <img src=""images/semantic_sequence/visiting_cities_semantic/visiting_cities_semantic_2.png"" class=""exp-image"">
                    <div class=""question-area"">
                        <p style=""font-size: 20px; font-weight: bold; margin: 0;"">Is there a person in this image?</p>
                    </div>
                </div>","0","main_experiment_trial","2","visiting_cities_semantic","semantic_sequence","chronological","","","","","","",""
"","","","","","html-keyboard-response","42","871874","0.0-42.0","38E90ABCA93E4FB2935AE952F28BF806","019cfc3a-9add-78e8-b8f7-93a90176c4ff","019cfc28-2143-7934-89cc-ce6402563331","","null","
                <div class=""stimulus-container"">
                    <img src=""images/semantic_sequence/visiting_cities_semantic/visiting_cities_semantic_3.png"" class=""exp-image"">
                    <div class=""question-area""></div> 
                </div>","null","","","","","","","","","","","",""
"","","","","","html-button-response","43","874617","0.0-43.0","38E90ABCA93E4FB2935AE952F28BF806","019cfc3a-9add-78e8-b8f7-93a90176c4ff","019cfc28-2143-7934-89cc-ce6402563331","","2741","
                <div class=""stimulus-container"">
                    <img src=""images/semantic_sequence/visiting_cities_semantic/visiting_cities_semantic_3.png"" class=""exp-image"">
                    <div class=""question-area"">
                        <p style=""font-size: 20px; font-weight: bold; margin: 0;"">Is there a person in this image?</p>
                    </div>
                </div>","0","main_experiment_trial","3","visiting_cities_semantic","semantic_sequence","chronological","","","","","","",""
"","","","","","html-keyboard-response","44","879634","0.0-44.0","38E90ABCA93E4FB2935AE952F28BF806","019cfc3a-9add-78e8-b8f7-93a90176c4ff","019cfc28-2143-7934-89cc-ce6402563331","","null","
                <div class=""stimulus-container"">
                    <img src=""images/semantic_sequence/visiting_cities_semantic/visiting_cities_semantic_4.png"" class=""exp-image"">
                    <div class=""question-area""></div> 
                </div>","null","","","","","","","","","","","",""
"","","","","","html-button-response","45","881849","0.0-45.0","38E90ABCA93E4FB2935AE952F28BF806","019cfc3a-9add-78e8-b8f7-93a90176c4ff","019cfc28-2143-7934-89cc-ce6402563331","","2213","
                <div class=""stimulus-container"">
                    <img src=""images/semantic_sequence/visiting_cities_semantic/visiting_cities_semantic_4.png"" class=""exp-image"">
                    <div class=""question-area"">
                        <p style=""font-size: 20px; font-weight: bold; margin: 0;"">Is there a person in this image?</p>
                    </div>
                </div>","1","main_experiment_trial","4","visiting_cities_semantic","semantic_sequence","chronological","","","","","","",""
"","","","","","html-keyboard-response","46","886865","0.0-46.0","38E90ABCA93E4FB2935AE952F28BF806","019cfc3a-9add-78e8-b8f7-93a90176c4ff","019cfc28-2143-7934-89cc-ce6402563331","","null","
                <div class=""stimulus-container"">
                    <img src=""images/semantic_sequence/visiting_cities_semantic/visiting_cities_semantic_5.png"" class=""exp-image"">
                    <div class=""question-area""></div> 
                </div>","null","","","","","","","","","","","",""
"","","","","","html-button-response","47","889877","0.0-47.0","38E90ABCA93E4FB2935AE952F28BF806","019cfc3a-9add-78e8-b8f7-93a90176c4ff","019cfc28-2143-7934-89cc-ce6402563331","","null","
                <div class=""stimulus-container"">
                    <img src=""images/semantic_sequence/visiting_cities_semantic/visiting_cities_semantic_5.png"" class=""exp-image"">
                    <div class=""question-area"">
                        <p style=""font-size: 20px; font-weight: bold; margin: 0;"">Is there a person in this image?</p>
                    </div>
                </div>","null","main_experiment_trial","5","visiting_cities_semantic","semantic_sequence","chronological","","","","","","",""
"","","","","","html-keyboard-response","48","894885","0.0-48.0","38E90ABCA93E4FB2935AE952F28BF806","019cfc3a-9add-78e8-b8f7-93a90176c4ff","019cfc28-2143-7934-89cc-ce6402563331","","null","
                <div class=""stimulus-container"">
                    <img src=""images/semantic_sequence/visiting_cities_semantic/visiting_cities_semantic_6.png"" class=""exp-image"">
                    <div class=""question-area""></div> 
                </div>","null","","","","","","","","","","","",""
"","","","","","html-button-response","49","897890","0.0-49.0","38E90ABCA93E4FB2935AE952F28BF806","019cfc3a-9add-78e8-b8f7-93a90176c4ff","019cfc28-2143-7934-89cc-ce6402563331","","null","
                <div class=""stimulus-container"">
                    <img src=""images/semantic_sequence/visiting_cities_semantic/visiting_cities_semantic_6.png"" class=""exp-image"">
                    <div class=""question-area"">
                        <p style=""font-size: 20px; font-weight: bold; margin: 0;"">Is there a person in this image?</p>
                    </div>
                </div>","null","main_experiment_trial","6","visiting_cities_semantic","semantic_sequence","chronological","","","","","","",""
"","","","","","html-keyboard-response","50","902894","0.0-50.0","38E90ABCA93E4FB2935AE952F28BF806","019cfc3a-9add-78e8-b8f7-93a90176c4ff","019cfc28-2143-7934-89cc-ce6402563331","","null","
                <div class=""stimulus-container"">
                    <img src=""images/semantic_sequence/visiting_cities_semantic/visiting_cities_semantic_7.png"" class=""exp-image"">
                    <div class=""question-area""></div> 
                </div>","null","","","","","","","","","","","",""
"","","","","","html-button-response","51","904302","0.0-51.0","38E90ABCA93E4FB2935AE952F28BF806","019cfc3a-9add-78e8-b8f7-93a90176c4ff","019cfc28-2143-7934-89cc-ce6402563331","","1406","
                <div class=""stimulus-container"">
                    <img src=""images/semantic_sequence/visiting_cities_semantic/visiting_cities_semantic_7.png"" class=""exp-image"">
                    <div class=""question-area"">
                        <p style=""font-size: 20px; font-weight: bold; margin: 0;"">Is there a person in this image?</p>
                    </div>
                </div>","1","main_experiment_trial","7","visiting_cities_semantic","semantic_sequence","chronological","","","","","","",""
"","","","","","html-keyboard-response","52","909320","0.0-52.0","38E90ABCA93E4FB2935AE952F28BF806","019cfc3a-9add-78e8-b8f7-93a90176c4ff","019cfc28-2143-7934-89cc-ce6402563331","","null","
                <div class=""stimulus-container"">
                    <img src=""images/semantic_sequence/visiting_cities_semantic/visiting_cities_semantic_8.png"" class=""exp-image"">
                    <div class=""question-area""></div> 
                </div>","null","","","","","","","","","","","",""
"","","","","","html-button-response","53","910308","0.0-53.0","38E90ABCA93E4FB2935AE952F28BF806","019cfc3a-9add-78e8-b8f7-93a90176c4ff","019cfc28-2143-7934-89cc-ce6402563331","","987","
                <div class=""stimulus-container"">
                    <img src=""images/semantic_sequence/visiting_cities_semantic/visiting_cities_semantic_8.png"" class=""exp-image"">
                    <div class=""question-area"">
                        <p style=""font-size: 20px; font-weight: bold; margin: 0;"">Is there a person in this image?</p>
                    </div>
                </div>","1","main_experiment_trial","8","visiting_cities_semantic","semantic_sequence","chronological","","","","","","",""
"","","","","","html-keyboard-response","54","915317","0.0-54.0","38E90ABCA93E4FB2935AE952F28BF806","019cfc3a-9add-78e8-b8f7-93a90176c4ff","019cfc28-2143-7934-89cc-ce6402563331","","null","
                <div class=""stimulus-container"">
                    <img src=""images/semantic_sequence/visiting_cities_semantic/visiting_cities_semantic_9.png"" class=""exp-image"">
                    <div class=""question-area""></div> 
                </div>","null","","","","","","","","","","","",""
"","","","","","html-button-response","55","916755","0.0-55.0","38E90ABCA93E4FB2935AE952F28BF806","019cfc3a-9add-78e8-b8f7-93a90176c4ff","019cfc28-2143-7934-89cc-ce6402563331","","1436","
                <div class=""stimulus-container"">
                    <img src=""images/semantic_sequence/visiting_cities_semantic/visiting_cities_semantic_9.png"" class=""exp-image"">
                    <div class=""question-area"">
                        <p style=""font-size: 20px; font-weight: bold; margin: 0;"">Is there a person in this image?</p>
                    </div>
                </div>","0","main_experiment_trial","9","visiting_cities_semantic","semantic_sequence","chronological","","","","","","",""
"","","","","","html-keyboard-response","56","921764","0.0-56.0","38E90ABCA93E4FB2935AE952F28BF806","019cfc3a-9add-78e8-b8f7-93a90176c4ff","019cfc28-2143-7934-89cc-ce6402563331","","null","
                <div class=""stimulus-container"">
                    <img src=""images/semantic_sequence/visiting_cities_semantic/visiting_cities_semantic_ten.png"" class=""exp-image"">
                    <div class=""question-area""></div> 
                </div>","null","","","","","","","","","","","",""
"","","","","","html-button-response","57","923207","0.0-57.0","38E90ABCA93E4FB2935AE952F28BF806","019cfc3a-9add-78e8-b8f7-93a90176c4ff","019cfc28-2143-7934-89cc-ce6402563331","","1441","
                <div class=""stimulus-container"">
                    <img src=""images/semantic_sequence/visiting_cities_semantic/visiting_cities_semantic_ten.png"" class=""exp-image"">
                    <div class=""question-area"">
                        <p style=""font-size: 20px; font-weight: bold; margin: 0;"">Is there a person in this image?</p>
                    </div>
                </div>","1","main_experiment_trial","ten","visiting_cities_semantic","semantic_sequence","chronological","","","","","","",""
"","","","","","html-keyboard-response","58","928214","0.0-58.0","38E90ABCA93E4FB2935AE952F28BF806","019cfc3a-9add-78e8-b8f7-93a90176c4ff","019cfc28-2143-7934-89cc-ce6402563331","","null","<div style=""background-color: white; width: 100vw; height: 100vh;""></div>","null","","","","","","","","","","","",""
"","","","","","html-keyboard-response","59","933235","0.0-59.0","38E90ABCA93E4FB2935AE952F28BF806","019cfc3a-9add-78e8-b8f7-93a90176c4ff","019cfc28-2143-7934-89cc-ce6402563331","","null","
                <div class=""stimulus-container"">
                    <img src=""images/semantic_sequence/cat_care_semantic/cat_care_semantic_1.png"" class=""exp-image"">
                    <div class=""question-area""></div> 
                </div>","null","","","","","","","","","","","",""
"","","","","","html-button-response","60","936246","0.0-60.0","38E90ABCA93E4FB2935AE952F28BF806","019cfc3a-9add-78e8-b8f7-93a90176c4ff","019cfc28-2143-7934-89cc-ce6402563331","","null","
                <div class=""stimulus-container"">
                    <img src=""images/semantic_sequence/cat_care_semantic/cat_care_semantic_1.png"" class=""exp-image"">
                    <div class=""question-area"">
                        <p style=""font-size: 20px; font-weight: bold; margin: 0;"">Is there a person in this image?</p>
                    </div>
                </div>","null","main_experiment_trial","1","cat_care_semantic","semantic_sequence","chronological","","","","","","",""
"","","","","","html-keyboard-response","61","941265","0.0-61.0","38E90ABCA93E4FB2935AE952F28BF806","019cfc3a-9add-78e8-b8f7-93a90176c4ff","019cfc28-2143-7934-89cc-ce6402563331","","null","
                <div class=""stimulus-container"">
                    <img src=""images/semantic_sequence/cat_care_semantic/cat_care_semantic_2.png"" class=""exp-image"">
                    <div class=""question-area""></div> 
                </div>","null","","","","","","","","","","","",""
"","","","","","html-button-response","62","943172","0.0-62.0","38E90ABCA93E4FB2935AE952F28BF806","019cfc3a-9add-78e8-b8f7-93a90176c4ff","019cfc28-2143-7934-89cc-ce6402563331","","1905","
                <div class=""stimulus-container"">
                    <img src=""images/semantic_sequence/cat_care_semantic/cat_care_semantic_2.png"" class=""exp-image"">
                    <div class=""question-area"">
                        <p style=""font-size: 20px; font-weight: bold; margin: 0;"">Is there a person in this image?</p>
                    </div>
                </div>","0","main_experiment_trial","2","cat_care_semantic","semantic_sequence","chronological","","","","","","",""
"","","","","","html-keyboard-response","63","948180","0.0-63.0","38E90ABCA93E4FB2935AE952F28BF806","019cfc3a-9add-78e8-b8f7-93a90176c4ff","019cfc28-2143-7934-89cc-ce6402563331","","null","
                <div class=""stimulus-container"">
                    <img src=""images/semantic_sequence/cat_care_semantic/cat_care_semantic_3.png"" class=""exp-image"">
                    <div class=""question-area""></div> 
                </div>","null","","","","","","","","","","","",""
"","","","","","html-button-response","64","950168","0.0-64.0","38E90ABCA93E4FB2935AE952F28BF806","019cfc3a-9add-78e8-b8f7-93a90176c4ff","019cfc28-2143-7934-89cc-ce6402563331","","1985","
                <div class=""stimulus-container"">
                    <img src=""images/semantic_sequence/cat_care_semantic/cat_care_semantic_3.png"" class=""exp-image"">
                    <div class=""question-area"">
                        <p style=""font-size: 20px; font-weight: bold; margin: 0;"">Is there a person in this image?</p>
                    </div>
                </div>","0","main_experiment_trial","3","cat_care_semantic","semantic_sequence","chronological","","","","","","",""
"","","","","","html-keyboard-response","65","955174","0.0-65.0","38E90ABCA93E4FB2935AE952F28BF806","019cfc3a-9add-78e8-b8f7-93a90176c4ff","019cfc28-2143-7934-89cc-ce6402563331","","null","
                <div class=""stimulus-container"">
                    <img src=""images/semantic_sequence/cat_care_semantic/cat_care_semantic_4.png"" class=""exp-image"">
                    <div class=""question-area""></div> 
                </div>","null","","","","","","","","","","","",""
"","","","","","html-button-response","66","958189","0.0-66.0","38E90ABCA93E4FB2935AE952F28BF806","019cfc3a-9add-78e8-b8f7-93a90176c4ff","019cfc28-2143-7934-89cc-ce6402563331","","null","
                <div class=""stimulus-container"">
                    <img src=""images/semantic_sequence/cat_care_semantic/cat_care_semantic_4.png"" class=""exp-image"">
                    <div class=""question-area"">
                        <p style=""font-size: 20px; font-weight: bold; margin: 0;"">Is there a person in this image?</p>
                    </div>
                </div>","null","main_experiment_trial","4","cat_care_semantic","semantic_sequence","chronological","","","","","","",""
"","","","","","html-keyboard-response","67","963205","0.0-67.0","38E90ABCA93E4FB2935AE952F28BF806","019cfc3a-9add-78e8-b8f7-93a90176c4ff","019cfc28-2143-7934-89cc-ce6402563331","","null","
                <div class=""stimulus-container"">
                    <img src=""images/semantic_sequence/cat_care_semantic/cat_care_semantic_5.png"" class=""exp-image"">
                    <div class=""question-area""></div> 
                </div>","null","","","","","","","","","","","",""
"","","","","","html-button-response","68","964947","0.0-68.0","38E90ABCA93E4FB2935AE952F28BF806","019cfc3a-9add-78e8-b8f7-93a90176c4ff","019cfc28-2143-7934-89cc-ce6402563331","","1741","
                <div class=""stimulus-container"">
                    <img src=""images/semantic_sequence/cat_care_semantic/cat_care_semantic_5.png"" class=""exp-image"">
                    <div class=""question-area"">
                        <p style=""font-size: 20px; font-weight: bold; margin: 0;"">Is there a person in this image?</p>
                    </div>
                </div>","0","main_experiment_trial","5","cat_care_semantic","semantic_sequence","chronological","","","","","","",""
"","","","","","html-keyboard-response","69","969955","0.0-69.0","38E90ABCA93E4FB2935AE952F28BF806","019cfc3a-9add-78e8-b8f7-93a90176c4ff","019cfc28-2143-7934-89cc-ce6402563331","","null","
                <div class=""stimulus-container"">
                    <img src=""images/semantic_sequence/cat_care_semantic/cat_care_semantic_6.png"" class=""exp-image"">
                    <div class=""question-area""></div> 
                </div>","null","","","","","","","","","","","",""
"","","","","","html-button-response","70","972587","0.0-70.0","38E90ABCA93E4FB2935AE952F28BF806","019cfc3a-9add-78e8-b8f7-93a90176c4ff","019cfc28-2143-7934-89cc-ce6402563331","","2630","
                <div class=""stimulus-container"">
                    <img src=""images/semantic_sequence/cat_care_semantic/cat_care_semantic_6.png"" class=""exp-image"">
                    <div class=""question-area"">
                        <p style=""font-size: 20px; font-weight: bold; margin: 0;"">Is there a person in this image?</p>
                    </div>
                </div>","0","main_experiment_trial","6","cat_care_semantic","semantic_sequence","chronological","","","","","","",""
"","","","","","html-keyboard-response","71","977605","0.0-71.0","38E90ABCA93E4FB2935AE952F28BF806","019cfc3a-9add-78e8-b8f7-93a90176c4ff","019cfc28-2143-7934-89cc-ce6402563331","","null","
                <div class=""stimulus-container"">
                    <img src=""images/semantic_sequence/cat_care_semantic/cat_care_semantic_7.png"" class=""exp-image"">
                    <div class=""question-area""></div> 
                </div>","null","","","","","","","","","","","",""
"","","","","","html-button-response","72","980615","0.0-72.0","38E90ABCA93E4FB2935AE952F28BF806","019cfc3a-9add-78e8-b8f7-93a90176c4ff","019cfc28-2143-7934-89cc-ce6402563331","","null","
                <div class=""stimulus-container"">
                    <img src=""images/semantic_sequence/cat_care_semantic/cat_care_semantic_7.png"" class=""exp-image"">
                    <div class=""question-area"">
                        <p style=""font-size: 20px; font-weight: bold; margin: 0;"">Is there a person in this image?</p>
                    </div>
                </div>","null","main_experiment_trial","7","cat_care_semantic","semantic_sequence","chronological","","","","","","",""
"","","","","","html-keyboard-response","73","985624","0.0-73.0","38E90ABCA93E4FB2935AE952F28BF806","019cfc3a-9add-78e8-b8f7-93a90176c4ff","019cfc28-2143-7934-89cc-ce6402563331","","null","
                <div class=""stimulus-container"">
                    <img src=""images/semantic_sequence/cat_care_semantic/cat_care_semantic_8.png"" class=""exp-image"">
                    <div class=""question-area""></div> 
                </div>","null","","","","","","","","","","","",""
"","","","","","html-button-response","74","988427","0.0-74.0","38E90ABCA93E4FB2935AE952F28BF806","019cfc3a-9add-78e8-b8f7-93a90176c4ff","019cfc28-2143-7934-89cc-ce6402563331","","2801","
                <div class=""stimulus-container"">
                    <img src=""images/semantic_sequence/cat_care_semantic/cat_care_semantic_8.png"" class=""exp-image"">
                    <div class=""question-area"">
                        <p style=""font-size: 20px; font-weight: bold; margin: 0;"">Is there a person in this image?</p>
                    </div>
                </div>","0","main_experiment_trial","8","cat_care_semantic","semantic_sequence","chronological","","","","","","",""
"","","","","","html-keyboard-response","75","993436","0.0-75.0","38E90ABCA93E4FB2935AE952F28BF806","019cfc3a-9add-78e8-b8f7-93a90176c4ff","019cfc28-2143-7934-89cc-ce6402563331","","null","
                <div class=""stimulus-container"">
                    <img src=""images/semantic_sequence/cat_care_semantic/cat_care_semantic_9.png"" class=""exp-image"">
                    <div class=""question-area""></div> 
                </div>","null","","","","","","","","","","","",""
"","","","","","html-button-response","76","995537","0.0-76.0","38E90ABCA93E4FB2935AE952F28BF806","019cfc3a-9add-78e8-b8f7-93a90176c4ff","019cfc28-2143-7934-89cc-ce6402563331","","2099","
                <div class=""stimulus-container"">
                    <img src=""images/semantic_sequence/cat_care_semantic/cat_care_semantic_9.png"" class=""exp-image"">
                    <div class=""question-area"">
                        <p style=""font-size: 20px; font-weight: bold; margin: 0;"">Is there a person in this image?</p>
                    </div>
                </div>","0","main_experiment_trial","9","cat_care_semantic","semantic_sequence","chronological","","","","","","",""
"","","","","","html-keyboard-response","77","1000555","0.0-77.0","38E90ABCA93E4FB2935AE952F28BF806","019cfc3a-9add-78e8-b8f7-93a90176c4ff","019cfc28-2143-7934-89cc-ce6402563331","","null","
                <div class=""stimulus-container"">
                    <img src=""images/semantic_sequence/cat_care_semantic/cat_care_semantic_ten.png"" class=""exp-image"">
                    <div class=""question-area""></div> 
                </div>","null","","","","","","","","","","","",""
"","","","","","html-button-response","78","1002227","0.0-78.0","38E90ABCA93E4FB2935AE952F28BF806","019cfc3a-9add-78e8-b8f7-93a90176c4ff","019cfc28-2143-7934-89cc-ce6402563331","","1671","
                <div class=""stimulus-container"">
                    <img src=""images/semantic_sequence/cat_care_semantic/cat_care_semantic_ten.png"" class=""exp-image"">
                    <div class=""question-area"">
                        <p style=""font-size: 20px; font-weight: bold; margin: 0;"">Is there a person in this image?</p>
                    </div>
                </div>","1","main_experiment_trial","ten","cat_care_semantic","semantic_sequence","chronological","","","","","","",""
"","","","","","html-keyboard-response","79","1007244","0.0-79.0","38E90ABCA93E4FB2935AE952F28BF806","019cfc3a-9add-78e8-b8f7-93a90176c4ff","019cfc28-2143-7934-89cc-ce6402563331","","null","<div style=""background-color: white; width: 100vw; height: 100vh;""></div>","null","","","","","","","","","","","",""
"","","","","","html-keyboard-response","80","1012255","0.0-80.0","38E90ABCA93E4FB2935AE952F28BF806","019cfc3a-9add-78e8-b8f7-93a90176c4ff","019cfc28-2143-7934-89cc-ce6402563331","","null","
                <div class=""stimulus-container"">
                    <img src=""images/semantic_sequence/maintaining_a_car_semantic/maintaining_a_car_semantic_1.png"" class=""exp-image"">
                    <div class=""question-area""></div> 
                </div>","null","","","","","","","","","","","",""
"","","","","","html-button-response","81","1014218","0.0-81.0","38E90ABCA93E4FB2935AE952F28BF806","019cfc3a-9add-78e8-b8f7-93a90176c4ff","019cfc28-2143-7934-89cc-ce6402563331","","1962","
                <div class=""stimulus-container"">
                    <img src=""images/semantic_sequence/maintaining_a_car_semantic/maintaining_a_car_semantic_1.png"" class=""exp-image"">
                    <div class=""question-area"">
                        <p style=""font-size: 20px; font-weight: bold; margin: 0;"">Is there a person in this image?</p>
                    </div>
                </div>","0","main_experiment_trial","1","maintaining_a_car_semantic","semantic_sequence","chronological","","","","","","",""
"","","","","","html-keyboard-response","82","1019224","0.0-82.0","38E90ABCA93E4FB2935AE952F28BF806","019cfc3a-9add-78e8-b8f7-93a90176c4ff","019cfc28-2143-7934-89cc-ce6402563331","","null","
                <div class=""stimulus-container"">
                    <img src=""images/semantic_sequence/maintaining_a_car_semantic/maintaining_a_car_semantic_2.png"" class=""exp-image"">
                    <div class=""question-area""></div> 
                </div>","null","","","","","","","","","","","",""
"","","","","","html-button-response","83","1022243","0.0-83.0","38E90ABCA93E4FB2935AE952F28BF806","019cfc3a-9add-78e8-b8f7-93a90176c4ff","019cfc28-2143-7934-89cc-ce6402563331","","null","
                <div class=""stimulus-container"">
                    <img src=""images/semantic_sequence/maintaining_a_car_semantic/maintaining_a_car_semantic_2.png"" class=""exp-image"">
                    <div class=""question-area"">
                        <p style=""font-size: 20px; font-weight: bold; margin: 0;"">Is there a person in this image?</p>
                    </div>
                </div>","null","main_experiment_trial","2","maintaining_a_car_semantic","semantic_sequence","chronological","","","","","","",""
"","","","","","html-keyboard-response","84","1027263","0.0-84.0","38E90ABCA93E4FB2935AE952F28BF806","019cfc3a-9add-78e8-b8f7-93a90176c4ff","019cfc28-2143-7934-89cc-ce6402563331","","null","
                <div class=""stimulus-container"">
                    <img src=""images/semantic_sequence/maintaining_a_car_semantic/maintaining_a_car_semantic_3.png"" class=""exp-image"">
                    <div class=""question-area""></div> 
                </div>","null","","","","","","","","","","","",""
"","","","","","html-button-response","85","1028405","0.0-85.0","38E90ABCA93E4FB2935AE952F28BF806","019cfc3a-9add-78e8-b8f7-93a90176c4ff","019cfc28-2143-7934-89cc-ce6402563331","","1141","
                <div class=""stimulus-container"">
                    <img src=""images/semantic_sequence/maintaining_a_car_semantic/maintaining_a_car_semantic_3.png"" class=""exp-image"">
                    <div class=""question-area"">
                        <p style=""font-size: 20px; font-weight: bold; margin: 0;"">Is there a person in this image?</p>
                    </div>
                </div>","0","main_experiment_trial","3","maintaining_a_car_semantic","semantic_sequence","chronological","","","","","","",""
"","","","","","html-keyboard-response","86","1033413","0.0-86.0","38E90ABCA93E4FB2935AE952F28BF806","019cfc3a-9add-78e8-b8f7-93a90176c4ff","019cfc28-2143-7934-89cc-ce6402563331","","null","
                <div class=""stimulus-container"">
                    <img src=""images/semantic_sequence/maintaining_a_car_semantic/maintaining_a_car_semantic_4.png"" class=""exp-image"">
                    <div class=""question-area""></div> 
                </div>","null","","","","","","","","","","","",""
"","","","","","html-button-response","87","1034845","0.0-87.0","38E90ABCA93E4FB2935AE952F28BF806","019cfc3a-9add-78e8-b8f7-93a90176c4ff","019cfc28-2143-7934-89cc-ce6402563331","","1431","
                <div class=""stimulus-container"">
                    <img src=""images/semantic_sequence/maintaining_a_car_semantic/maintaining_a_car_semantic_4.png"" class=""exp-image"">
                    <div class=""question-area"">
                        <p style=""font-size: 20px; font-weight: bold; margin: 0;"">Is there a person in this image?</p>
                    </div>
                </div>","0","main_experiment_trial","4","maintaining_a_car_semantic","semantic_sequence","chronological","","","","","","",""
"","","","","","html-keyboard-response","88","1039854","0.0-88.0","38E90ABCA93E4FB2935AE952F28BF806","019cfc3a-9add-78e8-b8f7-93a90176c4ff","019cfc28-2143-7934-89cc-ce6402563331","","null","
                <div class=""stimulus-container"">
                    <img src=""images/semantic_sequence/maintaining_a_car_semantic/maintaining_a_car_semantic_5.png"" class=""exp-image"">
                    <div class=""question-area""></div> 
                </div>","null","","","","","","","","","","","",""
"","","","","","html-button-response","89","1041145","0.0-89.0","38E90ABCA93E4FB2935AE952F28BF806","019cfc3a-9add-78e8-b8f7-93a90176c4ff","019cfc28-2143-7934-89cc-ce6402563331","","1290","
                <div class=""stimulus-container"">
                    <img src=""images/semantic_sequence/maintaining_a_car_semantic/maintaining_a_car_semantic_5.png"" class=""exp-image"">
                    <div class=""question-area"">
                        <p style=""font-size: 20px; font-weight: bold; margin: 0;"">Is there a person in this image?</p>
                    </div>
                </div>","0","main_experiment_trial","5","maintaining_a_car_semantic","semantic_sequence","chronological","","","","","","",""
"","","","","","html-keyboard-response","90","1046154","0.0-90.0","38E90ABCA93E4FB2935AE952F28BF806","019cfc3a-9add-78e8-b8f7-93a90176c4ff","019cfc28-2143-7934-89cc-ce6402563331","","null","
                <div class=""stimulus-container"">
                    <img src=""images/semantic_sequence/maintaining_a_car_semantic/maintaining_a_car_semantic_6.png"" class=""exp-image"">
                    <div class=""question-area""></div> 
                </div>","null","","","","","","","","","","","",""
"","","","","","html-button-response","91","1047179","0.0-91.0","38E90ABCA93E4FB2935AE952F28BF806","019cfc3a-9add-78e8-b8f7-93a90176c4ff","019cfc28-2143-7934-89cc-ce6402563331","","1024","
                <div class=""stimulus-container"">
                    <img src=""images/semantic_sequence/maintaining_a_car_semantic/maintaining_a_car_semantic_6.png"" class=""exp-image"">
                    <div class=""question-area"">
                        <p style=""font-size: 20px; font-weight: bold; margin: 0;"">Is there a person in this image?</p>
                    </div>
                </div>","0","main_experiment_trial","6","maintaining_a_car_semantic","semantic_sequence","chronological","","","","","","",""
"","","","","","html-keyboard-response","92","1052193","0.0-92.0","38E90ABCA93E4FB2935AE952F28BF806","019cfc3a-9add-78e8-b8f7-93a90176c4ff","019cfc28-2143-7934-89cc-ce6402563331","","null","
                <div class=""stimulus-container"">
                    <img src=""images/semantic_sequence/maintaining_a_car_semantic/maintaining_a_car_semantic_7.png"" class=""exp-image"">
                    <div class=""question-area""></div> 
                </div>","null","","","","","","","","","","","",""
"","","","","","html-button-response","93","1054303","0.0-93.0","38E90ABCA93E4FB2935AE952F28BF806","019cfc3a-9add-78e8-b8f7-93a90176c4ff","019cfc28-2143-7934-89cc-ce6402563331","","2108","
                <div class=""stimulus-container"">
                    <img src=""images/semantic_sequence/maintaining_a_car_semantic/maintaining_a_car_semantic_7.png"" class=""exp-image"">
                    <div class=""question-area"">
                        <p style=""font-size: 20px; font-weight: bold; margin: 0;"">Is there a person in this image?</p>
                    </div>
                </div>","0","main_experiment_trial","7","maintaining_a_car_semantic","semantic_sequence","chronological","","","","","","",""
"","","","","","html-keyboard-response","94","1059313","0.0-94.0","38E90ABCA93E4FB2935AE952F28BF806","019cfc3a-9add-78e8-b8f7-93a90176c4ff","019cfc28-2143-7934-89cc-ce6402563331","","null","
                <div class=""stimulus-container"">
                    <img src=""images/semantic_sequence/maintaining_a_car_semantic/maintaining_a_car_semantic_8.png"" class=""exp-image"">
                    <div class=""question-area""></div> 
                </div>","null","","","","","","","","","","","",""
"","","","","","html-button-response","95","1060266","0.0-95.0","38E90ABCA93E4FB2935AE952F28BF806","019cfc3a-9add-78e8-b8f7-93a90176c4ff","019cfc28-2143-7934-89cc-ce6402563331","","951","
                <div class=""stimulus-container"">
                    <img src=""images/semantic_sequence/maintaining_a_car_semantic/maintaining_a_car_semantic_8.png"" class=""exp-image"">
                    <div class=""question-area"">
                        <p style=""font-size: 20px; font-weight: bold; margin: 0;"">Is there a person in this image?</p>
                    </div>
                </div>","0","main_experiment_trial","8","maintaining_a_car_semantic","semantic_sequence","chronological","","","","","","",""
"","","","","","html-keyboard-response","96","1065274","0.0-96.0","38E90ABCA93E4FB2935AE952F28BF806","019cfc3a-9add-78e8-b8f7-93a90176c4ff","019cfc28-2143-7934-89cc-ce6402563331","","null","
                <div class=""stimulus-container"">
                    <img src=""images/semantic_sequence/maintaining_a_car_semantic/maintaining_a_car_semantic_9.png"" class=""exp-image"">
                    <div class=""question-area""></div> 
                </div>","null","","","","","","","","","","","",""
"","","","","","html-button-response","97","1066296","0.0-97.0","38E90ABCA93E4FB2935AE952F28BF806","019cfc3a-9add-78e8-b8f7-93a90176c4ff","019cfc28-2143-7934-89cc-ce6402563331","","1020","
                <div class=""stimulus-container"">
                    <img src=""images/semantic_sequence/maintaining_a_car_semantic/maintaining_a_car_semantic_9.png"" class=""exp-image"">
                    <div class=""question-area"">
                        <p style=""font-size: 20px; font-weight: bold; margin: 0;"">Is there a person in this image?</p>
                    </div>
                </div>","0","main_experiment_trial","9","maintaining_a_car_semantic","semantic_sequence","chronological","","","","","","",""
"","","","","","html-keyboard-response","98","1071314","0.0-98.0","38E90ABCA93E4FB2935AE952F28BF806","019cfc3a-9add-78e8-b8f7-93a90176c4ff","019cfc28-2143-7934-89cc-ce6402563331","","null","
                <div class=""stimulus-container"">
                    <img src=""images/semantic_sequence/maintaining_a_car_semantic/maintaining_a_car_semantic_ten.png"" class=""exp-image"">
                    <div class=""question-area""></div> 
                </div>","null","","","","","","","","","","","",""
"","","","","","html-button-response","99","1072647","0.0-99.0","38E90ABCA93E4FB2935AE952F28BF806","019cfc3a-9add-78e8-b8f7-93a90176c4ff","019cfc28-2143-7934-89cc-ce6402563331","","1331","
                <div class=""stimulus-container"">
                    <img src=""images/semantic_sequence/maintaining_a_car_semantic/maintaining_a_car_semantic_ten.png"" class=""exp-image"">
                    <div class=""question-area"">
                        <p style=""font-size: 20px; font-weight: bold; margin: 0;"">Is there a person in this image?</p>
                    </div>
                </div>","0","main_experiment_trial","ten","maintaining_a_car_semantic","semantic_sequence","chronological","","","","","","",""
"","","","","","html-keyboard-response","100","1077653","0.0-100.0","38E90ABCA93E4FB2935AE952F28BF806","019cfc3a-9add-78e8-b8f7-93a90176c4ff","019cfc28-2143-7934-89cc-ce6402563331","","null","<div style=""background-color: white; width: 100vw; height: 100vh;""></div>","null","","","","","","","","","","","",""
"","","","","","html-keyboard-response","101","1082665","0.0-101.0","38E90ABCA93E4FB2935AE952F28BF806","019cfc3a-9add-78e8-b8f7-93a90176c4ff","019cfc28-2143-7934-89cc-ce6402563331","","null","
                <div class=""stimulus-container"">
                    <img src=""images/semantic_sequence/housework_semantic/housework_semantic_1.png"" class=""exp-image"">
                    <div class=""question-area""></div> 
                </div>","null","","","","","","","","","","","",""
"","","","","","html-button-response","102","1083908","0.0-102.0","38E90ABCA93E4FB2935AE952F28BF806","019cfc3a-9add-78e8-b8f7-93a90176c4ff","019cfc28-2143-7934-89cc-ce6402563331","","1241","
                <div class=""stimulus-container"">
                    <img src=""images/semantic_sequence/housework_semantic/housework_semantic_1.png"" class=""exp-image"">
                    <div class=""question-area"">
                        <p style=""font-size: 20px; font-weight: bold; margin: 0;"">Is there a person in this image?</p>
                    </div>
                </div>","0","main_experiment_trial","1","housework_semantic","semantic_sequence","chronological","","","","","","",""
"","","","","","html-keyboard-response","103","1088915","0.0-103.0","38E90ABCA93E4FB2935AE952F28BF806","019cfc3a-9add-78e8-b8f7-93a90176c4ff","019cfc28-2143-7934-89cc-ce6402563331","","null","
                <div class=""stimulus-container"">
                    <img src=""images/semantic_sequence/housework_semantic/housework_semantic_2.png"" class=""exp-image"">
                    <div class=""question-area""></div> 
                </div>","null","","","","","","","","","","","",""
"","","","","","html-button-response","104","1090097","0.0-104.0","38E90ABCA93E4FB2935AE952F28BF806","019cfc3a-9add-78e8-b8f7-93a90176c4ff","019cfc28-2143-7934-89cc-ce6402563331","","1181","
                <div class=""stimulus-container"">
                    <img src=""images/semantic_sequence/housework_semantic/housework_semantic_2.png"" class=""exp-image"">
                    <div class=""question-area"">
                        <p style=""font-size: 20px; font-weight: bold; margin: 0;"">Is there a person in this image?</p>
                    </div>
                </div>","0","main_experiment_trial","2","housework_semantic","semantic_sequence","chronological","","","","","","",""
"","","","","","html-keyboard-response","105","1095105","0.0-105.0","38E90ABCA93E4FB2935AE952F28BF806","019cfc3a-9add-78e8-b8f7-93a90176c4ff","019cfc28-2143-7934-89cc-ce6402563331","","null","
                <div class=""stimulus-container"">
                    <img src=""images/semantic_sequence/housework_semantic/housework_semantic_3.png"" class=""exp-image"">
                    <div class=""question-area""></div> 
                </div>","null","","","","","","","","","","","",""
"","","","","","html-button-response","106","1096108","0.0-106.0","38E90ABCA93E4FB2935AE952F28BF806","019cfc3a-9add-78e8-b8f7-93a90176c4ff","019cfc28-2143-7934-89cc-ce6402563331","","1001","
                <div class=""stimulus-container"">
                    <img src=""images/semantic_sequence/housework_semantic/housework_semantic_3.png"" class=""exp-image"">
                    <div class=""question-area"">
                        <p style=""font-size: 20px; font-weight: bold; margin: 0;"">Is there a person in this image?</p>
                    </div>
                </div>","0","main_experiment_trial","3","housework_semantic","semantic_sequence","chronological","","","","","","",""
"","","","","","html-keyboard-response","107","1101114","0.0-107.0","38E90ABCA93E4FB2935AE952F28BF806","019cfc3a-9add-78e8-b8f7-93a90176c4ff","019cfc28-2143-7934-89cc-ce6402563331","","null","
                <div class=""stimulus-container"">
                    <img src=""images/semantic_sequence/housework_semantic/housework_semantic_4.png"" class=""exp-image"">
                    <div class=""question-area""></div> 
                </div>","null","","","","","","","","","","","",""
"","","","","","html-button-response","108","1102677","0.0-108.0","38E90ABCA93E4FB2935AE952F28BF806","019cfc3a-9add-78e8-b8f7-93a90176c4ff","019cfc28-2143-7934-89cc-ce6402563331","","1561","
                <div class=""stimulus-container"">
                    <img src=""images/semantic_sequence/housework_semantic/housework_semantic_4.png"" class=""exp-image"">
                    <div class=""question-area"">
                        <p style=""font-size: 20px; font-weight: bold; margin: 0;"">Is there a person in this image?</p>
                    </div>
                </div>","0","main_experiment_trial","4","housework_semantic","semantic_sequence","chronological","","","","","","",""
"","","","","","html-keyboard-response","109","1107694","0.0-109.0","38E90ABCA93E4FB2935AE952F28BF806","019cfc3a-9add-78e8-b8f7-93a90176c4ff","019cfc28-2143-7934-89cc-ce6402563331","","null","
                <div class=""stimulus-container"">
                    <img src=""images/semantic_sequence/housework_semantic/housework_semantic_5.png"" class=""exp-image"">
                    <div class=""question-area""></div> 
                </div>","null","","","","","","","","","","","",""
"","","","","","html-button-response","110","1108859","0.0-110.0","38E90ABCA93E4FB2935AE952F28BF806","019cfc3a-9add-78e8-b8f7-93a90176c4ff","019cfc28-2143-7934-89cc-ce6402563331","","1162","
                <div class=""stimulus-container"">
                    <img src=""images/semantic_sequence/housework_semantic/housework_semantic_5.png"" class=""exp-image"">
                    <div class=""question-area"">
                        <p style=""font-size: 20px; font-weight: bold; margin: 0;"">Is there a person in this image?</p>
                    </div>
                </div>","0","main_experiment_trial","5","housework_semantic","semantic_sequence","chronological","","","","","","",""
"","","","","","html-keyboard-response","111","1113865","0.0-111.0","38E90ABCA93E4FB2935AE952F28BF806","019cfc3a-9add-78e8-b8f7-93a90176c4ff","019cfc28-2143-7934-89cc-ce6402563331","","null","
                <div class=""stimulus-container"">
                    <img src=""images/semantic_sequence/housework_semantic/housework_semantic_6.png"" class=""exp-image"">
                    <div class=""question-area""></div> 
                </div>","null","","","","","","","","","","","",""
"","","","","","html-button-response","112","1115368","0.0-112.0","38E90ABCA93E4FB2935AE952F28BF806","019cfc3a-9add-78e8-b8f7-93a90176c4ff","019cfc28-2143-7934-89cc-ce6402563331","","1501","
                <div class=""stimulus-container"">
                    <img src=""images/semantic_sequence/housework_semantic/housework_semantic_6.png"" class=""exp-image"">
                    <div class=""question-area"">
                        <p style=""font-size: 20px; font-weight: bold; margin: 0;"">Is there a person in this image?</p>
                    </div>
                </div>","0","main_experiment_trial","6","housework_semantic","semantic_sequence","chronological","","","","","","",""
"","","","","","html-keyboard-response","113","1120385","0.0-113.0","38E90ABCA93E4FB2935AE952F28BF806","019cfc3a-9add-78e8-b8f7-93a90176c4ff","019cfc28-2143-7934-89cc-ce6402563331","","null","
                <div class=""stimulus-container"">
                    <img src=""images/semantic_sequence/housework_semantic/housework_semantic_7.png"" class=""exp-image"">
                    <div class=""question-area""></div> 
                </div>","null","","","","","","","","","","","",""
"","","","","","html-button-response","114","1121462","0.0-114.0","38E90ABCA93E4FB2935AE952F28BF806","019cfc3a-9add-78e8-b8f7-93a90176c4ff","019cfc28-2143-7934-89cc-ce6402563331","","1076","
                <div class=""stimulus-container"">
                    <img src=""images/semantic_sequence/housework_semantic/housework_semantic_7.png"" class=""exp-image"">
                    <div class=""question-area"">
                        <p style=""font-size: 20px; font-weight: bold; margin: 0;"">Is there a person in this image?</p>
                    </div>
                </div>","0","main_experiment_trial","7","housework_semantic","semantic_sequence","chronological","","","","","","",""
"","","","","","html-keyboard-response","115","1126484","0.0-115.0","38E90ABCA93E4FB2935AE952F28BF806","019cfc3a-9add-78e8-b8f7-93a90176c4ff","019cfc28-2143-7934-89cc-ce6402563331","","null","
                <div class=""stimulus-container"">
                    <img src=""images/semantic_sequence/housework_semantic/housework_semantic_8.png"" class=""exp-image"">
                    <div class=""question-area""></div> 
                </div>","null","","","","","","","","","","","",""
"","","","","","html-button-response","116","1127718","0.0-116.0","38E90ABCA93E4FB2935AE952F28BF806","019cfc3a-9add-78e8-b8f7-93a90176c4ff","019cfc28-2143-7934-89cc-ce6402563331","","1231","
                <div class=""stimulus-container"">
                    <img src=""images/semantic_sequence/housework_semantic/housework_semantic_8.png"" class=""exp-image"">
                    <div class=""question-area"">
                        <p style=""font-size: 20px; font-weight: bold; margin: 0;"">Is there a person in this image?</p>
                    </div>
                </div>","0","main_experiment_trial","8","housework_semantic","semantic_sequence","chronological","","","","","","",""
"","","","","","html-keyboard-response","117","1132725","0.0-117.0","38E90ABCA93E4FB2935AE952F28BF806","019cfc3a-9add-78e8-b8f7-93a90176c4ff","019cfc28-2143-7934-89cc-ce6402563331","","null","
                <div class=""stimulus-container"">
                    <img src=""images/semantic_sequence/housework_semantic/housework_semantic_9.png"" class=""exp-image"">
                    <div class=""question-area""></div> 
                </div>","null","","","","","","","","","","","",""
"","","","","","html-button-response","118","1135048","0.0-118.0","38E90ABCA93E4FB2935AE952F28BF806","019cfc3a-9add-78e8-b8f7-93a90176c4ff","019cfc28-2143-7934-89cc-ce6402563331","","2321","
                <div class=""stimulus-container"">
                    <img src=""images/semantic_sequence/housework_semantic/housework_semantic_9.png"" class=""exp-image"">
                    <div class=""question-area"">
                        <p style=""font-size: 20px; font-weight: bold; margin: 0;"">Is there a person in this image?</p>
                    </div>
                </div>","0","main_experiment_trial","9","housework_semantic","semantic_sequence","chronological","","","","","","",""
"","","","","","html-keyboard-response","119","1140055","0.0-119.0","38E90ABCA93E4FB2935AE952F28BF806","019cfc3a-9add-78e8-b8f7-93a90176c4ff","019cfc28-2143-7934-89cc-ce6402563331","","null","
                <div class=""stimulus-container"">
                    <img src=""images/semantic_sequence/housework_semantic/housework_semantic_ten.png"" class=""exp-image"">
                    <div class=""question-area""></div> 
                </div>","null","","","","","","","","","","","",""
"","","","","","html-button-response","120","1142312","0.0-120.0","38E90ABCA93E4FB2935AE952F28BF806","019cfc3a-9add-78e8-b8f7-93a90176c4ff","019cfc28-2143-7934-89cc-ce6402563331","","2256","
                <div class=""stimulus-container"">
                    <img src=""images/semantic_sequence/housework_semantic/housework_semantic_ten.png"" class=""exp-image"">
                    <div class=""question-area"">
                        <p style=""font-size: 20px; font-weight: bold; margin: 0;"">Is there a person in this image?</p>
                    </div>
                </div>","0","main_experiment_trial","ten","housework_semantic","semantic_sequence","chronological","","","","","","",""
"","","","","","html-keyboard-response","121","1147324","0.0-121.0","38E90ABCA93E4FB2935AE952F28BF806","019cfc3a-9add-78e8-b8f7-93a90176c4ff","019cfc28-2143-7934-89cc-ce6402563331","","null","<div style=""background-color: white; width: 100vw; height: 100vh;""></div>","null","","","","","","","","","","","",""
"","","","","","html-keyboard-response","122","1152345","0.0-122.0","38E90ABCA93E4FB2935AE952F28BF806","019cfc3a-9add-78e8-b8f7-93a90176c4ff","019cfc28-2143-7934-89cc-ce6402563331","","null","
                <div class=""stimulus-container"">
                    <img src=""images/schematic_sequence/supermarket_scheme/supermarket_scheme_1.png"" class=""exp-image"">
                    <div class=""question-area""></div> 
                </div>","null","","","","","","","","","","","",""
"","","","","","html-button-response","123","1155257","0.0-123.0","38E90ABCA93E4FB2935AE952F28BF806","019cfc3a-9add-78e8-b8f7-93a90176c4ff","019cfc28-2143-7934-89cc-ce6402563331","","2911","
                <div class=""stimulus-container"">
                    <img src=""images/schematic_sequence/supermarket_scheme/supermarket_scheme_1.png"" class=""exp-image"">
                    <div class=""question-area"">
                        <p style=""font-size: 20px; font-weight: bold; margin: 0;"">Is there a person in this image?</p>
                    </div>
                </div>","1","main_experiment_trial","1","supermarket_scheme","schematic_sequence","chronological","","","","","","",""
"","","","","","html-keyboard-response","124","1160265","0.0-124.0","38E90ABCA93E4FB2935AE952F28BF806","019cfc3a-9add-78e8-b8f7-93a90176c4ff","019cfc28-2143-7934-89cc-ce6402563331","","null","
                <div class=""stimulus-container"">
                    <img src=""images/schematic_sequence/supermarket_scheme/supermarket_scheme_2.png"" class=""exp-image"">
                    <div class=""question-area""></div> 
                </div>","null","","","","","","","","","","","",""
"","","","","","html-button-response","125","1161308","0.0-125.0","38E90ABCA93E4FB2935AE952F28BF806","019cfc3a-9add-78e8-b8f7-93a90176c4ff","019cfc28-2143-7934-89cc-ce6402563331","","1042","
                <div class=""stimulus-container"">
                    <img src=""images/schematic_sequence/supermarket_scheme/supermarket_scheme_2.png"" class=""exp-image"">
                    <div class=""question-area"">
                        <p style=""font-size: 20px; font-weight: bold; margin: 0;"">Is there a person in this image?</p>
                    </div>
                </div>","1","main_experiment_trial","2","supermarket_scheme","schematic_sequence","chronological","","","","","","",""
"","","","","","html-keyboard-response","126","1166312","0.0-126.0","38E90ABCA93E4FB2935AE952F28BF806","019cfc3a-9add-78e8-b8f7-93a90176c4ff","019cfc28-2143-7934-89cc-ce6402563331","","null","
                <div class=""stimulus-container"">
                    <img src=""images/schematic_sequence/supermarket_scheme/supermarket_scheme_3.png"" class=""exp-image"">
                    <div class=""question-area""></div> 
                </div>","null","","","","","","","","","","","",""
"","","","","","html-button-response","127","1167658","0.0-127.0","38E90ABCA93E4FB2935AE952F28BF806","019cfc3a-9add-78e8-b8f7-93a90176c4ff","019cfc28-2143-7934-89cc-ce6402563331","","1344","
                <div class=""stimulus-container"">
                    <img src=""images/schematic_sequence/supermarket_scheme/supermarket_scheme_3.png"" class=""exp-image"">
                    <div class=""question-area"">
                        <p style=""font-size: 20px; font-weight: bold; margin: 0;"">Is there a person in this image?</p>
                    </div>
                </div>","1","main_experiment_trial","3","supermarket_scheme","schematic_sequence","chronological","","","","","","",""
"","","","","","html-keyboard-response","128","1172675","0.0-128.0","38E90ABCA93E4FB2935AE952F28BF806","019cfc3a-9add-78e8-b8f7-93a90176c4ff","019cfc28-2143-7934-89cc-ce6402563331","","null","
                <div class=""stimulus-container"">
                    <img src=""images/schematic_sequence/supermarket_scheme/supermarket_scheme_4.png"" class=""exp-image"">
                    <div class=""question-area""></div> 
                </div>","null","","","","","","","","","","","",""
"","","","","","html-button-response","129","1174897","0.0-129.0","38E90ABCA93E4FB2935AE952F28BF806","019cfc3a-9add-78e8-b8f7-93a90176c4ff","019cfc28-2143-7934-89cc-ce6402563331","","2221","
                <div class=""stimulus-container"">
                    <img src=""images/schematic_sequence/supermarket_scheme/supermarket_scheme_4.png"" class=""exp-image"">
                    <div class=""question-area"">
                        <p style=""font-size: 20px; font-weight: bold; margin: 0;"">Is there a person in this image?</p>
                    </div>
                </div>","0","main_experiment_trial","4","supermarket_scheme","schematic_sequence","chronological","","","","","","",""
"","","","","","html-keyboard-response","130","1179915","0.0-130.0","38E90ABCA93E4FB2935AE952F28BF806","019cfc3a-9add-78e8-b8f7-93a90176c4ff","019cfc28-2143-7934-89cc-ce6402563331","","null","
                <div class=""stimulus-container"">
                    <img src=""images/schematic_sequence/supermarket_scheme/supermarket_scheme_5.png"" class=""exp-image"">
                    <div class=""question-area""></div> 
                </div>","null","","","","","","","","","","","",""
"","","","","","html-button-response","131","1181766","0.0-131.0","38E90ABCA93E4FB2935AE952F28BF806","019cfc3a-9add-78e8-b8f7-93a90176c4ff","019cfc28-2143-7934-89cc-ce6402563331","","1850","
                <div class=""stimulus-container"">
                    <img src=""images/schematic_sequence/supermarket_scheme/supermarket_scheme_5.png"" class=""exp-image"">
                    <div class=""question-area"">
                        <p style=""font-size: 20px; font-weight: bold; margin: 0;"">Is there a person in this image?</p>
                    </div>
                </div>","1","main_experiment_trial","5","supermarket_scheme","schematic_sequence","chronological","","","","","","",""
"","","","","","html-keyboard-response","132","1186782","0.0-132.0","38E90ABCA93E4FB2935AE952F28BF806","019cfc3a-9add-78e8-b8f7-93a90176c4ff","019cfc28-2143-7934-89cc-ce6402563331","","null","
                <div class=""stimulus-container"">
                    <img src=""images/schematic_sequence/supermarket_scheme/supermarket_scheme_6.png"" class=""exp-image"">
                    <div class=""question-area""></div> 
                </div>","null","","","","","","","","","","","",""
"","","","","","html-button-response","133","1188502","0.0-133.0","38E90ABCA93E4FB2935AE952F28BF806","019cfc3a-9add-78e8-b8f7-93a90176c4ff","019cfc28-2143-7934-89cc-ce6402563331","","1717","
                <div class=""stimulus-container"">
                    <img src=""images/schematic_sequence/supermarket_scheme/supermarket_scheme_6.png"" class=""exp-image"">
                    <div class=""question-area"">
                        <p style=""font-size: 20px; font-weight: bold; margin: 0;"">Is there a person in this image?</p>
                    </div>
                </div>","0","main_experiment_trial","6","supermarket_scheme","schematic_sequence","chronological","","","","","","",""
"","","","","","html-keyboard-response","134","1193515","0.0-134.0","38E90ABCA93E4FB2935AE952F28BF806","019cfc3a-9add-78e8-b8f7-93a90176c4ff","019cfc28-2143-7934-89cc-ce6402563331","","null","
                <div class=""stimulus-container"">
                    <img src=""images/schematic_sequence/supermarket_scheme/supermarket_scheme_7.png"" class=""exp-image"">
                    <div class=""question-area""></div> 
                </div>","null","","","","","","","","","","","",""
"","","","","","html-button-response","135","1194458","0.0-135.0","38E90ABCA93E4FB2935AE952F28BF806","019cfc3a-9add-78e8-b8f7-93a90176c4ff","019cfc28-2143-7934-89cc-ce6402563331","","941","
                <div class=""stimulus-container"">
                    <img src=""images/schematic_sequence/supermarket_scheme/supermarket_scheme_7.png"" class=""exp-image"">
                    <div class=""question-area"">
                        <p style=""font-size: 20px; font-weight: bold; margin: 0;"">Is there a person in this image?</p>
                    </div>
                </div>","0","main_experiment_trial","7","supermarket_scheme","schematic_sequence","chronological","","","","","","",""
"","","","","","html-keyboard-response","136","1199464","0.0-136.0","38E90ABCA93E4FB2935AE952F28BF806","019cfc3a-9add-78e8-b8f7-93a90176c4ff","019cfc28-2143-7934-89cc-ce6402563331","","null","
                <div class=""stimulus-container"">
                    <img src=""images/schematic_sequence/supermarket_scheme/supermarket_scheme_8.png"" class=""exp-image"">
                    <div class=""question-area""></div> 
                </div>","null","","","","","","","","","","","",""
"","","","","","html-button-response","137","1200767","0.0-137.0","38E90ABCA93E4FB2935AE952F28BF806","019cfc3a-9add-78e8-b8f7-93a90176c4ff","019cfc28-2143-7934-89cc-ce6402563331","","1300","
                <div class=""stimulus-container"">
                    <img src=""images/schematic_sequence/supermarket_scheme/supermarket_scheme_8.png"" class=""exp-image"">
                    <div class=""question-area"">
                        <p style=""font-size: 20px; font-weight: bold; margin: 0;"">Is there a person in this image?</p>
                    </div>
                </div>","0","main_experiment_trial","8","supermarket_scheme","schematic_sequence","chronological","","","","","","",""
"","","","","","html-keyboard-response","138","1205775","0.0-138.0","38E90ABCA93E4FB2935AE952F28BF806","019cfc3a-9add-78e8-b8f7-93a90176c4ff","019cfc28-2143-7934-89cc-ce6402563331","","null","
                <div class=""stimulus-container"">
                    <img src=""images/schematic_sequence/supermarket_scheme/supermarket_scheme_9.png"" class=""exp-image"">
                    <div class=""question-area""></div> 
                </div>","null","","","","","","","","","","","",""
"","","","","","html-button-response","139","1207337","0.0-139.0","38E90ABCA93E4FB2935AE952F28BF806","019cfc3a-9add-78e8-b8f7-93a90176c4ff","019cfc28-2143-7934-89cc-ce6402563331","","1560","
                <div class=""stimulus-container"">
                    <img src=""images/schematic_sequence/supermarket_scheme/supermarket_scheme_9.png"" class=""exp-image"">
                    <div class=""question-area"">
                        <p style=""font-size: 20px; font-weight: bold; margin: 0;"">Is there a person in this image?</p>
                    </div>
                </div>","0","main_experiment_trial","9","supermarket_scheme","schematic_sequence","chronological","","","","","","",""
"","","","","","html-keyboard-response","140","1212355","0.0-140.0","38E90ABCA93E4FB2935AE952F28BF806","019cfc3a-9add-78e8-b8f7-93a90176c4ff","019cfc28-2143-7934-89cc-ce6402563331","","null","
                <div class=""stimulus-container"">
                    <img src=""images/schematic_sequence/supermarket_scheme/supermarket_scheme_ten.png"" class=""exp-image"">
                    <div class=""question-area""></div> 
                </div>","null","","","","","","","","","","","",""
"","","","","","html-button-response","141","1214768","0.0-141.0","38E90ABCA93E4FB2935AE952F28BF806","019cfc3a-9add-78e8-b8f7-93a90176c4ff","019cfc28-2143-7934-89cc-ce6402563331","","2411","
                <div class=""stimulus-container"">
                    <img src=""images/schematic_sequence/supermarket_scheme/supermarket_scheme_ten.png"" class=""exp-image"">
                    <div class=""question-area"">
                        <p style=""font-size: 20px; font-weight: bold; margin: 0;"">Is there a person in this image?</p>
                    </div>
                </div>","0","main_experiment_trial","ten","supermarket_scheme","schematic_sequence","chronological","","","","","","",""
"","","","","","html-keyboard-response","142","1219784","0.0-142.0","38E90ABCA93E4FB2935AE952F28BF806","019cfc3a-9add-78e8-b8f7-93a90176c4ff","019cfc28-2143-7934-89cc-ce6402563331","","null","<div style=""background-color: white; width: 100vw; height: 100vh;""></div>","null","","","","","","","","","","","",""
"","","","","","html-keyboard-response","143","1224805","0.0-143.0","38E90ABCA93E4FB2935AE952F28BF806","019cfc3a-9add-78e8-b8f7-93a90176c4ff","019cfc28-2143-7934-89cc-ce6402563331","","null","
                <div class=""stimulus-container"">
                    <img src=""images/semantic_sequence/exploring_nature_semantic/exploring_nature_semantic_1.png"" class=""exp-image"">
                    <div class=""question-area""></div> 
                </div>","null","","","","","","","","","","","",""
"","","","","","html-button-response","144","1227815","0.0-144.0","38E90ABCA93E4FB2935AE952F28BF806","019cfc3a-9add-78e8-b8f7-93a90176c4ff","019cfc28-2143-7934-89cc-ce6402563331","","null","
                <div class=""stimulus-container"">
                    <img src=""images/semantic_sequence/exploring_nature_semantic/exploring_nature_semantic_1.png"" class=""exp-image"">
                    <div class=""question-area"">
                        <p style=""font-size: 20px; font-weight: bold; margin: 0;"">Is there a person in this image?</p>
                    </div>
                </div>","null","main_experiment_trial","1","exploring_nature_semantic","semantic_sequence","chronological","","","","","","",""
"","","","","","html-keyboard-response","145","1232820","0.0-145.0","38E90ABCA93E4FB2935AE952F28BF806","019cfc3a-9add-78e8-b8f7-93a90176c4ff","019cfc28-2143-7934-89cc-ce6402563331","","null","
                <div class=""stimulus-container"">
                    <img src=""images/semantic_sequence/exploring_nature_semantic/exploring_nature_semantic_2.png"" class=""exp-image"">
                    <div class=""question-area""></div> 
                </div>","null","","","","","","","","","","","",""
"","","","","","html-button-response","146","1234587","0.0-146.0","38E90ABCA93E4FB2935AE952F28BF806","019cfc3a-9add-78e8-b8f7-93a90176c4ff","019cfc28-2143-7934-89cc-ce6402563331","","1765","
                <div class=""stimulus-container"">
                    <img src=""images/semantic_sequence/exploring_nature_semantic/exploring_nature_semantic_2.png"" class=""exp-image"">
                    <div class=""question-area"">
                        <p style=""font-size: 20px; font-weight: bold; margin: 0;"">Is there a person in this image?</p>
                    </div>
                </div>","0","main_experiment_trial","2","exploring_nature_semantic","semantic_sequence","chronological","","","","","","",""
"","","","","","html-keyboard-response","147","1239604","0.0-147.0","38E90ABCA93E4FB2935AE952F28BF806","019cfc3a-9add-78e8-b8f7-93a90176c4ff","019cfc28-2143-7934-89cc-ce6402563331","","null","
                <div class=""stimulus-container"">
                    <img src=""images/semantic_sequence/exploring_nature_semantic/exploring_nature_semantic_3.png"" class=""exp-image"">
                    <div class=""question-area""></div> 
                </div>","null","","","","","","","","","","","",""
"","","","","","html-button-response","148","1240486","0.0-148.0","38E90ABCA93E4FB2935AE952F28BF806","019cfc3a-9add-78e8-b8f7-93a90176c4ff","019cfc28-2143-7934-89cc-ce6402563331","","880","
                <div class=""stimulus-container"">
                    <img src=""images/semantic_sequence/exploring_nature_semantic/exploring_nature_semantic_3.png"" class=""exp-image"">
                    <div class=""question-area"">
                        <p style=""font-size: 20px; font-weight: bold; margin: 0;"">Is there a person in this image?</p>
                    </div>
                </div>","0","main_experiment_trial","3","exploring_nature_semantic","semantic_sequence","chronological","","","","","","",""
"","","","","","html-keyboard-response","149","1245495","0.0-149.0","38E90ABCA93E4FB2935AE952F28BF806","019cfc3a-9add-78e8-b8f7-93a90176c4ff","019cfc28-2143-7934-89cc-ce6402563331","","null","
                <div class=""stimulus-container"">
                    <img src=""images/semantic_sequence/exploring_nature_semantic/exploring_nature_semantic_4.png"" class=""exp-image"">
                    <div class=""question-area""></div> 
                </div>","null","","","","","","","","","","","",""
"","","","","","html-button-response","150","1246447","0.0-150.0","38E90ABCA93E4FB2935AE952F28BF806","019cfc3a-9add-78e8-b8f7-93a90176c4ff","019cfc28-2143-7934-89cc-ce6402563331","","950","
                <div class=""stimulus-container"">
                    <img src=""images/semantic_sequence/exploring_nature_semantic/exploring_nature_semantic_4.png"" class=""exp-image"">
                    <div class=""question-area"">
                        <p style=""font-size: 20px; font-weight: bold; margin: 0;"">Is there a person in this image?</p>
                    </div>
                </div>","0","main_experiment_trial","4","exploring_nature_semantic","semantic_sequence","chronological","","","","","","",""
"","","","","","html-keyboard-response","151","1251455","0.0-151.0","38E90ABCA93E4FB2935AE952F28BF806","019cfc3a-9add-78e8-b8f7-93a90176c4ff","019cfc28-2143-7934-89cc-ce6402563331","","null","
                <div class=""stimulus-container"">
                    <img src=""images/semantic_sequence/exploring_nature_semantic/exploring_nature_semantic_5.png"" class=""exp-image"">
                    <div class=""question-area""></div> 
                </div>","null","","","","","","","","","","","",""
"","","","","","html-button-response","152","1252388","0.0-152.0","38E90ABCA93E4FB2935AE952F28BF806","019cfc3a-9add-78e8-b8f7-93a90176c4ff","019cfc28-2143-7934-89cc-ce6402563331","","931","
                <div class=""stimulus-container"">
                    <img src=""images/semantic_sequence/exploring_nature_semantic/exploring_nature_semantic_5.png"" class=""exp-image"">
                    <div class=""question-area"">
                        <p style=""font-size: 20px; font-weight: bold; margin: 0;"">Is there a person in this image?</p>
                    </div>
                </div>","0","main_experiment_trial","5","exploring_nature_semantic","semantic_sequence","chronological","","","","","","",""
"","","","","","html-keyboard-response","153","1257395","0.0-153.0","38E90ABCA93E4FB2935AE952F28BF806","019cfc3a-9add-78e8-b8f7-93a90176c4ff","019cfc28-2143-7934-89cc-ce6402563331","","null","
                <div class=""stimulus-container"">
                    <img src=""images/semantic_sequence/exploring_nature_semantic/exploring_nature_semantic_6.png"" class=""exp-image"">
                    <div class=""question-area""></div> 
                </div>","null","","","","","","","","","","","",""
"","","","","","html-button-response","154","1258177","0.0-154.0","38E90ABCA93E4FB2935AE952F28BF806","019cfc3a-9add-78e8-b8f7-93a90176c4ff","019cfc28-2143-7934-89cc-ce6402563331","","781","
                <div class=""stimulus-container"">
                    <img src=""images/semantic_sequence/exploring_nature_semantic/exploring_nature_semantic_6.png"" class=""exp-image"">
                    <div class=""question-area"">
                        <p style=""font-size: 20px; font-weight: bold; margin: 0;"">Is there a person in this image?</p>
                    </div>
                </div>","0","main_experiment_trial","6","exploring_nature_semantic","semantic_sequence","chronological","","","","","","",""
"","","","","","html-keyboard-response","155","1263185","0.0-155.0","38E90ABCA93E4FB2935AE952F28BF806","019cfc3a-9add-78e8-b8f7-93a90176c4ff","019cfc28-2143-7934-89cc-ce6402563331","","null","
                <div class=""stimulus-container"">
                    <img src=""images/semantic_sequence/exploring_nature_semantic/exploring_nature_semantic_7.png"" class=""exp-image"">
                    <div class=""question-area""></div> 
                </div>","null","","","","","","","","","","","",""
"","","","","","html-button-response","156","1264067","0.0-156.0","38E90ABCA93E4FB2935AE952F28BF806","019cfc3a-9add-78e8-b8f7-93a90176c4ff","019cfc28-2143-7934-89cc-ce6402563331","","881","
                <div class=""stimulus-container"">
                    <img src=""images/semantic_sequence/exploring_nature_semantic/exploring_nature_semantic_7.png"" class=""exp-image"">
                    <div class=""question-area"">
                        <p style=""font-size: 20px; font-weight: bold; margin: 0;"">Is there a person in this image?</p>
                    </div>
                </div>","0","main_experiment_trial","7","exploring_nature_semantic","semantic_sequence","chronological","","","","","","",""
"","","","","","html-keyboard-response","157","1269085","0.0-157.0","38E90ABCA93E4FB2935AE952F28BF806","019cfc3a-9add-78e8-b8f7-93a90176c4ff","019cfc28-2143-7934-89cc-ce6402563331","","null","
                <div class=""stimulus-container"">
                    <img src=""images/semantic_sequence/exploring_nature_semantic/exploring_nature_semantic_8.png"" class=""exp-image"">
                    <div class=""question-area""></div> 
                </div>","null","","","","","","","","","","","",""
"","","","","","html-button-response","158","1270327","0.0-158.0","38E90ABCA93E4FB2935AE952F28BF806","019cfc3a-9add-78e8-b8f7-93a90176c4ff","019cfc28-2143-7934-89cc-ce6402563331","","1241","
                <div class=""stimulus-container"">
                    <img src=""images/semantic_sequence/exploring_nature_semantic/exploring_nature_semantic_8.png"" class=""exp-image"">
                    <div class=""question-area"">
                        <p style=""font-size: 20px; font-weight: bold; margin: 0;"">Is there a person in this image?</p>
                    </div>
                </div>","0","main_experiment_trial","8","exploring_nature_semantic","semantic_sequence","chronological","","","","","","",""
"","","","","","html-keyboard-response","159","1275335","0.0-159.0","38E90ABCA93E4FB2935AE952F28BF806","019cfc3a-9add-78e8-b8f7-93a90176c4ff","019cfc28-2143-7934-89cc-ce6402563331","","null","
                <div class=""stimulus-container"">
                    <img src=""images/semantic_sequence/exploring_nature_semantic/exploring_nature_semantic_9.png"" class=""exp-image"">
                    <div class=""question-area""></div> 
                </div>","null","","","","","","","","","","","",""
"","","","","","html-button-response","160","1276638","0.0-160.0","38E90ABCA93E4FB2935AE952F28BF806","019cfc3a-9add-78e8-b8f7-93a90176c4ff","019cfc28-2143-7934-89cc-ce6402563331","","1302","
                <div class=""stimulus-container"">
                    <img src=""images/semantic_sequence/exploring_nature_semantic/exploring_nature_semantic_9.png"" class=""exp-image"">
                    <div class=""question-area"">
                        <p style=""font-size: 20px; font-weight: bold; margin: 0;"">Is there a person in this image?</p>
                    </div>
                </div>","0","main_experiment_trial","9","exploring_nature_semantic","semantic_sequence","chronological","","","","","","",""
"","","","","","html-keyboard-response","161","1281650","0.0-161.0","38E90ABCA93E4FB2935AE952F28BF806","019cfc3a-9add-78e8-b8f7-93a90176c4ff","019cfc28-2143-7934-89cc-ce6402563331","","null","
                <div class=""stimulus-container"">
                    <img src=""images/semantic_sequence/exploring_nature_semantic/exploring_nature_semantic_ten.png"" class=""exp-image"">
                    <div class=""question-area""></div> 
                </div>","null","","","","","","","","","","","",""
"","","","","","html-button-response","162","1283498","0.0-162.0","38E90ABCA93E4FB2935AE952F28BF806","019cfc3a-9add-78e8-b8f7-93a90176c4ff","019cfc28-2143-7934-89cc-ce6402563331","","1846","
                <div class=""stimulus-container"">
                    <img src=""images/semantic_sequence/exploring_nature_semantic/exploring_nature_semantic_ten.png"" class=""exp-image"">
                    <div class=""question-area"">
                        <p style=""font-size: 20px; font-weight: bold; margin: 0;"">Is there a person in this image?</p>
                    </div>
                </div>","0","main_experiment_trial","ten","exploring_nature_semantic","semantic_sequence","chronological","","","","","","",""
"","","","","","html-keyboard-response","163","1288514","0.0-163.0","38E90ABCA93E4FB2935AE952F28BF806","019cfc3a-9add-78e8-b8f7-93a90176c4ff","019cfc28-2143-7934-89cc-ce6402563331","","null","<div style=""background-color: white; width: 100vw; height: 100vh;""></div>","null","","","","","","","","","","","",""
"","","","","","html-keyboard-response","164","1293535","0.0-164.0","38E90ABCA93E4FB2935AE952F28BF806","019cfc3a-9add-78e8-b8f7-93a90176c4ff","019cfc28-2143-7934-89cc-ce6402563331","","null","
                <div class=""stimulus-container"">
                    <img src=""images/schematic_sequence/interview_scheme/interview_scheme_1.png"" class=""exp-image"">
                    <div class=""question-area""></div> 
                </div>","null","","","","","","","","","","","",""
"","","","","","html-button-response","165","1296542","0.0-165.0","38E90ABCA93E4FB2935AE952F28BF806","019cfc3a-9add-78e8-b8f7-93a90176c4ff","019cfc28-2143-7934-89cc-ce6402563331","","null","
                <div class=""stimulus-container"">
                    <img src=""images/schematic_sequence/interview_scheme/interview_scheme_1.png"" class=""exp-image"">
                    <div class=""question-area"">
                        <p style=""font-size: 20px; font-weight: bold; margin: 0;"">Is there a person in this image?</p>
                    </div>
                </div>","null","main_experiment_trial","1","interview_scheme","schematic_sequence","chronological","","","","","","",""
"","","","","","html-keyboard-response","166","1301558","0.0-166.0","38E90ABCA93E4FB2935AE952F28BF806","019cfc3a-9add-78e8-b8f7-93a90176c4ff","019cfc28-2143-7934-89cc-ce6402563331","","null","
                <div class=""stimulus-container"">
                    <img src=""images/schematic_sequence/interview_scheme/interview_scheme_2.png"" class=""exp-image"">
                    <div class=""question-area""></div> 
                </div>","null","","","","","","","","","","","",""
"","","","","","html-button-response","167","1303018","0.0-167.0","38E90ABCA93E4FB2935AE952F28BF806","019cfc3a-9add-78e8-b8f7-93a90176c4ff","019cfc28-2143-7934-89cc-ce6402563331","","1458","
                <div class=""stimulus-container"">
                    <img src=""images/schematic_sequence/interview_scheme/interview_scheme_2.png"" class=""exp-image"">
                    <div class=""question-area"">
                        <p style=""font-size: 20px; font-weight: bold; margin: 0;"">Is there a person in this image?</p>
                    </div>
                </div>","0","main_experiment_trial","2","interview_scheme","schematic_sequence","chronological","","","","","","",""
"","","","","","html-keyboard-response","168","1308035","0.0-168.0","38E90ABCA93E4FB2935AE952F28BF806","019cfc3a-9add-78e8-b8f7-93a90176c4ff","019cfc28-2143-7934-89cc-ce6402563331","","null","
                <div class=""stimulus-container"">
                    <img src=""images/schematic_sequence/interview_scheme/interview_scheme_3.png"" class=""exp-image"">
                    <div class=""question-area""></div> 
                </div>","null","","","","","","","","","","","",""
"","","","","","html-button-response","169","1310498","0.0-169.0","38E90ABCA93E4FB2935AE952F28BF806","019cfc3a-9add-78e8-b8f7-93a90176c4ff","019cfc28-2143-7934-89cc-ce6402563331","","2462","
                <div class=""stimulus-container"">
                    <img src=""images/schematic_sequence/interview_scheme/interview_scheme_3.png"" class=""exp-image"">
                    <div class=""question-area"">
                        <p style=""font-size: 20px; font-weight: bold; margin: 0;"">Is there a person in this image?</p>
                    </div>
                </div>","1","main_experiment_trial","3","interview_scheme","schematic_sequence","chronological","","","","","","",""
"","","","","","html-keyboard-response","170","1315510","0.0-170.0","38E90ABCA93E4FB2935AE952F28BF806","019cfc3a-9add-78e8-b8f7-93a90176c4ff","019cfc28-2143-7934-89cc-ce6402563331","","null","
                <div class=""stimulus-container"">
                    <img src=""images/schematic_sequence/interview_scheme/interview_scheme_4.png"" class=""exp-image"">
                    <div class=""question-area""></div> 
                </div>","null","","","","","","","","","","","",""
"","","","","","html-button-response","171","1316948","0.0-171.0","38E90ABCA93E4FB2935AE952F28BF806","019cfc3a-9add-78e8-b8f7-93a90176c4ff","019cfc28-2143-7934-89cc-ce6402563331","","1437","
                <div class=""stimulus-container"">
                    <img src=""images/schematic_sequence/interview_scheme/interview_scheme_4.png"" class=""exp-image"">
                    <div class=""question-area"">
                        <p style=""font-size: 20px; font-weight: bold; margin: 0;"">Is there a person in this image?</p>
                    </div>
                </div>","0","main_experiment_trial","4","interview_scheme","schematic_sequence","chronological","","","","","","",""
"","","","","","html-keyboard-response","172","1321952","0.0-172.0","38E90ABCA93E4FB2935AE952F28BF806","019cfc3a-9add-78e8-b8f7-93a90176c4ff","019cfc28-2143-7934-89cc-ce6402563331","","null","
                <div class=""stimulus-container"">
                    <img src=""images/schematic_sequence/interview_scheme/interview_scheme_5.png"" class=""exp-image"">
                    <div class=""question-area""></div> 
                </div>","null","","","","","","","","","","","",""
"","","","","","html-button-response","173","1322778","0.0-173.0","38E90ABCA93E4FB2935AE952F28BF806","019cfc3a-9add-78e8-b8f7-93a90176c4ff","019cfc28-2143-7934-89cc-ce6402563331","","825","
                <div class=""stimulus-container"">
                    <img src=""images/schematic_sequence/interview_scheme/interview_scheme_5.png"" class=""exp-image"">
                    <div class=""question-area"">
                        <p style=""font-size: 20px; font-weight: bold; margin: 0;"">Is there a person in this image?</p>
                    </div>
                </div>","0","main_experiment_trial","5","interview_scheme","schematic_sequence","chronological","","","","","","",""
"","","","","","html-keyboard-response","174","1327785","0.0-174.0","38E90ABCA93E4FB2935AE952F28BF806","019cfc3a-9add-78e8-b8f7-93a90176c4ff","019cfc28-2143-7934-89cc-ce6402563331","","null","
                <div class=""stimulus-container"">
                    <img src=""images/schematic_sequence/interview_scheme/interview_scheme_6.png"" class=""exp-image"">
                    <div class=""question-area""></div> 
                </div>","null","","","","","","","","","","","",""
"","","","","","html-button-response","175","1328687","0.0-175.0","38E90ABCA93E4FB2935AE952F28BF806","019cfc3a-9add-78e8-b8f7-93a90176c4ff","019cfc28-2143-7934-89cc-ce6402563331","","901","
                <div class=""stimulus-container"">
                    <img src=""images/schematic_sequence/interview_scheme/interview_scheme_6.png"" class=""exp-image"">
                    <div class=""question-area"">
                        <p style=""font-size: 20px; font-weight: bold; margin: 0;"">Is there a person in this image?</p>
