"success","timeout","failed_images","failed_audio","failed_video","trial_type","trial_index","time_elapsed","internal_node_id","subject_id","study_id","session_id","view_history","rt","stimulus","response","task","folder","sequence_type","valuable_image_index","reward_type","distance_from_x","target_X","chosen_image_index","is_x_plus_dist","correct_choice"
"true","false","[]","[]","[]","preload","0","8394","0.0-0.0","8FAB518F169A4E449482B541F514C6FD","019dad0e-ab4a-7a00-af4f-66d6f32391ff","019dacfd-3d5e-7f0e-9535-61b14ca20378","","","","","","","","","","","","","",""
"","","","","","instructions","1","57560","0.0-1.0","8FAB518F169A4E449482B541F514C6FD","019dad0e-ab4a-7a00-af4f-66d6f32391ff","019dacfd-3d5e-7f0e-9535-61b14ca20378","[{""page_index"":0,""viewing_time"":49165}]","49165","","","","","","","","","","","",""
"","","","","","instructions","2","63376","0.0-2.0","8FAB518F169A4E449482B541F514C6FD","019dad0e-ab4a-7a00-af4f-66d6f32391ff","019dacfd-3d5e-7f0e-9535-61b14ca20378","[{""page_index"":0,""viewing_time"":5815}]","5815","","","","","","","","","","","",""
"true","","","","","fullscreen","3","199394","0.0-3.0","8FAB518F169A4E449482B541F514C6FD","019dad0e-ab4a-7a00-af4f-66d6f32391ff","019dacfd-3d5e-7f0e-9535-61b14ca20378","","135013","","","","","","","","","","","",""
"","","","","","instructions","4","205208","0.0-4.0","8FAB518F169A4E449482B541F514C6FD","019dad0e-ab4a-7a00-af4f-66d6f32391ff","019dacfd-3d5e-7f0e-9535-61b14ca20378","[{""page_index"":0,""viewing_time"":5813}]","5814","","","","","","","","","","","",""
"","","","","","instructions","5","217241","0.0-5.0","8FAB518F169A4E449482B541F514C6FD","019dad0e-ab4a-7a00-af4f-66d6f32391ff","019dacfd-3d5e-7f0e-9535-61b14ca20378","[{""page_index"":0,""viewing_time"":12032}]","12032","","","","","","","","","","","",""
"","","","","","html-button-response","6","224375","0.0-6.0","8FAB518F169A4E449482B541F514C6FD","019dad0e-ab4a-7a00-af4f-66d6f32391ff","019dacfd-3d5e-7f0e-9535-61b14ca20378","","7132","
            <div class=""stimulus-container"">
                <img src=""images/semantic_sequence/kitchen_operations_semantic/kitchen_operations_semantic_5.png"" class=""exp-image"">
                <div class=""question-area"">
                    <p style=""font-size: 20px; font-weight: bold;"">Click the button to reveal the image value</p>
                </div>
            </div>","0","part2_active_reveal_click","kitchen_operations_semantic","","","","","","","",""
"","","","","","html-keyboard-response","7","232378","0.0-7.0","8FAB518F169A4E449482B541F514C6FD","019dad0e-ab4a-7a00-af4f-66d6f32391ff","019dacfd-3d5e-7f0e-9535-61b14ca20378","","null","
            <div class=""stimulus-container"" style=""display: flex; align-items: center; justify-content: center; gap: 40px;"">
                <img src=""images/semantic_sequence/kitchen_operations_semantic/kitchen_operations_semantic_5.png"" class=""exp-image"">
                <div style=""text-align: center;"">
                    <img src=""images/gray.png"" style=""width: 150px; height: 150px; border: 5px solid grey; border-radius: 15px;"">
                    <p style=""color: grey; font-weight: bold; font-size: 28px; margin-top: 15px;"">NEUTRAL VALUE</p>
                </div>
            </div>","null","part2_value_learning","kitchen_operations_semantic","semantic_sequence","5","neutral","","","","",""
"","","","","","html-keyboard-response","8","237381","0.0-8.0","8FAB518F169A4E449482B541F514C6FD","019dad0e-ab4a-7a00-af4f-66d6f32391ff","019dacfd-3d5e-7f0e-9535-61b14ca20378","","null","<div style=""background-color: white; width: 100vw; height: 100vh;""></div>","null","","","","","","","","","",""
"","","","","","html-button-response","9","242226","0.0-9.0","8FAB518F169A4E449482B541F514C6FD","019dad0e-ab4a-7a00-af4f-66d6f32391ff","019dacfd-3d5e-7f0e-9535-61b14ca20378","","4844","
            <div class=""stimulus-container"">
                <img src=""images/semantic_sequence/housework_semantic/housework_semantic_6.png"" class=""exp-image"">
                <div class=""question-area"">
                    <p style=""font-size: 20px; font-weight: bold;"">Click the button to reveal the image value</p>
                </div>
            </div>","0","part2_active_reveal_click","housework_semantic","","","","","","","",""
"","","","","","html-keyboard-response","10","250228","0.0-10.0","8FAB518F169A4E449482B541F514C6FD","019dad0e-ab4a-7a00-af4f-66d6f32391ff","019dacfd-3d5e-7f0e-9535-61b14ca20378","","null","
            <div class=""stimulus-container"" style=""display: flex; align-items: center; justify-content: center; gap: 40px;"">
                <img src=""images/semantic_sequence/housework_semantic/housework_semantic_6.png"" class=""exp-image"">
                <div style=""text-align: center;"">
                    <img src=""images/gray.png"" style=""width: 150px; height: 150px; border: 5px solid grey; border-radius: 15px;"">
                    <p style=""color: grey; font-weight: bold; font-size: 28px; margin-top: 15px;"">NEUTRAL VALUE</p>
                </div>
            </div>","null","part2_value_learning","housework_semantic","semantic_sequence","6","neutral","","","","",""
"","","","","","html-keyboard-response","11","255230","0.0-11.0","8FAB518F169A4E449482B541F514C6FD","019dad0e-ab4a-7a00-af4f-66d6f32391ff","019dacfd-3d5e-7f0e-9535-61b14ca20378","","null","<div style=""background-color: white; width: 100vw; height: 100vh;""></div>","null","","","","","","","","","",""
"","","","","","html-button-response","12","258324","0.0-12.0","8FAB518F169A4E449482B541F514C6FD","019dad0e-ab4a-7a00-af4f-66d6f32391ff","019dacfd-3d5e-7f0e-9535-61b14ca20378","","3093","
            <div class=""stimulus-container"">
                <img src=""images/causal_sequence/museum_causal/museum_causal_6.png"" class=""exp-image"">
                <div class=""question-area"">
                    <p style=""font-size: 20px; font-weight: bold;"">Click the button to reveal the image value</p>
                </div>
            </div>","0","part2_active_reveal_click","museum_causal","","","","","","","",""
"","","","","","html-keyboard-response","13","266327","0.0-13.0","8FAB518F169A4E449482B541F514C6FD","019dad0e-ab4a-7a00-af4f-66d6f32391ff","019dacfd-3d5e-7f0e-9535-61b14ca20378","","null","
            <div class=""stimulus-container"" style=""display: flex; align-items: center; justify-content: center; gap: 40px;"">
                <img src=""images/causal_sequence/museum_causal/museum_causal_6.png"" class=""exp-image"">
                <div style=""text-align: center;"">
                    <img src=""images/dollar.png"" style=""width: 150px; height: 150px; border: 5px solid green; border-radius: 15px;"">
                    <p style=""color: green; font-weight: bold; font-size: 28px; margin-top: 15px;"">WORTH MONEY</p>
                </div>
            </div>","null","part2_value_learning","museum_causal","causal_sequence","6","valuable","","","","",""
"","","","","","html-keyboard-response","14","271330","0.0-14.0","8FAB518F169A4E449482B541F514C6FD","019dad0e-ab4a-7a00-af4f-66d6f32391ff","019dacfd-3d5e-7f0e-9535-61b14ca20378","","null","<div style=""background-color: white; width: 100vw; height: 100vh;""></div>","null","","","","","","","","","",""
"","","","","","html-button-response","15","273508","0.0-15.0","8FAB518F169A4E449482B541F514C6FD","019dad0e-ab4a-7a00-af4f-66d6f32391ff","019dacfd-3d5e-7f0e-9535-61b14ca20378","","2177","
            <div class=""stimulus-container"">
                <img src=""images/semantic_sequence/maintaining_a_car_semantic/maintaining_a_car_semantic_6.png"" class=""exp-image"">
                <div class=""question-area"">
                    <p style=""font-size: 20px; font-weight: bold;"">Click the button to reveal the image value</p>
                </div>
            </div>","0","part2_active_reveal_click","maintaining_a_car_semantic","","","","","","","",""
"","","","","","html-keyboard-response","16","281511","0.0-16.0","8FAB518F169A4E449482B541F514C6FD","019dad0e-ab4a-7a00-af4f-66d6f32391ff","019dacfd-3d5e-7f0e-9535-61b14ca20378","","null","
            <div class=""stimulus-container"" style=""display: flex; align-items: center; justify-content: center; gap: 40px;"">
                <img src=""images/semantic_sequence/maintaining_a_car_semantic/maintaining_a_car_semantic_6.png"" class=""exp-image"">
                <div style=""text-align: center;"">
                    <img src=""images/gray.png"" style=""width: 150px; height: 150px; border: 5px solid grey; border-radius: 15px;"">
                    <p style=""color: grey; font-weight: bold; font-size: 28px; margin-top: 15px;"">NEUTRAL VALUE</p>
                </div>
            </div>","null","part2_value_learning","maintaining_a_car_semantic","semantic_sequence","6","neutral","","","","",""
"","","","","","html-keyboard-response","17","286513","0.0-17.0","8FAB518F169A4E449482B541F514C6FD","019dad0e-ab4a-7a00-af4f-66d6f32391ff","019dacfd-3d5e-7f0e-9535-61b14ca20378","","null","<div style=""background-color: white; width: 100vw; height: 100vh;""></div>","null","","","","","","","","","",""
"","","","","","html-button-response","18","292741","0.0-18.0","8FAB518F169A4E449482B541F514C6FD","019dad0e-ab4a-7a00-af4f-66d6f32391ff","019dacfd-3d5e-7f0e-9535-61b14ca20378","","6226","
            <div class=""stimulus-container"">
                <img src=""images/causal_sequence/the_performance_causal/the_performance_causal_6.png"" class=""exp-image"">
                <div class=""question-area"">
                    <p style=""font-size: 20px; font-weight: bold;"">Click the button to reveal the image value</p>
                </div>
            </div>","0","part2_active_reveal_click","the_performance_causal","","","","","","","",""
"","","","","","html-keyboard-response","19","300744","0.0-19.0","8FAB518F169A4E449482B541F514C6FD","019dad0e-ab4a-7a00-af4f-66d6f32391ff","019dacfd-3d5e-7f0e-9535-61b14ca20378","","null","
            <div class=""stimulus-container"" style=""display: flex; align-items: center; justify-content: center; gap: 40px;"">
                <img src=""images/causal_sequence/the_performance_causal/the_performance_causal_6.png"" class=""exp-image"">
                <div style=""text-align: center;"">
                    <img src=""images/dollar.png"" style=""width: 150px; height: 150px; border: 5px solid green; border-radius: 15px;"">
                    <p style=""color: green; font-weight: bold; font-size: 28px; margin-top: 15px;"">WORTH MONEY</p>
                </div>
            </div>","null","part2_value_learning","the_performance_causal","causal_sequence","6","valuable","","","","",""
"","","","","","html-keyboard-response","20","305746","0.0-20.0","8FAB518F169A4E449482B541F514C6FD","019dad0e-ab4a-7a00-af4f-66d6f32391ff","019dacfd-3d5e-7f0e-9535-61b14ca20378","","null","<div style=""background-color: white; width: 100vw; height: 100vh;""></div>","null","","","","","","","","","",""
"","","","","","html-button-response","21","307858","0.0-21.0","8FAB518F169A4E449482B541F514C6FD","019dad0e-ab4a-7a00-af4f-66d6f32391ff","019dacfd-3d5e-7f0e-9535-61b14ca20378","","2111","
            <div class=""stimulus-container"">
                <img src=""images/causal_sequence/saving_a_cat_causal/saving_a_cat_causal_4.png"" class=""exp-image"">
                <div class=""question-area"">
                    <p style=""font-size: 20px; font-weight: bold;"">Click the button to reveal the image value</p>
                </div>
            </div>","0","part2_active_reveal_click","saving_a_cat_causal","","","","","","","",""
"","","","","","html-keyboard-response","22","315859","0.0-22.0","8FAB518F169A4E449482B541F514C6FD","019dad0e-ab4a-7a00-af4f-66d6f32391ff","019dacfd-3d5e-7f0e-9535-61b14ca20378","","null","
            <div class=""stimulus-container"" style=""display: flex; align-items: center; justify-content: center; gap: 40px;"">
                <img src=""images/causal_sequence/saving_a_cat_causal/saving_a_cat_causal_4.png"" class=""exp-image"">
                <div style=""text-align: center;"">
                    <img src=""images/gray.png"" style=""width: 150px; height: 150px; border: 5px solid grey; border-radius: 15px;"">
                    <p style=""color: grey; font-weight: bold; font-size: 28px; margin-top: 15px;"">NEUTRAL VALUE</p>
                </div>
            </div>","null","part2_value_learning","saving_a_cat_causal","causal_sequence","4","neutral","","","","",""
"","","","","","html-keyboard-response","23","320862","0.0-23.0","8FAB518F169A4E449482B541F514C6FD","019dad0e-ab4a-7a00-af4f-66d6f32391ff","019dacfd-3d5e-7f0e-9535-61b14ca20378","","null","<div style=""background-color: white; width: 100vw; height: 100vh;""></div>","null","","","","","","","","","",""
"","","","","","html-button-response","24","326223","0.0-24.0","8FAB518F169A4E449482B541F514C6FD","019dad0e-ab4a-7a00-af4f-66d6f32391ff","019dacfd-3d5e-7f0e-9535-61b14ca20378","","5361","
            <div class=""stimulus-container"">
                <img src=""images/semantic_sequence/physical_activity_semantic/physical_activity_semantic_5.png"" class=""exp-image"">
                <div class=""question-area"">
                    <p style=""font-size: 20px; font-weight: bold;"">Click the button to reveal the image value</p>
                </div>
            </div>","0","part2_active_reveal_click","physical_activity_semantic","","","","","","","",""
"","","","","","html-keyboard-response","25","334225","0.0-25.0","8FAB518F169A4E449482B541F514C6FD","019dad0e-ab4a-7a00-af4f-66d6f32391ff","019dacfd-3d5e-7f0e-9535-61b14ca20378","","null","
            <div class=""stimulus-container"" style=""display: flex; align-items: center; justify-content: center; gap: 40px;"">
                <img src=""images/semantic_sequence/physical_activity_semantic/physical_activity_semantic_5.png"" class=""exp-image"">
                <div style=""text-align: center;"">
                    <img src=""images/dollar.png"" style=""width: 150px; height: 150px; border: 5px solid green; border-radius: 15px;"">
                    <p style=""color: green; font-weight: bold; font-size: 28px; margin-top: 15px;"">WORTH MONEY</p>
                </div>
            </div>","null","part2_value_learning","physical_activity_semantic","semantic_sequence","5","valuable","","","","",""
"","","","","","html-keyboard-response","26","339228","0.0-26.0","8FAB518F169A4E449482B541F514C6FD","019dad0e-ab4a-7a00-af4f-66d6f32391ff","019dacfd-3d5e-7f0e-9535-61b14ca20378","","null","<div style=""background-color: white; width: 100vw; height: 100vh;""></div>","null","","","","","","","","","",""
"","","","","","html-button-response","27","341757","0.0-27.0","8FAB518F169A4E449482B541F514C6FD","019dad0e-ab4a-7a00-af4f-66d6f32391ff","019dacfd-3d5e-7f0e-9535-61b14ca20378","","2529","
            <div class=""stimulus-container"">
                <img src=""images/causal_sequence/coin_causal/coin_causal_5.png"" class=""exp-image"">
                <div class=""question-area"">
                    <p style=""font-size: 20px; font-weight: bold;"">Click the button to reveal the image value</p>
                </div>
            </div>","0","part2_active_reveal_click","coin_causal","","","","","","","",""
"","","","","","html-keyboard-response","28","349760","0.0-28.0","8FAB518F169A4E449482B541F514C6FD","019dad0e-ab4a-7a00-af4f-66d6f32391ff","019dacfd-3d5e-7f0e-9535-61b14ca20378","","null","
            <div class=""stimulus-container"" style=""display: flex; align-items: center; justify-content: center; gap: 40px;"">
                <img src=""images/causal_sequence/coin_causal/coin_causal_5.png"" class=""exp-image"">
                <div style=""text-align: center;"">
                    <img src=""images/dollar.png"" style=""width: 150px; height: 150px; border: 5px solid green; border-radius: 15px;"">
                    <p style=""color: green; font-weight: bold; font-size: 28px; margin-top: 15px;"">WORTH MONEY</p>
                </div>
            </div>","null","part2_value_learning","coin_causal","causal_sequence","5","valuable","","","","",""
"","","","","","html-keyboard-response","29","354762","0.0-29.0","8FAB518F169A4E449482B541F514C6FD","019dad0e-ab4a-7a00-af4f-66d6f32391ff","019dacfd-3d5e-7f0e-9535-61b14ca20378","","null","<div style=""background-color: white; width: 100vw; height: 100vh;""></div>","null","","","","","","","","","",""
"","","","","","html-button-response","30","356207","0.0-30.0","8FAB518F169A4E449482B541F514C6FD","019dad0e-ab4a-7a00-af4f-66d6f32391ff","019dacfd-3d5e-7f0e-9535-61b14ca20378","","1445","
            <div class=""stimulus-container"">
                <img src=""images/causal_sequence/dog_causal/dog_causal_6.png"" class=""exp-image"">
                <div class=""question-area"">
                    <p style=""font-size: 20px; font-weight: bold;"">Click the button to reveal the image value</p>
                </div>
            </div>","0","part2_active_reveal_click","dog_causal","","","","","","","",""
"","","","","","html-keyboard-response","31","364211","0.0-31.0","8FAB518F169A4E449482B541F514C6FD","019dad0e-ab4a-7a00-af4f-66d6f32391ff","019dacfd-3d5e-7f0e-9535-61b14ca20378","","null","
            <div class=""stimulus-container"" style=""display: flex; align-items: center; justify-content: center; gap: 40px;"">
                <img src=""images/causal_sequence/dog_causal/dog_causal_6.png"" class=""exp-image"">
                <div style=""text-align: center;"">
                    <img src=""images/gray.png"" style=""width: 150px; height: 150px; border: 5px solid grey; border-radius: 15px;"">
                    <p style=""color: grey; font-weight: bold; font-size: 28px; margin-top: 15px;"">NEUTRAL VALUE</p>
                </div>
            </div>","null","part2_value_learning","dog_causal","causal_sequence","6","neutral","","","","",""
"","","","","","html-keyboard-response","32","369212","0.0-32.0","8FAB518F169A4E449482B541F514C6FD","019dad0e-ab4a-7a00-af4f-66d6f32391ff","019dacfd-3d5e-7f0e-9535-61b14ca20378","","null","<div style=""background-color: white; width: 100vw; height: 100vh;""></div>","null","","","","","","","","","",""
"","","","","","html-button-response","33","372057","0.0-33.0","8FAB518F169A4E449482B541F514C6FD","019dad0e-ab4a-7a00-af4f-66d6f32391ff","019dacfd-3d5e-7f0e-9535-61b14ca20378","","2843","
            <div class=""stimulus-container"">
                <img src=""images/semantic_sequence/self_care_activities_semantic/self_care_activities_semantic_6.png"" class=""exp-image"">
                <div class=""question-area"">
                    <p style=""font-size: 20px; font-weight: bold;"">Click the button to reveal the image value</p>
                </div>
            </div>","0","part2_active_reveal_click","self_care_activities_semantic","","","","","","","",""
"","","","","","html-keyboard-response","34","380059","0.0-34.0","8FAB518F169A4E449482B541F514C6FD","019dad0e-ab4a-7a00-af4f-66d6f32391ff","019dacfd-3d5e-7f0e-9535-61b14ca20378","","null","
            <div class=""stimulus-container"" style=""display: flex; align-items: center; justify-content: center; gap: 40px;"">
                <img src=""images/semantic_sequence/self_care_activities_semantic/self_care_activities_semantic_6.png"" class=""exp-image"">
                <div style=""text-align: center;"">
                    <img src=""images/dollar.png"" style=""width: 150px; height: 150px; border: 5px solid green; border-radius: 15px;"">
                    <p style=""color: green; font-weight: bold; font-size: 28px; margin-top: 15px;"">WORTH MONEY</p>
                </div>
            </div>","null","part2_value_learning","self_care_activities_semantic","semantic_sequence","6","valuable","","","","",""
"","","","","","html-keyboard-response","35","385061","0.0-35.0","8FAB518F169A4E449482B541F514C6FD","019dad0e-ab4a-7a00-af4f-66d6f32391ff","019dacfd-3d5e-7f0e-9535-61b14ca20378","","null","<div style=""background-color: white; width: 100vw; height: 100vh;""></div>","null","","","","","","","","","",""
"","","","","","html-button-response","36","386857","0.0-36.0","8FAB518F169A4E449482B541F514C6FD","019dad0e-ab4a-7a00-af4f-66d6f32391ff","019dacfd-3d5e-7f0e-9535-61b14ca20378","","1795","
            <div class=""stimulus-container"">
                <img src=""images/causal_sequence/package_causal/package_causal_6.png"" class=""exp-image"">
                <div class=""question-area"">
                    <p style=""font-size: 20px; font-weight: bold;"">Click the button to reveal the image value</p>
                </div>
            </div>","0","part2_active_reveal_click","package_causal","","","","","","","",""
"","","","","","html-keyboard-response","37","394860","0.0-37.0","8FAB518F169A4E449482B541F514C6FD","019dad0e-ab4a-7a00-af4f-66d6f32391ff","019dacfd-3d5e-7f0e-9535-61b14ca20378","","null","
            <div class=""stimulus-container"" style=""display: flex; align-items: center; justify-content: center; gap: 40px;"">
                <img src=""images/causal_sequence/package_causal/package_causal_6.png"" class=""exp-image"">
                <div style=""text-align: center;"">
                    <img src=""images/gray.png"" style=""width: 150px; height: 150px; border: 5px solid grey; border-radius: 15px;"">
                    <p style=""color: grey; font-weight: bold; font-size: 28px; margin-top: 15px;"">NEUTRAL VALUE</p>
                </div>
            </div>","null","part2_value_learning","package_causal","causal_sequence","6","neutral","","","","",""
"","","","","","html-keyboard-response","38","399862","0.0-38.0","8FAB518F169A4E449482B541F514C6FD","019dad0e-ab4a-7a00-af4f-66d6f32391ff","019dacfd-3d5e-7f0e-9535-61b14ca20378","","null","<div style=""background-color: white; width: 100vw; height: 100vh;""></div>","null","","","","","","","","","",""
"","","","","","html-button-response","39","403823","0.0-39.0","8FAB518F169A4E449482B541F514C6FD","019dad0e-ab4a-7a00-af4f-66d6f32391ff","019dacfd-3d5e-7f0e-9535-61b14ca20378","","3960","
            <div class=""stimulus-container"">
                <img src=""images/semantic_sequence/visiting_cities_semantic/visiting_cities_semantic_4.png"" class=""exp-image"">
                <div class=""question-area"">
                    <p style=""font-size: 20px; font-weight: bold;"">Click the button to reveal the image value</p>
                </div>
            </div>","0","part2_active_reveal_click","visiting_cities_semantic","","","","","","","",""
"","","","","","html-keyboard-response","40","411825","0.0-40.0","8FAB518F169A4E449482B541F514C6FD","019dad0e-ab4a-7a00-af4f-66d6f32391ff","019dacfd-3d5e-7f0e-9535-61b14ca20378","","null","
            <div class=""stimulus-container"" style=""display: flex; align-items: center; justify-content: center; gap: 40px;"">
                <img src=""images/semantic_sequence/visiting_cities_semantic/visiting_cities_semantic_4.png"" class=""exp-image"">
                <div style=""text-align: center;"">
                    <img src=""images/dollar.png"" style=""width: 150px; height: 150px; border: 5px solid green; border-radius: 15px;"">
                    <p style=""color: green; font-weight: bold; font-size: 28px; margin-top: 15px;"">WORTH MONEY</p>
                </div>
            </div>","null","part2_value_learning","visiting_cities_semantic","semantic_sequence","4","valuable","","","","",""
"","","","","","html-keyboard-response","41","416828","0.0-41.0","8FAB518F169A4E449482B541F514C6FD","019dad0e-ab4a-7a00-af4f-66d6f32391ff","019dacfd-3d5e-7f0e-9535-61b14ca20378","","null","<div style=""background-color: white; width: 100vw; height: 100vh;""></div>","null","","","","","","","","","",""
"","","","","","instructions","42","423690","0.0-42.0","8FAB518F169A4E449482B541F514C6FD","019dad0e-ab4a-7a00-af4f-66d6f32391ff","019dacfd-3d5e-7f0e-9535-61b14ca20378","[{""page_index"":0,""viewing_time"":6862}]","6862","","","","","","","","","","","",""
"","","","","","html-keyboard-response","43","426693","0.0-43.0-0.0","8FAB518F169A4E449482B541F514C6FD","019dad0e-ab4a-7a00-af4f-66d6f32391ff","019dacfd-3d5e-7f0e-9535-61b14ca20378","","null","
                            <div style=""font-family: Arial; margin-bottom: 20px;""><h3>Which image is worth <b>more money</b>?</h3></div>
                            <div class=""stimulus-container"" style=""display: flex; width: 800px; justify-content: center; gap: 30px;"">
                                <img src=""images/causal_sequence/coin_causal/coin_causal_6.png"" class=""small-image"">
                                <img src=""images/causal_sequence/coin_causal/coin_causal_4.png"" class=""small-image"">
                            </div>","null","","","","","","","","","",""
"","","","","","html-button-response","44","430523","0.0-43.0-1.0","8FAB518F169A4E449482B541F514C6FD","019dad0e-ab4a-7a00-af4f-66d6f32391ff","019dacfd-3d5e-7f0e-9535-61b14ca20378","","3829","
                            <div style=""font-family: Arial; margin-bottom: 20px;""><h3>Which image is worth <b>more money</b>?</h3></div>
                            <div class=""stimulus-container"" style=""display: flex; width: 800px; justify-content: center; gap: 30px;"">
                                <img src=""images/causal_sequence/coin_causal/coin_causal_6.png"" class=""small-image"">
                                <img src=""images/causal_sequence/coin_causal/coin_causal_4.png"" class=""small-image"">
                            </div>","1","part3_choice_neighbors","coin_causal","causal_sequence","","","1","5","4","0",""
"","","","","","html-keyboard-response","45","433526","0.0-44.0-0.0","8FAB518F169A4E449482B541F514C6FD","019dad0e-ab4a-7a00-af4f-66d6f32391ff","019dacfd-3d5e-7f0e-9535-61b14ca20378","","null","
                            <div style=""font-family: Arial; margin-bottom: 20px;""><h3>Which image is worth <b>more money</b>?</h3></div>
                            <div class=""stimulus-container"" style=""display: flex; width: 800px; justify-content: center; gap: 30px;"">
                                <img src=""images/causal_sequence/the_performance_causal/the_performance_causal_3.png"" class=""small-image"">
                                <img src=""images/causal_sequence/the_performance_causal/the_performance_causal_9.png"" class=""small-image"">
                            </div>","null","","","","","","","","","",""
"","","","","","html-button-response","46","439607","0.0-44.0-1.0","8FAB518F169A4E449482B541F514C6FD","019dad0e-ab4a-7a00-af4f-66d6f32391ff","019dacfd-3d5e-7f0e-9535-61b14ca20378","","6079","
                            <div style=""font-family: Arial; margin-bottom: 20px;""><h3>Which image is worth <b>more money</b>?</h3></div>
                            <div class=""stimulus-container"" style=""display: flex; width: 800px; justify-content: center; gap: 30px;"">
                                <img src=""images/causal_sequence/the_performance_causal/the_performance_causal_3.png"" class=""small-image"">
                                <img src=""images/causal_sequence/the_performance_causal/the_performance_causal_9.png"" class=""small-image"">
                            </div>","0","part3_choice_neighbors","the_performance_causal","causal_sequence","","","3","6","3","0",""
"","","","","","html-keyboard-response","47","442609","0.0-45.0-0.0","8FAB518F169A4E449482B541F514C6FD","019dad0e-ab4a-7a00-af4f-66d6f32391ff","019dacfd-3d5e-7f0e-9535-61b14ca20378","","null","
                            <div style=""font-family: Arial; margin-bottom: 20px;""><h3>Which image is worth <b>more money</b>?</h3></div>
                            <div class=""stimulus-container"" style=""display: flex; width: 800px; justify-content: center; gap: 30px;"">
                                <img src=""images/semantic_sequence/self_care_activities_semantic/self_care_activities_semantic_7.png"" class=""small-image"">
                                <img src=""images/semantic_sequence/self_care_activities_semantic/self_care_activities_semantic_5.png"" class=""small-image"">
                            </div>","null","","","","","","","","","",""
"","","","","","html-button-response","48","451323","0.0-45.0-1.0","8FAB518F169A4E449482B541F514C6FD","019dad0e-ab4a-7a00-af4f-66d6f32391ff","019dacfd-3d5e-7f0e-9535-61b14ca20378","","8713","
                            <div style=""font-family: Arial; margin-bottom: 20px;""><h3>Which image is worth <b>more money</b>?</h3></div>
                            <div class=""stimulus-container"" style=""display: flex; width: 800px; justify-content: center; gap: 30px;"">
                                <img src=""images/semantic_sequence/self_care_activities_semantic/self_care_activities_semantic_7.png"" class=""small-image"">
                                <img src=""images/semantic_sequence/self_care_activities_semantic/self_care_activities_semantic_5.png"" class=""small-image"">
                            </div>","1","part3_choice_neighbors","self_care_activities_semantic","semantic_sequence","","","1","6","5","0",""
"","","","","","html-keyboard-response","49","454326","0.0-46.0-0.0","8FAB518F169A4E449482B541F514C6FD","019dad0e-ab4a-7a00-af4f-66d6f32391ff","019dacfd-3d5e-7f0e-9535-61b14ca20378","","null","
                            <div style=""font-family: Arial; margin-bottom: 20px;""><h3>Which image is worth <b>more money</b>?</h3></div>
                            <div class=""stimulus-container"" style=""display: flex; width: 800px; justify-content: center; gap: 30px;"">
                                <img src=""images/semantic_sequence/housework_semantic/housework_semantic_7.png"" class=""small-image"">
                                <img src=""images/semantic_sequence/housework_semantic/housework_semantic_5.png"" class=""small-image"">
                            </div>","null","","","","","","","","","",""
"","","","","","html-button-response","50","458473","0.0-46.0-1.0","8FAB518F169A4E449482B541F514C6FD","019dad0e-ab4a-7a00-af4f-66d6f32391ff","019dacfd-3d5e-7f0e-9535-61b14ca20378","","4145","
                            <div style=""font-family: Arial; margin-bottom: 20px;""><h3>Which image is worth <b>more money</b>?</h3></div>
                            <div class=""stimulus-container"" style=""display: flex; width: 800px; justify-content: center; gap: 30px;"">
                                <img src=""images/semantic_sequence/housework_semantic/housework_semantic_7.png"" class=""small-image"">
                                <img src=""images/semantic_sequence/housework_semantic/housework_semantic_5.png"" class=""small-image"">
                            </div>","0","part3_choice_neighbors","housework_semantic","semantic_sequence","","","1","6","7","1",""
"","","","","","html-keyboard-response","51","461475","0.0-47.0-0.0","8FAB518F169A4E449482B541F514C6FD","019dad0e-ab4a-7a00-af4f-66d6f32391ff","019dacfd-3d5e-7f0e-9535-61b14ca20378","","null","
                            <div style=""font-family: Arial; margin-bottom: 20px;""><h3>Which image is worth <b>more money</b>?</h3></div>
                            <div class=""stimulus-container"" style=""display: flex; width: 800px; justify-content: center; gap: 30px;"">
                                <img src=""images/semantic_sequence/kitchen_operations_semantic/kitchen_operations_semantic_3.png"" class=""small-image"">
                                <img src=""images/semantic_sequence/kitchen_operations_semantic/kitchen_operations_semantic_7.png"" class=""small-image"">
                            </div>","null","","","","","","","","","",""
"","","","","","html-button-response","52","462273","0.0-47.0-1.0","8FAB518F169A4E449482B541F514C6FD","019dad0e-ab4a-7a00-af4f-66d6f32391ff","019dacfd-3d5e-7f0e-9535-61b14ca20378","","796","
                            <div style=""font-family: Arial; margin-bottom: 20px;""><h3>Which image is worth <b>more money</b>?</h3></div>
                            <div class=""stimulus-container"" style=""display: flex; width: 800px; justify-content: center; gap: 30px;"">
                                <img src=""images/semantic_sequence/kitchen_operations_semantic/kitchen_operations_semantic_3.png"" class=""small-image"">
                                <img src=""images/semantic_sequence/kitchen_operations_semantic/kitchen_operations_semantic_7.png"" class=""small-image"">
                            </div>","0","part3_choice_neighbors","kitchen_operations_semantic","semantic_sequence","","","2","5","3","0",""
"","","","","","html-keyboard-response","53","465274","0.0-48.0-0.0","8FAB518F169A4E449482B541F514C6FD","019dad0e-ab4a-7a00-af4f-66d6f32391ff","019dacfd-3d5e-7f0e-9535-61b14ca20378","","null","
                            <div style=""font-family: Arial; margin-bottom: 20px;""><h3>Which image is worth <b>more money</b>?</h3></div>
                            <div class=""stimulus-container"" style=""display: flex; width: 800px; justify-content: center; gap: 30px;"">
                                <img src=""images/causal_sequence/saving_a_cat_causal/saving_a_cat_causal_2.png"" class=""small-image"">
                                <img src=""images/causal_sequence/saving_a_cat_causal/saving_a_cat_causal_6.png"" class=""small-image"">
                            </div>","null","","","","","","","","","",""
"","","","","","html-button-response","54","466106","0.0-48.0-1.0","8FAB518F169A4E449482B541F514C6FD","019dad0e-ab4a-7a00-af4f-66d6f32391ff","019dacfd-3d5e-7f0e-9535-61b14ca20378","","830","
                            <div style=""font-family: Arial; margin-bottom: 20px;""><h3>Which image is worth <b>more money</b>?</h3></div>
                            <div class=""stimulus-container"" style=""display: flex; width: 800px; justify-content: center; gap: 30px;"">
                                <img src=""images/causal_sequence/saving_a_cat_causal/saving_a_cat_causal_2.png"" class=""small-image"">
                                <img src=""images/causal_sequence/saving_a_cat_causal/saving_a_cat_causal_6.png"" class=""small-image"">
                            </div>","1","part3_choice_neighbors","saving_a_cat_causal","causal_sequence","","","2","4","6","1",""
"","","","","","html-keyboard-response","55","469109","0.0-49.0-0.0","8FAB518F169A4E449482B541F514C6FD","019dad0e-ab4a-7a00-af4f-66d6f32391ff","019dacfd-3d5e-7f0e-9535-61b14ca20378","","null","
                            <div style=""font-family: Arial; margin-bottom: 20px;""><h3>Which image is worth <b>more money</b>?</h3></div>
                            <div class=""stimulus-container"" style=""display: flex; width: 800px; justify-content: center; gap: 30px;"">
                                <img src=""images/causal_sequence/museum_causal/museum_causal_3.png"" class=""small-image"">
                                <img src=""images/causal_sequence/museum_causal/museum_causal_9.png"" class=""small-image"">
                            </div>","null","","","","","","","","","",""
"","","","","","html-button-response","56","469889","0.0-49.0-1.0","8FAB518F169A4E449482B541F514C6FD","019dad0e-ab4a-7a00-af4f-66d6f32391ff","019dacfd-3d5e-7f0e-9535-61b14ca20378","","779","
                            <div style=""font-family: Arial; margin-bottom: 20px;""><h3>Which image is worth <b>more money</b>?</h3></div>
                            <div class=""stimulus-container"" style=""display: flex; width: 800px; justify-content: center; gap: 30px;"">
                                <img src=""images/causal_sequence/museum_causal/museum_causal_3.png"" class=""small-image"">
                                <img src=""images/causal_sequence/museum_causal/museum_causal_9.png"" class=""small-image"">
                            </div>","0","part3_choice_neighbors","museum_causal","causal_sequence","","","3","6","3","0",""
"","","","","","html-keyboard-response","57","472892","0.0-50.0-0.0","8FAB518F169A4E449482B541F514C6FD","019dad0e-ab4a-7a00-af4f-66d6f32391ff","019dacfd-3d5e-7f0e-9535-61b14ca20378","","null","
                            <div style=""font-family: Arial; margin-bottom: 20px;""><h3>Which image is worth <b>more money</b>?</h3></div>
                            <div class=""stimulus-container"" style=""display: flex; width: 800px; justify-content: center; gap: 30px;"">
                                <img src=""images/causal_sequence/dog_causal/dog_causal_7.png"" class=""small-image"">
                                <img src=""images/causal_sequence/dog_causal/dog_causal_5.png"" class=""small-image"">
                            </div>","null","","","","","","","","","",""
"","","","","","html-button-response","58","474123","0.0-50.0-1.0","8FAB518F169A4E449482B541F514C6FD","019dad0e-ab4a-7a00-af4f-66d6f32391ff","019dacfd-3d5e-7f0e-9535-61b14ca20378","","1230","
                            <div style=""font-family: Arial; margin-bottom: 20px;""><h3>Which image is worth <b>more money</b>?</h3></div>
                            <div class=""stimulus-container"" style=""display: flex; width: 800px; justify-content: center; gap: 30px;"">
                                <img src=""images/causal_sequence/dog_causal/dog_causal_7.png"" class=""small-image"">
                                <img src=""images/causal_sequence/dog_causal/dog_causal_5.png"" class=""small-image"">
                            </div>","0","part3_choice_neighbors","dog_causal","causal_sequence","","","1","6","7","1",""
"","","","","","html-keyboard-response","59","477126","0.0-51.0-0.0","8FAB518F169A4E449482B541F514C6FD","019dad0e-ab4a-7a00-af4f-66d6f32391ff","019dacfd-3d5e-7f0e-9535-61b14ca20378","","null","
                            <div style=""font-family: Arial; margin-bottom: 20px;""><h3>Which image is worth <b>more money</b>?</h3></div>
                            <div class=""stimulus-container"" style=""display: flex; width: 800px; justify-content: center; gap: 30px;"">
                                <img src=""images/causal_sequence/dog_causal/dog_causal_3.png"" class=""small-image"">
                                <img src=""images/causal_sequence/dog_causal/dog_causal_9.png"" class=""small-image"">
                            </div>","null","","","","","","","","","",""
"","","","","","html-button-response","60","479607","0.0-51.0-1.0","8FAB518F169A4E449482B541F514C6FD","019dad0e-ab4a-7a00-af4f-66d6f32391ff","019dacfd-3d5e-7f0e-9535-61b14ca20378","","2479","
                            <div style=""font-family: Arial; margin-bottom: 20px;""><h3>Which image is worth <b>more money</b>?</h3></div>
                            <div class=""stimulus-container"" style=""display: flex; width: 800px; justify-content: center; gap: 30px;"">
                                <img src=""images/causal_sequence/dog_causal/dog_causal_3.png"" class=""small-image"">
                                <img src=""images/causal_sequence/dog_causal/dog_causal_9.png"" class=""small-image"">
                            </div>","1","part3_choice_neighbors","dog_causal","causal_sequence","","","3","6","9","1",""
"","","","","","html-keyboard-response","61","482610","0.0-52.0-0.0","8FAB518F169A4E449482B541F514C6FD","019dad0e-ab4a-7a00-af4f-66d6f32391ff","019dacfd-3d5e-7f0e-9535-61b14ca20378","","null","<div style=""font-family: Arial; margin-bottom: 20px;""><h3>Which image is worth <b>more money?</h3></div>
                            <div class=""stimulus-container"" style=""display: flex; width: 800px; justify-content: center; gap: 30px;"">
                                <img src=""images/causal_sequence/dog_causal/dog_causal_6.png"" class=""small-image"">
                                <img src=""images/causal_sequence/coin_causal/coin_causal_5.png"" class=""small-image"">
                            </div>","null","","","","","","","","","",""
"","","","","","html-button-response","62","483323","0.0-52.0-1.0","8FAB518F169A4E449482B541F514C6FD","019dad0e-ab4a-7a00-af4f-66d6f32391ff","019dacfd-3d5e-7f0e-9535-61b14ca20378","","711","<div style=""font-family: Arial; margin-bottom: 20px;""><h3>Which image is worth <b>more money</b>?</h3></div>
                            <div class=""stimulus-container"" style=""display: flex; width: 800px; justify-content: center; gap: 30px;"">
                                <img src=""images/causal_sequence/dog_causal/dog_causal_6.png"" class=""small-image"">
                                <img src=""images/causal_sequence/coin_causal/coin_causal_5.png"" class=""small-image"">
                            </div>","1","part3_valuable_vs_neutral_direct","","","","","","","","","true"
"","","","","","html-keyboard-response","63","486324","0.0-53.0-0.0","8FAB518F169A4E449482B541F514C6FD","019dad0e-ab4a-7a00-af4f-66d6f32391ff","019dacfd-3d5e-7f0e-9535-61b14ca20378","","null","
                            <div style=""font-family: Arial; margin-bottom: 20px;""><h3>Which image is worth <b>more money</b>?</h3></div>
                            <div class=""stimulus-container"" style=""display: flex; width: 800px; justify-content: center; gap: 30px;"">
                                <img src=""images/semantic_sequence/maintaining_a_car_semantic/maintaining_a_car_semantic_3.png"" class=""small-image"">
                                <img src=""images/semantic_sequence/maintaining_a_car_semantic/maintaining_a_car_semantic_9.png"" class=""small-image"">
                            </div>","null","","","","","","","","","",""
"","","","","","html-button-response","64","487090","0.0-53.0-1.0","8FAB518F169A4E449482B541F514C6FD","019dad0e-ab4a-7a00-af4f-66d6f32391ff","019dacfd-3d5e-7f0e-9535-61b14ca20378","","764","
                            <div style=""font-family: Arial; margin-bottom: 20px;""><h3>Which image is worth <b>more money</b>?</h3></div>
                            <div class=""stimulus-container"" style=""display: flex; width: 800px; justify-content: center; gap: 30px;"">
                                <img src=""images/semantic_sequence/maintaining_a_car_semantic/maintaining_a_car_semantic_3.png"" class=""small-image"">
                                <img src=""images/semantic_sequence/maintaining_a_car_semantic/maintaining_a_car_semantic_9.png"" class=""small-image"">
                            </div>","0","part3_choice_neighbors","maintaining_a_car_semantic","semantic_sequence","","","3","6","3","0",""
"","","","","","html-keyboard-response","65","490093","0.0-54.0-0.0","8FAB518F169A4E449482B541F514C6FD","019dad0e-ab4a-7a00-af4f-66d6f32391ff","019dacfd-3d5e-7f0e-9535-61b14ca20378","","null","
                            <div style=""font-family: Arial; margin-bottom: 20px;""><h3>Which image is worth <b>more money</b>?</h3></div>
                            <div class=""stimulus-container"" style=""display: flex; width: 800px; justify-content: center; gap: 30px;"">
                                <img src=""images/semantic_sequence/physical_activity_semantic/physical_activity_semantic_8.png"" class=""small-image"">
                                <img src=""images/semantic_sequence/physical_activity_semantic/physical_activity_semantic_2.png"" class=""small-image"">
                            </div>","null","","","","","","","","","",""
"","","","","","html-button-response","66","491823","0.0-54.0-1.0","8FAB518F169A4E449482B541F514C6FD","019dad0e-ab4a-7a00-af4f-66d6f32391ff","019dacfd-3d5e-7f0e-9535-61b14ca20378","","1729","
                            <div style=""font-family: Arial; margin-bottom: 20px;""><h3>Which image is worth <b>more money</b>?</h3></div>
                            <div class=""stimulus-container"" style=""display: flex; width: 800px; justify-content: center; gap: 30px;"">
                                <img src=""images/semantic_sequence/physical_activity_semantic/physical_activity_semantic_8.png"" class=""small-image"">
                                <img src=""images/semantic_sequence/physical_activity_semantic/physical_activity_semantic_2.png"" class=""small-image"">
                            </div>","0","part3_choice_neighbors","physical_activity_semantic","semantic_sequence","","","3","5","8","1",""
"","","","","","html-keyboard-response","67","494826","0.0-55.0-0.0","8FAB518F169A4E449482B541F514C6FD","019dad0e-ab4a-7a00-af4f-66d6f32391ff","019dacfd-3d5e-7f0e-9535-61b14ca20378","","null","
                            <div style=""font-family: Arial; margin-bottom: 20px;""><h3>Which image is worth <b>more money</b>?</h3></div>
                            <div class=""stimulus-container"" style=""display: flex; width: 800px; justify-content: center; gap: 30px;"">
                                <img src=""images/semantic_sequence/physical_activity_semantic/physical_activity_semantic_7.png"" class=""small-image"">
                                <img src=""images/semantic_sequence/physical_activity_semantic/physical_activity_semantic_3.png"" class=""small-image"">
                            </div>","null","","","","","","","","","",""
"","","","","","html-button-response","68","495623","0.0-55.0-1.0","8FAB518F169A4E449482B541F514C6FD","019dad0e-ab4a-7a00-af4f-66d6f32391ff","019dacfd-3d5e-7f0e-9535-61b14ca20378","","796","
                            <div style=""font-family: Arial; margin-bottom: 20px;""><h3>Which image is worth <b>more money</b>?</h3></div>
                            <div class=""stimulus-container"" style=""display: flex; width: 800px; justify-content: center; gap: 30px;"">
                                <img src=""images/semantic_sequence/physical_activity_semantic/physical_activity_semantic_7.png"" class=""small-image"">
                                <img src=""images/semantic_sequence/physical_activity_semantic/physical_activity_semantic_3.png"" class=""small-image"">
                            </div>","1","part3_choice_neighbors","physical_activity_semantic","semantic_sequence","","","2","5","3","0",""
"","","","","","html-keyboard-response","69","498625","0.0-56.0-0.0","8FAB518F169A4E449482B541F514C6FD","019dad0e-ab4a-7a00-af4f-66d6f32391ff","019dacfd-3d5e-7f0e-9535-61b14ca20378","","null","<div style=""font-family: Arial; margin-bottom: 20px;""><h3>Which image is worth <b>more money?</h3></div>
                            <div class=""stimulus-container"" style=""display: flex; width: 800px; justify-content: center; gap: 30px;"">
                                <img src=""images/causal_sequence/museum_causal/museum_causal_6.png"" class=""small-image"">
                                <img src=""images/causal_sequence/package_causal/package_causal_6.png"" class=""small-image"">
                            </div>","null","","","","","","","","","",""
"","","","","","html-button-response","70","499439","0.0-56.0-1.0","8FAB518F169A4E449482B541F514C6FD","019dad0e-ab4a-7a00-af4f-66d6f32391ff","019dacfd-3d5e-7f0e-9535-61b14ca20378","","813","<div style=""font-family: Arial; margin-bottom: 20px;""><h3>Which image is worth <b>more money</b>?</h3></div>
                            <div class=""stimulus-container"" style=""display: flex; width: 800px; justify-content: center; gap: 30px;"">
                                <img src=""images/causal_sequence/museum_causal/museum_causal_6.png"" class=""small-image"">
                                <img src=""images/causal_sequence/package_causal/package_causal_6.png"" class=""small-image"">
                            </div>","0","part3_valuable_vs_neutral_direct","","","","","","","","","true"
"","","","","","html-keyboard-response","71","502442","0.0-57.0-0.0","8FAB518F169A4E449482B541F514C6FD","019dad0e-ab4a-7a00-af4f-66d6f32391ff","019dacfd-3d5e-7f0e-9535-61b14ca20378","","null","<div style=""font-family: Arial; margin-bottom: 20px;""><h3>Which image is worth <b>more money?</h3></div>
                            <div class=""stimulus-container"" style=""display: flex; width: 800px; justify-content: center; gap: 30px;"">
                                <img src=""images/semantic_sequence/kitchen_operations_semantic/kitchen_operations_semantic_5.png"" class=""small-image"">
                                <img src=""images/semantic_sequence/physical_activity_semantic/physical_activity_semantic_5.png"" class=""small-image"">
                            </div>","null","","","","","","","","","",""
"","","","","","html-button-response","72","503356","0.0-57.0-1.0","8FAB518F169A4E449482B541F514C6FD","019dad0e-ab4a-7a00-af4f-66d6f32391ff","019dacfd-3d5e-7f0e-9535-61b14ca20378","","913","<div style=""font-family: Arial; margin-bottom: 20px;""><h3>Which image is worth <b>more money</b>?</h3></div>
                            <div class=""stimulus-container"" style=""display: flex; width: 800px; justify-content: center; gap: 30px;"">
                                <img src=""images/semantic_sequence/kitchen_operations_semantic/kitchen_operations_semantic_5.png"" class=""small-image"">
                                <img src=""images/semantic_sequence/physical_activity_semantic/physical_activity_semantic_5.png"" class=""small-image"">
                            </div>","1","part3_valuable_vs_neutral_direct","","","","","","","","","true"
"","","","","","html-keyboard-response","73","506359","0.0-58.0-0.0","8FAB518F169A4E449482B541F514C6FD","019dad0e-ab4a-7a00-af4f-66d6f32391ff","019dacfd-3d5e-7f0e-9535-61b14ca20378","","null","
                            <div style=""font-family: Arial; margin-bottom: 20px;""><h3>Which image is worth <b>more money</b>?</h3></div>
                            <div class=""stimulus-container"" style=""display: flex; width: 800px; justify-content: center; gap: 30px;"">
                                <img src=""images/causal_sequence/package_causal/package_causal_3.png"" class=""small-image"">
                                <img src=""images/causal_sequence/package_causal/package_causal_9.png"" class=""small-image"">
                            </div>","null","","","","","","","","","",""
"","","","","","html-button-response","74","506823","0.0-58.0-1.0","8FAB518F169A4E449482B541F514C6FD","019dad0e-ab4a-7a00-af4f-66d6f32391ff","019dacfd-3d5e-7f0e-9535-61b14ca20378","","463","
                            <div style=""font-family: Arial; margin-bottom: 20px;""><h3>Which image is worth <b>more money</b>?</h3></div>
                            <div class=""stimulus-container"" style=""display: flex; width: 800px; justify-content: center; gap: 30px;"">
                                <img src=""images/causal_sequence/package_causal/package_causal_3.png"" class=""small-image"">
                                <img src=""images/causal_sequence/package_causal/package_causal_9.png"" class=""small-image"">
                            </div>","1","part3_choice_neighbors","package_causal","causal_sequence","","","3","6","9","1",""
"","","","","","html-keyboard-response","75","509824","0.0-59.0-0.0","8FAB518F169A4E449482B541F514C6FD","019dad0e-ab4a-7a00-af4f-66d6f32391ff","019dacfd-3d5e-7f0e-9535-61b14ca20378","","null","
                            <div style=""font-family: Arial; margin-bottom: 20px;""><h3>Which image is worth <b>more money</b>?</h3></div>
                            <div class=""stimulus-container"" style=""display: flex; width: 800px; justify-content: center; gap: 30px;"">
                                <img src=""images/semantic_sequence/housework_semantic/housework_semantic_4.png"" class=""small-image"">
                                <img src=""images/semantic_sequence/housework_semantic/housework_semantic_8.png"" class=""small-image"">
                            </div>","null","","","","","","","","","",""
"","","","","","html-button-response","76","510706","0.0-59.0-1.0","8FAB518F169A4E449482B541F514C6FD","019dad0e-ab4a-7a00-af4f-66d6f32391ff","019dacfd-3d5e-7f0e-9535-61b14ca20378","","881","
                            <div style=""font-family: Arial; margin-bottom: 20px;""><h3>Which image is worth <b>more money</b>?</h3></div>
                            <div class=""stimulus-container"" style=""display: flex; width: 800px; justify-content: center; gap: 30px;"">
                                <img src=""images/semantic_sequence/housework_semantic/housework_semantic_4.png"" class=""small-image"">
                                <img src=""images/semantic_sequence/housework_semantic/housework_semantic_8.png"" class=""small-image"">
                            </div>","0","part3_choice_neighbors","housework_semantic","semantic_sequence","","","2","6","4","0",""
"","","","","","html-keyboard-response","77","513708","0.0-60.0-0.0","8FAB518F169A4E449482B541F514C6FD","019dad0e-ab4a-7a00-af4f-66d6f32391ff","019dacfd-3d5e-7f0e-9535-61b14ca20378","","null","
                            <div style=""font-family: Arial; margin-bottom: 20px;""><h3>Which image is worth <b>more money</b>?</h3></div>
                            <div class=""stimulus-container"" style=""display: flex; width: 800px; justify-content: center; gap: 30px;"">
                                <img src=""images/causal_sequence/dog_causal/dog_causal_8.png"" class=""small-image"">
                                <img src=""images/causal_sequence/dog_causal/dog_causal_4.png"" class=""small-image"">
                            </div>","null","","","","","","","","","",""
"","","","","","html-button-response","78","514206","0.0-60.0-1.0","8FAB518F169A4E449482B541F514C6FD","019dad0e-ab4a-7a00-af4f-66d6f32391ff","019dacfd-3d5e-7f0e-9535-61b14ca20378","","496","
                            <div style=""font-family: Arial; margin-bottom: 20px;""><h3>Which image is worth <b>more money</b>?</h3></div>
                            <div class=""stimulus-container"" style=""display: flex; width: 800px; justify-content: center; gap: 30px;"">
                                <img src=""images/causal_sequence/dog_causal/dog_causal_8.png"" class=""small-image"">
                                <img src=""images/causal_sequence/dog_causal/dog_causal_4.png"" class=""small-image"">
                            </div>","0","part3_choice_neighbors","dog_causal","causal_sequence","","","2","6","8","1",""
"","","","","","html-keyboard-response","79","517208","0.0-61.0-0.0","8FAB518F169A4E449482B541F514C6FD","019dad0e-ab4a-7a00-af4f-66d6f32391ff","019dacfd-3d5e-7f0e-9535-61b14ca20378","","null","
                            <div style=""font-family: Arial; margin-bottom: 20px;""><h3>Which image is worth <b>more money</b>?</h3></div>
                            <div class=""stimulus-container"" style=""display: flex; width: 800px; justify-content: center; gap: 30px;"">
                                <img src=""images/causal_sequence/package_causal/package_causal_8.png"" class=""small-image"">
                                <img src=""images/causal_sequence/package_causal/package_causal_4.png"" class=""small-image"">
                            </div>","null","","","","","","","","","",""
"","","","","","html-button-response","80","517889","0.0-61.0-1.0","8FAB518F169A4E449482B541F514C6FD","019dad0e-ab4a-7a00-af4f-66d6f32391ff","019dacfd-3d5e-7f0e-9535-61b14ca20378","","680","
                            <div style=""font-family: Arial; margin-bottom: 20px;""><h3>Which image is worth <b>more money</b>?</h3></div>
                            <div class=""stimulus-container"" style=""display: flex; width: 800px; justify-content: center; gap: 30px;"">
                                <img src=""images/causal_sequence/package_causal/package_causal_8.png"" class=""small-image"">
                                <img src=""images/causal_sequence/package_causal/package_causal_4.png"" class=""small-image"">
                            </div>","0","part3_choice_neighbors","package_causal","causal_sequence","","","2","6","8","1",""
"","","","","","html-keyboard-response","81","520891","0.0-62.0-0.0","8FAB518F169A4E449482B541F514C6FD","019dad0e-ab4a-7a00-af4f-66d6f32391ff","019dacfd-3d5e-7f0e-9535-61b14ca20378","","null","
                            <div style=""font-family: Arial; margin-bottom: 20px;""><h3>Which image is worth <b>more money</b>?</h3></div>
                            <div class=""stimulus-container"" style=""display: flex; width: 800px; justify-content: center; gap: 30px;"">
                                <img src=""images/semantic_sequence/self_care_activities_semantic/self_care_activities_semantic_4.png"" class=""small-image"">
                                <img src=""images/semantic_sequence/self_care_activities_semantic/self_care_activities_semantic_8.png"" class=""small-image"">
                            </div>","null","","","","","","","","","",""
"","","","","","html-button-response","82","521339","0.0-62.0-1.0","8FAB518F169A4E449482B541F514C6FD","019dad0e-ab4a-7a00-af4f-66d6f32391ff","019dacfd-3d5e-7f0e-9535-61b14ca20378","","447","
                            <div style=""font-family: Arial; margin-bottom: 20px;""><h3>Which image is worth <b>more money</b>?</h3></div>
                            <div class=""stimulus-container"" style=""display: flex; width: 800px; justify-content: center; gap: 30px;"">
                                <img src=""images/semantic_sequence/self_care_activities_semantic/self_care_activities_semantic_4.png"" class=""small-image"">
                                <img src=""images/semantic_sequence/self_care_activities_semantic/self_care_activities_semantic_8.png"" class=""small-image"">
                            </div>","1","part3_choice_neighbors","self_care_activities_semantic","semantic_sequence","","","2","6","8","1",""
"","","","","","html-keyboard-response","83","524342","0.0-63.0-0.0","8FAB518F169A4E449482B541F514C6FD","019dad0e-ab4a-7a00-af4f-66d6f32391ff","019dacfd-3d5e-7f0e-9535-61b14ca20378","","null","
                            <div style=""font-family: Arial; margin-bottom: 20px;""><h3>Which image is worth <b>more money</b>?</h3></div>
                            <div class=""stimulus-container"" style=""display: flex; width: 800px; justify-content: center; gap: 30px;"">
                                <img src=""images/causal_sequence/package_causal/package_causal_7.png"" class=""small-image"">
                                <img src=""images/causal_sequence/package_causal/package_causal_5.png"" class=""small-image"">
                            </div>","null","","","","","","","","","",""
"","","","","","html-button-response","84","526156","0.0-63.0-1.0","8FAB518F169A4E449482B541F514C6FD","019dad0e-ab4a-7a00-af4f-66d6f32391ff","019dacfd-3d5e-7f0e-9535-61b14ca20378","","1813","
                            <div style=""font-family: Arial; margin-bottom: 20px;""><h3>Which image is worth <b>more money</b>?</h3></div>
                            <div class=""stimulus-container"" style=""display: flex; width: 800px; justify-content: center; gap: 30px;"">
                                <img src=""images/causal_sequence/package_causal/package_causal_7.png"" class=""small-image"">
                                <img src=""images/causal_sequence/package_causal/package_causal_5.png"" class=""small-image"">
                            </div>","0","part3_choice_neighbors","package_causal","causal_sequence","","","1","6","7","1",""
"","","","","","html-keyboard-response","85","529158","0.0-64.0-0.0","8FAB518F169A4E449482B541F514C6FD","019dad0e-ab4a-7a00-af4f-66d6f32391ff","019dacfd-3d5e-7f0e-9535-61b14ca20378","","null","
                            <div style=""font-family: Arial; margin-bottom: 20px;""><h3>Which image is worth <b>more money</b>?</h3></div>
                            <div class=""stimulus-container"" style=""display: flex; width: 800px; justify-content: center; gap: 30px;"">
                                <img src=""images/causal_sequence/the_performance_causal/the_performance_causal_7.png"" class=""small-image"">
                                <img src=""images/causal_sequence/the_performance_causal/the_performance_causal_5.png"" class=""small-image"">
                            </div>","null","","","","","","","","","",""
"","","","","","html-button-response","86","534222","0.0-64.0-1.0","8FAB518F169A4E449482B541F514C6FD","019dad0e-ab4a-7a00-af4f-66d6f32391ff","019dacfd-3d5e-7f0e-9535-61b14ca20378","","5063","
                            <div style=""font-family: Arial; margin-bottom: 20px;""><h3>Which image is worth <b>more money</b>?</h3></div>
                            <div class=""stimulus-container"" style=""display: flex; width: 800px; justify-content: center; gap: 30px;"">
                                <img src=""images/causal_sequence/the_performance_causal/the_performance_causal_7.png"" class=""small-image"">
                                <img src=""images/causal_sequence/the_performance_causal/the_performance_causal_5.png"" class=""small-image"">
                            </div>","0","part3_choice_neighbors","the_performance_causal","causal_sequence","","","1","6","7","1",""
"","","","","","html-keyboard-response","87","537225","0.0-65.0-0.0","8FAB518F169A4E449482B541F514C6FD","019dad0e-ab4a-7a00-af4f-66d6f32391ff","019dacfd-3d5e-7f0e-9535-61b14ca20378","","null","
                            <div style=""font-family: Arial; margin-bottom: 20px;""><h3>Which image is worth <b>more money</b>?</h3></div>
                            <div class=""stimulus-container"" style=""display: flex; width: 800px; justify-content: center; gap: 30px;"">
                                <img src=""images/semantic_sequence/kitchen_operations_semantic/kitchen_operations_semantic_2.png"" class=""small-image"">
                                <img src=""images/semantic_sequence/kitchen_operations_semantic/kitchen_operations_semantic_8.png"" class=""small-image"">
                            </div>","null","","","","","","","","","",""
"","","","","","html-button-response","88","538239","0.0-65.0-1.0","8FAB518F169A4E449482B541F514C6FD","019dad0e-ab4a-7a00-af4f-66d6f32391ff","019dacfd-3d5e-7f0e-9535-61b14ca20378","","1012","
                            <div style=""font-family: Arial; margin-bottom: 20px;""><h3>Which image is worth <b>more money</b>?</h3></div>
                            <div class=""stimulus-container"" style=""display: flex; width: 800px; justify-content: center; gap: 30px;"">
                                <img src=""images/semantic_sequence/kitchen_operations_semantic/kitchen_operations_semantic_2.png"" class=""small-image"">
                                <img src=""images/semantic_sequence/kitchen_operations_semantic/kitchen_operations_semantic_8.png"" class=""small-image"">
                            </div>","1","part3_choice_neighbors","kitchen_operations_semantic","semantic_sequence","","","3","5","8","1",""
"","","","","","html-keyboard-response","89","541241","0.0-66.0-0.0","8FAB518F169A4E449482B541F514C6FD","019dad0e-ab4a-7a00-af4f-66d6f32391ff","019dacfd-3d5e-7f0e-9535-61b14ca20378","","null","
                            <div style=""font-family: Arial; margin-bottom: 20px;""><h3>Which image is worth <b>more money</b>?</h3></div>
                            <div class=""stimulus-container"" style=""display: flex; width: 800px; justify-content: center; gap: 30px;"">
                                <img src=""images/causal_sequence/museum_causal/museum_causal_8.png"" class=""small-image"">
                                <img src=""images/causal_sequence/museum_causal/museum_causal_4.png"" class=""small-image"">
                            </div>","null","","","","","","","","","",""
"","","","","","html-button-response","90","541772","0.0-66.0-1.0","8FAB518F169A4E449482B541F514C6FD","019dad0e-ab4a-7a00-af4f-66d6f32391ff","019dacfd-3d5e-7f0e-9535-61b14ca20378","","530","
                            <div style=""font-family: Arial; margin-bottom: 20px;""><h3>Which image is worth <b>more money</b>?</h3></div>
                            <div class=""stimulus-container"" style=""display: flex; width: 800px; justify-content: center; gap: 30px;"">
                                <img src=""images/causal_sequence/museum_causal/museum_causal_8.png"" class=""small-image"">
                                <img src=""images/causal_sequence/museum_causal/museum_causal_4.png"" class=""small-image"">
                            </div>","0","part3_choice_neighbors","museum_causal","causal_sequence","","","2","6","8","1",""
"","","","","","html-keyboard-response","91","544775","0.0-67.0-0.0","8FAB518F169A4E449482B541F514C6FD","019dad0e-ab4a-7a00-af4f-66d6f32391ff","019dacfd-3d5e-7f0e-9535-61b14ca20378","","null","
                            <div style=""font-family: Arial; margin-bottom: 20px;""><h3>Which image is worth <b>more money</b>?</h3></div>
                            <div class=""stimulus-container"" style=""display: flex; width: 800px; justify-content: center; gap: 30px;"">
                                <img src=""images/causal_sequence/saving_a_cat_causal/saving_a_cat_causal_7.png"" class=""small-image"">
                                <img src=""images/causal_sequence/saving_a_cat_causal/saving_a_cat_causal_1.png"" class=""small-image"">
                            </div>","null","","","","","","","","","",""
"","","","","","html-button-response","92","545306","0.0-67.0-1.0","8FAB518F169A4E449482B541F514C6FD","019dad0e-ab4a-7a00-af4f-66d6f32391ff","019dacfd-3d5e-7f0e-9535-61b14ca20378","","530","
                            <div style=""font-family: Arial; margin-bottom: 20px;""><h3>Which image is worth <b>more money</b>?</h3></div>
                            <div class=""stimulus-container"" style=""display: flex; width: 800px; justify-content: center; gap: 30px;"">
                                <img src=""images/causal_sequence/saving_a_cat_causal/saving_a_cat_causal_7.png"" class=""small-image"">
                                <img src=""images/causal_sequence/saving_a_cat_causal/saving_a_cat_causal_1.png"" class=""small-image"">
                            </div>","0","part3_choice_neighbors","saving_a_cat_causal","causal_sequence","","","3","4","7","1",""
"","","","","","html-keyboard-response","93","548309","0.0-68.0-0.0","8FAB518F169A4E449482B541F514C6FD","019dad0e-ab4a-7a00-af4f-66d6f32391ff","019dacfd-3d5e-7f0e-9535-61b14ca20378","","null","<div style=""font-family: Arial; margin-bottom: 20px;""><h3>Which image is worth <b>more money?</h3></div>
                            <div class=""stimulus-container"" style=""display: flex; width: 800px; justify-content: center; gap: 30px;"">
                                <img src=""images/causal_sequence/the_performance_causal/the_performance_causal_6.png"" class=""small-image"">
                                <img src=""images/causal_sequence/saving_a_cat_causal/saving_a_cat_causal_4.png"" class=""small-image"">
                            </div>","null","","","","","","","","","",""
"","","","","","html-button-response","94","549039","0.0-68.0-1.0","8FAB518F169A4E449482B541F514C6FD","019dad0e-ab4a-7a00-af4f-66d6f32391ff","019dacfd-3d5e-7f0e-9535-61b14ca20378","","729","<div style=""font-family: Arial; margin-bottom: 20px;""><h3>Which image is worth <b>more money</b>?</h3></div>
                            <div class=""stimulus-container"" style=""display: flex; width: 800px; justify-content: center; gap: 30px;"">
                                <img src=""images/causal_sequence/the_performance_causal/the_performance_causal_6.png"" class=""small-image"">
                                <img src=""images/causal_sequence/saving_a_cat_causal/saving_a_cat_causal_4.png"" class=""small-image"">
                            </div>","0","part3_valuable_vs_neutral_direct","","","","","","","","","true"
"","","","","","html-keyboard-response","95","552042","0.0-69.0-0.0","8FAB518F169A4E449482B541F514C6FD","019dad0e-ab4a-7a00-af4f-66d6f32391ff","019dacfd-3d5e-7f0e-9535-61b14ca20378","","null","
                            <div style=""font-family: Arial; margin-bottom: 20px;""><h3>Which image is worth <b>more money</b>?</h3></div>
                            <div class=""stimulus-container"" style=""display: flex; width: 800px; justify-content: center; gap: 30px;"">
                                <img src=""images/causal_sequence/saving_a_cat_causal/saving_a_cat_causal_3.png"" class=""small-image"">
                                <img src=""images/causal_sequence/saving_a_cat_causal/saving_a_cat_causal_5.png"" class=""small-image"">
                            </div>","null","","","","","","","","","",""
"","","","","","html-button-response","96","552689","0.0-69.0-1.0","8FAB518F169A4E449482B541F514C6FD","019dad0e-ab4a-7a00-af4f-66d6f32391ff","019dacfd-3d5e-7f0e-9535-61b14ca20378","","646","
                            <div style=""font-family: Arial; margin-bottom: 20px;""><h3>Which image is worth <b>more money</b>?</h3></div>
                            <div class=""stimulus-container"" style=""display: flex; width: 800px; justify-content: center; gap: 30px;"">
                                <img src=""images/causal_sequence/saving_a_cat_causal/saving_a_cat_causal_3.png"" class=""small-image"">
                                <img src=""images/causal_sequence/saving_a_cat_causal/saving_a_cat_causal_5.png"" class=""small-image"">
                            </div>","1","part3_choice_neighbors","saving_a_cat_causal","causal_sequence","","","1","4","5","1",""
"","","","","","html-keyboard-response","97","555692","0.0-70.0-0.0","8FAB518F169A4E449482B541F514C6FD","019dad0e-ab4a-7a00-af4f-66d6f32391ff","019dacfd-3d5e-7f0e-9535-61b14ca20378","","null","
                            <div style=""font-family: Arial; margin-bottom: 20px;""><h3>Which image is worth <b>more money</b>?</h3></div>
                            <div class=""stimulus-container"" style=""display: flex; width: 800px; justify-content: center; gap: 30px;"">
                                <img src=""images/causal_sequence/the_performance_causal/the_performance_causal_8.png"" class=""small-image"">
                                <img src=""images/causal_sequence/the_performance_causal/the_performance_causal_4.png"" class=""small-image"">
                            </div>","null","","","","","","","","","",""
"","","","","","html-button-response","98","557972","0.0-70.0-1.0","8FAB518F169A4E449482B541F514C6FD","019dad0e-ab4a-7a00-af4f-66d6f32391ff","019dacfd-3d5e-7f0e-9535-61b14ca20378","","2279","
                            <div style=""font-family: Arial; margin-bottom: 20px;""><h3>Which image is worth <b>more money</b>?</h3></div>
                            <div class=""stimulus-container"" style=""display: flex; width: 800px; justify-content: center; gap: 30px;"">
                                <img src=""images/causal_sequence/the_performance_causal/the_performance_causal_8.png"" class=""small-image"">
                                <img src=""images/causal_sequence/the_performance_causal/the_performance_causal_4.png"" class=""small-image"">
                            </div>","0","part3_choice_neighbors","the_performance_causal","causal_sequence","","","2","6","8","1",""
"","","","","","html-keyboard-response","99","560973","0.0-71.0-0.0","8FAB518F169A4E449482B541F514C6FD","019dad0e-ab4a-7a00-af4f-66d6f32391ff","019dacfd-3d5e-7f0e-9535-61b14ca20378","","null","
                            <div style=""font-family: Arial; margin-bottom: 20px;""><h3>Which image is worth <b>more money</b>?</h3></div>
                            <div class=""stimulus-container"" style=""display: flex; width: 800px; justify-content: center; gap: 30px;"">
                                <img src=""images/semantic_sequence/kitchen_operations_semantic/kitchen_operations_semantic_6.png"" class=""small-image"">
                                <img src=""images/semantic_sequence/kitchen_operations_semantic/kitchen_operations_semantic_4.png"" class=""small-image"">
                            </div>","null","","","","","","","","","",""
"","","","","","html-button-response","100","561505","0.0-71.0-1.0","8FAB518F169A4E449482B541F514C6FD","019dad0e-ab4a-7a00-af4f-66d6f32391ff","019dacfd-3d5e-7f0e-9535-61b14ca20378","","531","
                            <div style=""font-family: Arial; margin-bottom: 20px;""><h3>Which image is worth <b>more money</b>?</h3></div>
                            <div class=""stimulus-container"" style=""display: flex; width: 800px; justify-content: center; gap: 30px;"">
                                <img src=""images/semantic_sequence/kitchen_operations_semantic/kitchen_operations_semantic_6.png"" class=""small-image"">
                                <img src=""images/semantic_sequence/kitchen_operations_semantic/kitchen_operations_semantic_4.png"" class=""small-image"">
                            </div>","0","part3_choice_neighbors","kitchen_operations_semantic","semantic_sequence","","","1","5","6","1",""
"","","","","","html-keyboard-response","101","564508","0.0-72.0-0.0","8FAB518F169A4E449482B541F514C6FD","019dad0e-ab4a-7a00-af4f-66d6f32391ff","019dacfd-3d5e-7f0e-9535-61b14ca20378","","null","
                            <div style=""font-family: Arial; margin-bottom: 20px;""><h3>Which image is worth <b>more money</b>?</h3></div>
                            <div class=""stimulus-container"" style=""display: flex; width: 800px; justify-content: center; gap: 30px;"">
                                <img src=""images/semantic_sequence/maintaining_a_car_semantic/maintaining_a_car_semantic_5.png"" class=""small-image"">
                                <img src=""images/semantic_sequence/maintaining_a_car_semantic/maintaining_a_car_semantic_7.png"" class=""small-image"">
                            </div>","null","","","","","","","","","",""
"","","","","","html-button-response","102","565156","0.0-72.0-1.0","8FAB518F169A4E449482B541F514C6FD","019dad0e-ab4a-7a00-af4f-66d6f32391ff","019dacfd-3d5e-7f0e-9535-61b14ca20378","","647","
                            <div style=""font-family: Arial; margin-bottom: 20px;""><h3>Which image is worth <b>more money</b>?</h3></div>
                            <div class=""stimulus-container"" style=""display: flex; width: 800px; justify-content: center; gap: 30px;"">
                                <img src=""images/semantic_sequence/maintaining_a_car_semantic/maintaining_a_car_semantic_5.png"" class=""small-image"">
                                <img src=""images/semantic_sequence/maintaining_a_car_semantic/maintaining_a_car_semantic_7.png"" class=""small-image"">
                            </div>","0","part3_choice_neighbors","maintaining_a_car_semantic","semantic_sequence","","","1","6","5","0",""
"","","","","","html-keyboard-response","103","568159","0.0-73.0-0.0","8FAB518F169A4E449482B541F514C6FD","019dad0e-ab4a-7a00-af4f-66d6f32391ff","019dacfd-3d5e-7f0e-9535-61b14ca20378","","null","
                            <div style=""font-family: Arial; margin-bottom: 20px;""><h3>Which image is worth <b>more money</b>?</h3></div>
                            <div class=""stimulus-container"" style=""display: flex; width: 800px; justify-content: center; gap: 30px;"">
                                <img src=""images/semantic_sequence/visiting_cities_semantic/visiting_cities_semantic_5.png"" class=""small-image"">
                                <img src=""images/semantic_sequence/visiting_cities_semantic/visiting_cities_semantic_3.png"" class=""small-image"">
                            </div>","null","","","","","","","","","",""
"","","","","","html-button-response","104","569906","0.0-73.0-1.0","8FAB518F169A4E449482B541F514C6FD","019dad0e-ab4a-7a00-af4f-66d6f32391ff","019dacfd-3d5e-7f0e-9535-61b14ca20378","","1746","
                            <div style=""font-family: Arial; margin-bottom: 20px;""><h3>Which image is worth <b>more money</b>?</h3></div>
                            <div class=""stimulus-container"" style=""display: flex; width: 800px; justify-content: center; gap: 30px;"">
                                <img src=""images/semantic_sequence/visiting_cities_semantic/visiting_cities_semantic_5.png"" class=""small-image"">
                                <img src=""images/semantic_sequence/visiting_cities_semantic/visiting_cities_semantic_3.png"" class=""small-image"">
                            </div>","0","part3_choice_neighbors","visiting_cities_semantic","semantic_sequence","","","1","4","5","1",""
"","","","","","html-keyboard-response","105","572909","0.0-74.0-0.0","8FAB518F169A4E449482B541F514C6FD","019dad0e-ab4a-7a00-af4f-66d6f32391ff","019dacfd-3d5e-7f0e-9535-61b14ca20378","","null","
                            <div style=""font-family: Arial; margin-bottom: 20px;""><h3>Which image is worth <b>more money</b>?</h3></div>
                            <div class=""stimulus-container"" style=""display: flex; width: 800px; justify-content: center; gap: 30px;"">
                                <img src=""images/causal_sequence/museum_causal/museum_causal_5.png"" class=""small-image"">
                                <img src=""images/causal_sequence/museum_causal/museum_causal_7.png"" class=""small-image"">
                            </div>","null","","","","","","","","","",""
"","","","","","html-button-response","106","573372","0.0-74.0-1.0","8FAB518F169A4E449482B541F514C6FD","019dad0e-ab4a-7a00-af4f-66d6f32391ff","019dacfd-3d5e-7f0e-9535-61b14ca20378","","462","
                            <div style=""font-family: Arial; margin-bottom: 20px;""><h3>Which image is worth <b>more money</b>?</h3></div>
                            <div class=""stimulus-container"" style=""display: flex; width: 800px; justify-content: center; gap: 30px;"">
                                <img src=""images/causal_sequence/museum_causal/museum_causal_5.png"" class=""small-image"">
                                <img src=""images/causal_sequence/museum_causal/museum_causal_7.png"" class=""small-image"">
                            </div>","0","part3_choice_neighbors","museum_causal","causal_sequence","","","1","6","5","0",""
"","","","","","html-keyboard-response","107","576375","0.0-75.0-0.0","8FAB518F169A4E449482B541F514C6FD","019dad0e-ab4a-7a00-af4f-66d6f32391ff","019dacfd-3d5e-7f0e-9535-61b14ca20378","","null","
                            <div style=""font-family: Arial; margin-bottom: 20px;""><h3>Which image is worth <b>more money</b>?</h3></div>
                            <div class=""stimulus-container"" style=""display: flex; width: 800px; justify-content: center; gap: 30px;"">
                                <img src=""images/semantic_sequence/housework_semantic/housework_semantic_3.png"" class=""small-image"">
                                <img src=""images/semantic_sequence/housework_semantic/housework_semantic_9.png"" class=""small-image"">
                            </div>","null","","","","","","","","","",""
"","","","","","html-button-response","108","576922","0.0-75.0-1.0","8FAB518F169A4E449482B541F514C6FD","019dad0e-ab4a-7a00-af4f-66d6f32391ff","019dacfd-3d5e-7f0e-9535-61b14ca20378","","546","
                            <div style=""font-family: Arial; margin-bottom: 20px;""><h3>Which image is worth <b>more money</b>?</h3></div>
                            <div class=""stimulus-container"" style=""display: flex; width: 800px; justify-content: center; gap: 30px;"">
                                <img src=""images/semantic_sequence/housework_semantic/housework_semantic_3.png"" class=""small-image"">
                                <img src=""images/semantic_sequence/housework_semantic/housework_semantic_9.png"" class=""small-image"">
                            </div>","0","part3_choice_neighbors","housework_semantic","semantic_sequence","","","3","6","3","0",""
"","","","","","html-keyboard-response","109","579925","0.0-76.0-0.0","8FAB518F169A4E449482B541F514C6FD","019dad0e-ab4a-7a00-af4f-66d6f32391ff","019dacfd-3d5e-7f0e-9535-61b14ca20378","","null","
                            <div style=""font-family: Arial; margin-bottom: 20px;""><h3>Which image is worth <b>more money</b>?</h3></div>
                            <div class=""stimulus-container"" style=""display: flex; width: 800px; justify-content: center; gap: 30px;"">
                                <img src=""images/semantic_sequence/physical_activity_semantic/physical_activity_semantic_6.png"" class=""small-image"">
                                <img src=""images/semantic_sequence/physical_activity_semantic/physical_activity_semantic_4.png"" class=""small-image"">
                            </div>","null","","","","","","","","","",""
"","","","","","html-button-response","110","580889","0.0-76.0-1.0","8FAB518F169A4E449482B541F514C6FD","019dad0e-ab4a-7a00-af4f-66d6f32391ff","019dacfd-3d5e-7f0e-9535-61b14ca20378","","963","
                            <div style=""font-family: Arial; margin-bottom: 20px;""><h3>Which image is worth <b>more money</b>?</h3></div>
                            <div class=""stimulus-container"" style=""display: flex; width: 800px; justify-content: center; gap: 30px;"">
                                <img src=""images/semantic_sequence/physical_activity_semantic/physical_activity_semantic_6.png"" class=""small-image"">
                                <img src=""images/semantic_sequence/physical_activity_semantic/physical_activity_semantic_4.png"" class=""small-image"">
                            </div>","1","part3_choice_neighbors","physical_activity_semantic","semantic_sequence","","","1","5","4","0",""
"","","","","","html-keyboard-response","111","583892","0.0-77.0-0.0","8FAB518F169A4E449482B541F514C6FD","019dad0e-ab4a-7a00-af4f-66d6f32391ff","019dacfd-3d5e-7f0e-9535-61b14ca20378","","null","
                            <div style=""font-family: Arial; margin-bottom: 20px;""><h3>Which image is worth <b>more money</b>?</h3></div>
                            <div class=""stimulus-container"" style=""display: flex; width: 800px; justify-content: center; gap: 30px;"">
                                <img src=""images/causal_sequence/coin_causal/coin_causal_7.png"" class=""small-image"">
                                <img src=""images/causal_sequence/coin_causal/coin_causal_3.png"" class=""small-image"">
                            </div>","null","","","","","","","","","",""
"","","","","","html-button-response","112","584989","0.0-77.0-1.0","8FAB518F169A4E449482B541F514C6FD","019dad0e-ab4a-7a00-af4f-66d6f32391ff","019dacfd-3d5e-7f0e-9535-61b14ca20378","","1096","
                            <div style=""font-family: Arial; margin-bottom: 20px;""><h3>Which image is worth <b>more money</b>?</h3></div>
                            <div class=""stimulus-container"" style=""display: flex; width: 800px; justify-content: center; gap: 30px;"">
                                <img src=""images/causal_sequence/coin_causal/coin_causal_7.png"" class=""small-image"">
                                <img src=""images/causal_sequence/coin_causal/coin_causal_3.png"" class=""small-image"">
                            </div>","1","part3_choice_neighbors","coin_causal","causal_sequence","","","2","5","3","0",""
"","","","","","html-keyboard-response","113","587992","0.0-78.0-0.0","8FAB518F169A4E449482B541F514C6FD","019dad0e-ab4a-7a00-af4f-66d6f32391ff","019dacfd-3d5e-7f0e-9535-61b14ca20378","","null","
                            <div style=""font-family: Arial; margin-bottom: 20px;""><h3>Which image is worth <b>more money</b>?</h3></div>
                            <div class=""stimulus-container"" style=""display: flex; width: 800px; justify-content: center; gap: 30px;"">
                                <img src=""images/semantic_sequence/visiting_cities_semantic/visiting_cities_semantic_2.png"" class=""small-image"">
                                <img src=""images/semantic_sequence/visiting_cities_semantic/visiting_cities_semantic_6.png"" class=""small-image"">
                            </div>","null","","","","","","","","","",""
"","","","","","html-button-response","114","588339","0.0-78.0-1.0","8FAB518F169A4E449482B541F514C6FD","019dad0e-ab4a-7a00-af4f-66d6f32391ff","019dacfd-3d5e-7f0e-9535-61b14ca20378","","346","
                            <div style=""font-family: Arial; margin-bottom: 20px;""><h3>Which image is worth <b>more money</b>?</h3></div>
                            <div class=""stimulus-container"" style=""display: flex; width: 800px; justify-content: center; gap: 30px;"">
                                <img src=""images/semantic_sequence/visiting_cities_semantic/visiting_cities_semantic_2.png"" class=""small-image"">
                                <img src=""images/semantic_sequence/visiting_cities_semantic/visiting_cities_semantic_6.png"" class=""small-image"">
                            </div>","0","part3_choice_neighbors","visiting_cities_semantic","semantic_sequence","","","2","4","2","0",""
"","","","","","html-keyboard-response","115","591341","0.0-79.0-0.0","8FAB518F169A4E449482B541F514C6FD","019dad0e-ab4a-7a00-af4f-66d6f32391ff","019dacfd-3d5e-7f0e-9535-61b14ca20378","","null","
                            <div style=""font-family: Arial; margin-bottom: 20px;""><h3>Which image is worth <b>more money</b>?</h3></div>
                            <div class=""stimulus-container"" style=""display: flex; width: 800px; justify-content: center; gap: 30px;"">
                                <img src=""images/semantic_sequence/self_care_activities_semantic/self_care_activities_semantic_9.png"" class=""small-image"">
                                <img src=""images/semantic_sequence/self_care_activities_semantic/self_care_activities_semantic_3.png"" class=""small-image"">
                            </div>","null","","","","","","","","","",""
"","","","","","html-button-response","116","592072","0.0-79.0-1.0","8FAB518F169A4E449482B541F514C6FD","019dad0e-ab4a-7a00-af4f-66d6f32391ff","019dacfd-3d5e-7f0e-9535-61b14ca20378","","729","
                            <div style=""font-family: Arial; margin-bottom: 20px;""><h3>Which image is worth <b>more money</b>?</h3></div>
                            <div class=""stimulus-container"" style=""display: flex; width: 800px; justify-content: center; gap: 30px;"">
                                <img src=""images/semantic_sequence/self_care_activities_semantic/self_care_activities_semantic_9.png"" class=""small-image"">
                                <img src=""images/semantic_sequence/self_care_activities_semantic/self_care_activities_semantic_3.png"" class=""small-image"">
                            </div>","1","part3_choice_neighbors","self_care_activities_semantic","semantic_sequence","","","3","6","3","0",""
"","","","","","html-keyboard-response","117","595073","0.0-80.0-0.0","8FAB518F169A4E449482B541F514C6FD","019dad0e-ab4a-7a00-af4f-66d6f32391ff","019dacfd-3d5e-7f0e-9535-61b14ca20378","","null","
                            <div style=""font-family: Arial; margin-bottom: 20px;""><h3>Which image is worth <b>more money</b>?</h3></div>
                            <div class=""stimulus-container"" style=""display: flex; width: 800px; justify-content: center; gap: 30px;"">
                                <img src=""images/causal_sequence/coin_causal/coin_causal_2.png"" class=""small-image"">
                                <img src=""images/causal_sequence/coin_causal/coin_causal_8.png"" class=""small-image"">
                            </div>","null","","","","","","","","","",""
"","","","","","html-button-response","118","595689","0.0-80.0-1.0","8FAB518F169A4E449482B541F514C6FD","019dad0e-ab4a-7a00-af4f-66d6f32391ff","019dacfd-3d5e-7f0e-9535-61b14ca20378","","615","
                            <div style=""font-family: Arial; margin-bottom: 20px;""><h3>Which image is worth <b>more money</b>?</h3></div>
                            <div class=""stimulus-container"" style=""display: flex; width: 800px; justify-content: center; gap: 30px;"">
                                <img src=""images/causal_sequence/coin_causal/coin_causal_2.png"" class=""small-image"">
                                <img src=""images/causal_sequence/coin_causal/coin_causal_8.png"" class=""small-image"">
                            </div>","1","part3_choice_neighbors","coin_causal","causal_sequence","","","3","5","8","1",""
"","","","","","html-keyboard-response","119","598692","0.0-81.0-0.0","8FAB518F169A4E449482B541F514C6FD","019dad0e-ab4a-7a00-af4f-66d6f32391ff","019dacfd-3d5e-7f0e-9535-61b14ca20378","","null","<div style=""font-family: Arial; margin-bottom: 20px;""><h3>Which image is worth <b>more money?</h3></div>
                            <div class=""stimulus-container"" style=""display: flex; width: 800px; justify-content: center; gap: 30px;"">
                                <img src=""images/semantic_sequence/self_care_activities_semantic/self_care_activities_semantic_6.png"" class=""small-image"">
                                <img src=""images/semantic_sequence/housework_semantic/housework_semantic_6.png"" class=""small-image"">
                            </div>","null","","","","","","","","","",""
"","","","","","html-button-response","120","599438","0.0-81.0-1.0","8FAB518F169A4E449482B541F514C6FD","019dad0e-ab4a-7a00-af4f-66d6f32391ff","019dacfd-3d5e-7f0e-9535-61b14ca20378","","746","<div style=""font-family: Arial; margin-bottom: 20px;""><h3>Which image is worth <b>more money</b>?</h3></div>
                            <div class=""stimulus-container"" style=""display: flex; width: 800px; justify-content: center; gap: 30px;"">
                                <img src=""images/semantic_sequence/self_care_activities_semantic/self_care_activities_semantic_6.png"" class=""small-image"">
                                <img src=""images/semantic_sequence/housework_semantic/housework_semantic_6.png"" class=""small-image"">
                            </div>","0","part3_valuable_vs_neutral_direct","","","","","","","","","true"
"","","","","","html-keyboard-response","121","602441","0.0-82.0-0.0","8FAB518F169A4E449482B541F514C6FD","019dad0e-ab4a-7a00-af4f-66d6f32391ff","019dacfd-3d5e-7f0e-9535-61b14ca20378","","null","
                            <div style=""font-family: Arial; margin-bottom: 20px;""><h3>Which image is worth <b>more money</b>?</h3></div>
                            <div class=""stimulus-container"" style=""display: flex; width: 800px; justify-content: center; gap: 30px;"">
                                <img src=""images/semantic_sequence/visiting_cities_semantic/visiting_cities_semantic_7.png"" class=""small-image"">
                                <img src=""images/semantic_sequence/visiting_cities_semantic/visiting_cities_semantic_1.png"" class=""small-image"">
                            </div>","null","","","","","","","","","",""
"","","","","","html-button-response","122","603022","0.0-82.0-1.0","8FAB518F169A4E449482B541F514C6FD","019dad0e-ab4a-7a00-af4f-66d6f32391ff","019dacfd-3d5e-7f0e-9535-61b14ca20378","","580","
                            <div style=""font-family: Arial; margin-bottom: 20px;""><h3>Which image is worth <b>more money</b>?</h3></div>
                            <div class=""stimulus-container"" style=""display: flex; width: 800px; justify-content: center; gap: 30px;"">
                                <img src=""images/semantic_sequence/visiting_cities_semantic/visiting_cities_semantic_7.png"" class=""small-image"">
                                <img src=""images/semantic_sequence/visiting_cities_semantic/visiting_cities_semantic_1.png"" class=""small-image"">
                            </div>","0","part3_choice_neighbors","visiting_cities_semantic","semantic_sequence","","","3","4","7","1",""
"","","","","","html-keyboard-response","123","606024","0.0-83.0-0.0","8FAB518F169A4E449482B541F514C6FD","019dad0e-ab4a-7a00-af4f-66d6f32391ff","019dacfd-3d5e-7f0e-9535-61b14ca20378","","null","<div style=""font-family: Arial; margin-bottom: 20px;""><h3>Which image is worth <b>more money?</h3></div>
                            <div class=""stimulus-container"" style=""display: flex; width: 800px; justify-content: center; gap: 30px;"">
                                <img src=""images/semantic_sequence/maintaining_a_car_semantic/maintaining_a_car_semantic_6.png"" class=""small-image"">
                                <img src=""images/semantic_sequence/visiting_cities_semantic/visiting_cities_semantic_4.png"" class=""small-image"">
                            </div>","null","","","","","","","","","",""
"","","","","","html-button-response","124","606873","0.0-83.0-1.0","8FAB518F169A4E449482B541F514C6FD","019dad0e-ab4a-7a00-af4f-66d6f32391ff","019dacfd-3d5e-7f0e-9535-61b14ca20378","","847","<div style=""font-family: Arial; margin-bottom: 20px;""><h3>Which image is worth <b>more money</b>?</h3></div>
                            <div class=""stimulus-container"" style=""display: flex; width: 800px; justify-content: center; gap: 30px;"">
                                <img src=""images/semantic_sequence/maintaining_a_car_semantic/maintaining_a_car_semantic_6.png"" class=""small-image"">
                                <img src=""images/semantic_sequence/visiting_cities_semantic/visiting_cities_semantic_4.png"" class=""small-image"">
                            </div>","1","part3_valuable_vs_neutral_direct","","","","","","","","","true"
"","","","","","html-keyboard-response","125","609876","0.0-84.0-0.0","8FAB518F169A4E449482B541F514C6FD","019dad0e-ab4a-7a00-af4f-66d6f32391ff","019dacfd-3d5e-7f0e-9535-61b14ca20378","","null","
                            <div style=""font-family: Arial; margin-bottom: 20px;""><h3>Which image is worth <b>more money</b>?</h3></div>
                            <div class=""stimulus-container"" style=""display: flex; width: 800px; justify-content: center; gap: 30px;"">
                                <img src=""images/semantic_sequence/maintaining_a_car_semantic/maintaining_a_car_semantic_4.png"" class=""small-image"">
                                <img src=""images/semantic_sequence/maintaining_a_car_semantic/maintaining_a_car_semantic_8.png"" class=""small-image"">
                            </div>","null","","","","","","","","","",""
"","","","","","html-button-response","126","610440","0.0-84.0-1.0","8FAB518F169A4E449482B541F514C6FD","019dad0e-ab4a-7a00-af4f-66d6f32391ff","019dacfd-3d5e-7f0e-9535-61b14ca20378","","563","
                            <div style=""font-family: Arial; margin-bottom: 20px;""><h3>Which image is worth <b>more money</b>?</h3></div>
                            <div class=""stimulus-container"" style=""display: flex; width: 800px; justify-content: center; gap: 30px;"">
                                <img src=""images/semantic_sequence/maintaining_a_car_semantic/maintaining_a_car_semantic_4.png"" class=""small-image"">
                                <img src=""images/semantic_sequence/maintaining_a_car_semantic/maintaining_a_car_semantic_8.png"" class=""small-image"">
                            </div>","1","part3_choice_neighbors","maintaining_a_car_semantic","semantic_sequence","","","2","6","8","1",""
"","","","","","survey-text","127","694674","0.0-85.0","8FAB518F169A4E449482B541F514C6FD","019dad0e-ab4a-7a00-af4f-66d6f32391ff","019dacfd-3d5e-7f0e-9535-61b14ca20378","","84228","","{""gender"":""MALE"",""age"":""29"",""decision_strategy"":""If it wasn't one of the images from part one, I just assessed the value of the item (like the mona lisa) or the activity (like washing the car) and picked the more expensive one."",""consistency_check"":""Yes, just comparing values of the item or activity to participate. For locations it including cost of travelling from where I live (USA)""}","demographics_and_strategy","","","","","","","","",""
"","","","","","instructions","128","699491","0.0-86.0","8FAB518F169A4E449482B541F514C6FD","019dad0e-ab4a-7a00-af4f-66d6f32391ff","019dacfd-3d5e-7f0e-9535-61b14ca20378","[{""page_index"":0,""viewing_time"":4816}]","4816","","","","","","","","","","","",""
