"success","timeout","failed_images","failed_audio","failed_video","trial_type","trial_index","time_elapsed","internal_node_id","subject_id","study_id","session_id","view_history","rt","stimulus","response","task","image_index","folder","sequence_type","valuable_image_index","reward_type","chosen_image_index","target_X","correct_choice"
"true","false","[]","[]","[]","preload","0","13799","0.0-0.0","9A86A88B229145CA9943EAA00F48703F","019cf715-2e7d-7979-9138-24923998e623","019cf6fe-235e-7d95-bb9b-b011d2fe188e","","","","","","","","","","","","",""
"","","","","","instructions","1","18055","0.0-1.0","9A86A88B229145CA9943EAA00F48703F","019cf715-2e7d-7979-9138-24923998e623","019cf6fe-235e-7d95-bb9b-b011d2fe188e","[{""page_index"":0,""viewing_time"":4255}]","4255","","","","","","","","","","",""
"","","","","","instructions","2","21989","0.0-2.0","9A86A88B229145CA9943EAA00F48703F","019cf715-2e7d-7979-9138-24923998e623","019cf6fe-235e-7d95-bb9b-b011d2fe188e","[{""page_index"":0,""viewing_time"":3933}]","3933","","","","","","","","","","",""
"true","","","","","fullscreen","3","26405","0.0-3.0","9A86A88B229145CA9943EAA00F48703F","019cf715-2e7d-7979-9138-24923998e623","019cf6fe-235e-7d95-bb9b-b011d2fe188e","","3410","","","","","","","","","","",""
"","","","","","instructions","4","40950","0.0-4.0","9A86A88B229145CA9943EAA00F48703F","019cf715-2e7d-7979-9138-24923998e623","019cf6fe-235e-7d95-bb9b-b011d2fe188e","[{""page_index"":0,""viewing_time"":14545}]","14545","","","","","","","","","","",""
"","","","","","instructions","5","57382","0.0-5.0","9A86A88B229145CA9943EAA00F48703F","019cf715-2e7d-7979-9138-24923998e623","019cf6fe-235e-7d95-bb9b-b011d2fe188e","[{""page_index"":0,""viewing_time"":16431}]","16431","","","","","","","","","","",""
"","","","","","html-keyboard-response","6","61384","0.0-6.0","9A86A88B229145CA9943EAA00F48703F","019cf715-2e7d-7979-9138-24923998e623","019cf6fe-235e-7d95-bb9b-b011d2fe188e","","null","
                <div class=""stimulus-container"">
                    <img src=""images/instructions/movie_1.png"" class=""exp-image"">
                    <div class=""question-area""></div> 
                </div>","null","","","","","","","","",""
"","","","","","html-button-response","7","64113","0.0-7.0","9A86A88B229145CA9943EAA00F48703F","019cf715-2e7d-7979-9138-24923998e623","019cf6fe-235e-7d95-bb9b-b011d2fe188e","","2728","
                <div class=""stimulus-container"">
                    <img src=""images/instructions/movie_1.png"" class=""exp-image"">
                    <div class=""question-area"">
                        <p style=""font-size: 20px; font-weight: bold; margin: 0;"">Was there a person in this image?</p>
                    </div>
                </div>","0","example_question","1","","","","","","",""
"","","","","","html-keyboard-response","8","68125","0.0-8.0","9A86A88B229145CA9943EAA00F48703F","019cf715-2e7d-7979-9138-24923998e623","019cf6fe-235e-7d95-bb9b-b011d2fe188e","","null","
                <div class=""stimulus-container"">
                    <img src=""images/instructions/movie_2.png"" class=""exp-image"">
                    <div class=""question-area""></div> 
                </div>","null","","","","","","","","",""
"","","","","","html-button-response","9","68825","0.0-9.0","9A86A88B229145CA9943EAA00F48703F","019cf715-2e7d-7979-9138-24923998e623","019cf6fe-235e-7d95-bb9b-b011d2fe188e","","698","
                <div class=""stimulus-container"">
                    <img src=""images/instructions/movie_2.png"" class=""exp-image"">
                    <div class=""question-area"">
                        <p style=""font-size: 20px; font-weight: bold; margin: 0;"">Was there a person in this image?</p>
                    </div>
                </div>","0","example_question","2","","","","","","",""
"","","","","","html-keyboard-response","10","72836","0.0-10.0","9A86A88B229145CA9943EAA00F48703F","019cf715-2e7d-7979-9138-24923998e623","019cf6fe-235e-7d95-bb9b-b011d2fe188e","","null","
                <div class=""stimulus-container"">
                    <img src=""images/instructions/movie_3.png"" class=""exp-image"">
                    <div class=""question-area""></div> 
                </div>","null","","","","","","","","",""
"","","","","","html-button-response","11","73459","0.0-11.0","9A86A88B229145CA9943EAA00F48703F","019cf715-2e7d-7979-9138-24923998e623","019cf6fe-235e-7d95-bb9b-b011d2fe188e","","622","
                <div class=""stimulus-container"">
                    <img src=""images/instructions/movie_3.png"" class=""exp-image"">
                    <div class=""question-area"">
                        <p style=""font-size: 20px; font-weight: bold; margin: 0;"">Was there a person in this image?</p>
                    </div>
                </div>","0","example_question","3","","","","","","",""
"","","","","","html-keyboard-response","12","77461","0.0-12.0","9A86A88B229145CA9943EAA00F48703F","019cf715-2e7d-7979-9138-24923998e623","019cf6fe-235e-7d95-bb9b-b011d2fe188e","","null","
                <div class=""stimulus-container"">
                    <img src=""images/instructions/movie_4.png"" class=""exp-image"">
                    <div class=""question-area""></div> 
                </div>","null","","","","","","","","",""
"","","","","","html-button-response","13","78241","0.0-13.0","9A86A88B229145CA9943EAA00F48703F","019cf715-2e7d-7979-9138-24923998e623","019cf6fe-235e-7d95-bb9b-b011d2fe188e","","779","
                <div class=""stimulus-container"">
                    <img src=""images/instructions/movie_4.png"" class=""exp-image"">
                    <div class=""question-area"">
                        <p style=""font-size: 20px; font-weight: bold; margin: 0;"">Was there a person in this image?</p>
                    </div>
                </div>","0","example_question","4","","","","","","",""
"","","","","","instructions","14","81483","0.0-14.0","9A86A88B229145CA9943EAA00F48703F","019cf715-2e7d-7979-9138-24923998e623","019cf6fe-235e-7d95-bb9b-b011d2fe188e","[{""page_index"":0,""viewing_time"":3241}]","3241","","","","","","","","","","",""
"","","","","","instructions","15","94785","0.0-15.0","9A86A88B229145CA9943EAA00F48703F","019cf715-2e7d-7979-9138-24923998e623","019cf6fe-235e-7d95-bb9b-b011d2fe188e","[{""page_index"":0,""viewing_time"":13302}]","13302","","","","","","","","","","",""
"","","","","","html-keyboard-response","16","95796","0.0-16.0","9A86A88B229145CA9943EAA00F48703F","019cf715-2e7d-7979-9138-24923998e623","019cf6fe-235e-7d95-bb9b-b011d2fe188e","","null","<div style=""background-color: white; width: 100vw; height: 100vh;""></div>","null","","","","","","","","",""
"","","","","","html-keyboard-response","17","100810","0.0-17.0","9A86A88B229145CA9943EAA00F48703F","019cf715-2e7d-7979-9138-24923998e623","019cf6fe-235e-7d95-bb9b-b011d2fe188e","","null","
                <div class=""stimulus-container"">
                    <img src=""images/schematic_sequence/supermarket_scheme/supermarket_scheme_1.png"" class=""exp-image"">
                    <div class=""question-area""></div> 
                </div>","null","","","","","","","","",""
"","","","","","html-button-response","18","101662","0.0-18.0","9A86A88B229145CA9943EAA00F48703F","019cf715-2e7d-7979-9138-24923998e623","019cf6fe-235e-7d95-bb9b-b011d2fe188e","","851","
                <div class=""stimulus-container"">
                    <img src=""images/schematic_sequence/supermarket_scheme/supermarket_scheme_1.png"" class=""exp-image"">
                    <div class=""question-area"">
                        <p style=""font-size: 20px; font-weight: bold; margin: 0;"">Is there a person in this image?</p>
                    </div>
                </div>","1","main_experiment_trial","1","supermarket_scheme","schematic_sequence","","","","",""
"","","","","","html-keyboard-response","19","106677","0.0-19.0","9A86A88B229145CA9943EAA00F48703F","019cf715-2e7d-7979-9138-24923998e623","019cf6fe-235e-7d95-bb9b-b011d2fe188e","","null","
                <div class=""stimulus-container"">
                    <img src=""images/schematic_sequence/supermarket_scheme/supermarket_scheme_2.png"" class=""exp-image"">
                    <div class=""question-area""></div> 
                </div>","null","","","","","","","","",""
"","","","","","html-button-response","20","107346","0.0-20.0","9A86A88B229145CA9943EAA00F48703F","019cf715-2e7d-7979-9138-24923998e623","019cf6fe-235e-7d95-bb9b-b011d2fe188e","","667","
                <div class=""stimulus-container"">
                    <img src=""images/schematic_sequence/supermarket_scheme/supermarket_scheme_2.png"" class=""exp-image"">
                    <div class=""question-area"">
                        <p style=""font-size: 20px; font-weight: bold; margin: 0;"">Is there a person in this image?</p>
                    </div>
                </div>","1","main_experiment_trial","2","supermarket_scheme","schematic_sequence","","","","",""
"","","","","","html-keyboard-response","21","112350","0.0-21.0","9A86A88B229145CA9943EAA00F48703F","019cf715-2e7d-7979-9138-24923998e623","019cf6fe-235e-7d95-bb9b-b011d2fe188e","","null","
                <div class=""stimulus-container"">
                    <img src=""images/schematic_sequence/supermarket_scheme/supermarket_scheme_3.png"" class=""exp-image"">
                    <div class=""question-area""></div> 
                </div>","null","","","","","","","","",""
"","","","","","html-button-response","22","114006","0.0-22.0","9A86A88B229145CA9943EAA00F48703F","019cf715-2e7d-7979-9138-24923998e623","019cf6fe-235e-7d95-bb9b-b011d2fe188e","","1654","
                <div class=""stimulus-container"">
                    <img src=""images/schematic_sequence/supermarket_scheme/supermarket_scheme_3.png"" class=""exp-image"">
                    <div class=""question-area"">
                        <p style=""font-size: 20px; font-weight: bold; margin: 0;"">Is there a person in this image?</p>
                    </div>
                </div>","1","main_experiment_trial","3","supermarket_scheme","schematic_sequence","","","","",""
"","","","","","html-keyboard-response","23","119009","0.0-23.0","9A86A88B229145CA9943EAA00F48703F","019cf715-2e7d-7979-9138-24923998e623","019cf6fe-235e-7d95-bb9b-b011d2fe188e","","null","
                <div class=""stimulus-container"">
                    <img src=""images/schematic_sequence/supermarket_scheme/supermarket_scheme_4.png"" class=""exp-image"">
                    <div class=""question-area""></div> 
                </div>","null","","","","","","","","",""
"","","","","","html-button-response","24","119883","0.0-24.0","9A86A88B229145CA9943EAA00F48703F","019cf715-2e7d-7979-9138-24923998e623","019cf6fe-235e-7d95-bb9b-b011d2fe188e","","873","
                <div class=""stimulus-container"">
                    <img src=""images/schematic_sequence/supermarket_scheme/supermarket_scheme_4.png"" class=""exp-image"">
                    <div class=""question-area"">
                        <p style=""font-size: 20px; font-weight: bold; margin: 0;"">Is there a person in this image?</p>
                    </div>
                </div>","0","main_experiment_trial","4","supermarket_scheme","schematic_sequence","","","","",""
"","","","","","html-keyboard-response","25","124892","0.0-25.0","9A86A88B229145CA9943EAA00F48703F","019cf715-2e7d-7979-9138-24923998e623","019cf6fe-235e-7d95-bb9b-b011d2fe188e","","null","
                <div class=""stimulus-container"">
                    <img src=""images/schematic_sequence/supermarket_scheme/supermarket_scheme_5.png"" class=""exp-image"">
                    <div class=""question-area""></div> 
                </div>","null","","","","","","","","",""
"","","","","","html-button-response","26","125454","0.0-26.0","9A86A88B229145CA9943EAA00F48703F","019cf715-2e7d-7979-9138-24923998e623","019cf6fe-235e-7d95-bb9b-b011d2fe188e","","561","
                <div class=""stimulus-container"">
                    <img src=""images/schematic_sequence/supermarket_scheme/supermarket_scheme_5.png"" class=""exp-image"">
                    <div class=""question-area"">
                        <p style=""font-size: 20px; font-weight: bold; margin: 0;"">Is there a person in this image?</p>
                    </div>
                </div>","1","main_experiment_trial","5","supermarket_scheme","schematic_sequence","","","","",""
"","","","","","html-keyboard-response","27","130456","0.0-27.0","9A86A88B229145CA9943EAA00F48703F","019cf715-2e7d-7979-9138-24923998e623","019cf6fe-235e-7d95-bb9b-b011d2fe188e","","null","
                <div class=""stimulus-container"">
                    <img src=""images/schematic_sequence/supermarket_scheme/supermarket_scheme_6.png"" class=""exp-image"">
                    <div class=""question-area""></div> 
                </div>","null","","","","","","","","",""
"","","","","","html-button-response","28","131166","0.0-28.0","9A86A88B229145CA9943EAA00F48703F","019cf715-2e7d-7979-9138-24923998e623","019cf6fe-235e-7d95-bb9b-b011d2fe188e","","708","
                <div class=""stimulus-container"">
                    <img src=""images/schematic_sequence/supermarket_scheme/supermarket_scheme_6.png"" class=""exp-image"">
                    <div class=""question-area"">
                        <p style=""font-size: 20px; font-weight: bold; margin: 0;"">Is there a person in this image?</p>
                    </div>
                </div>","0","main_experiment_trial","6","supermarket_scheme","schematic_sequence","","","","",""
"","","","","","html-keyboard-response","29","136174","0.0-29.0","9A86A88B229145CA9943EAA00F48703F","019cf715-2e7d-7979-9138-24923998e623","019cf6fe-235e-7d95-bb9b-b011d2fe188e","","null","
                <div class=""stimulus-container"">
                    <img src=""images/schematic_sequence/supermarket_scheme/supermarket_scheme_7.png"" class=""exp-image"">
                    <div class=""question-area""></div> 
                </div>","null","","","","","","","","",""
"","","","","","html-button-response","30","136696","0.0-30.0","9A86A88B229145CA9943EAA00F48703F","019cf715-2e7d-7979-9138-24923998e623","019cf6fe-235e-7d95-bb9b-b011d2fe188e","","521","
                <div class=""stimulus-container"">
                    <img src=""images/schematic_sequence/supermarket_scheme/supermarket_scheme_7.png"" class=""exp-image"">
                    <div class=""question-area"">
                        <p style=""font-size: 20px; font-weight: bold; margin: 0;"">Is there a person in this image?</p>
                    </div>
                </div>","0","main_experiment_trial","7","supermarket_scheme","schematic_sequence","","","","",""
"","","","","","html-keyboard-response","31","141706","0.0-31.0","9A86A88B229145CA9943EAA00F48703F","019cf715-2e7d-7979-9138-24923998e623","019cf6fe-235e-7d95-bb9b-b011d2fe188e","","null","
                <div class=""stimulus-container"">
                    <img src=""images/schematic_sequence/supermarket_scheme/supermarket_scheme_8.png"" class=""exp-image"">
                    <div class=""question-area""></div> 
                </div>","null","","","","","","","","",""
"","","","","","html-button-response","32","142349","0.0-32.0","9A86A88B229145CA9943EAA00F48703F","019cf715-2e7d-7979-9138-24923998e623","019cf6fe-235e-7d95-bb9b-b011d2fe188e","","642","
                <div class=""stimulus-container"">
                    <img src=""images/schematic_sequence/supermarket_scheme/supermarket_scheme_8.png"" class=""exp-image"">
                    <div class=""question-area"">
                        <p style=""font-size: 20px; font-weight: bold; margin: 0;"">Is there a person in this image?</p>
                    </div>
                </div>","0","main_experiment_trial","8","supermarket_scheme","schematic_sequence","","","","",""
"","","","","","html-keyboard-response","33","147363","0.0-33.0","9A86A88B229145CA9943EAA00F48703F","019cf715-2e7d-7979-9138-24923998e623","019cf6fe-235e-7d95-bb9b-b011d2fe188e","","null","
                <div class=""stimulus-container"">
                    <img src=""images/schematic_sequence/supermarket_scheme/supermarket_scheme_9.png"" class=""exp-image"">
                    <div class=""question-area""></div> 
                </div>","null","","","","","","","","",""
"","","","","","html-button-response","34","147931","0.0-34.0","9A86A88B229145CA9943EAA00F48703F","019cf715-2e7d-7979-9138-24923998e623","019cf6fe-235e-7d95-bb9b-b011d2fe188e","","566","
                <div class=""stimulus-container"">
                    <img src=""images/schematic_sequence/supermarket_scheme/supermarket_scheme_9.png"" class=""exp-image"">
                    <div class=""question-area"">
                        <p style=""font-size: 20px; font-weight: bold; margin: 0;"">Is there a person in this image?</p>
                    </div>
                </div>","0","main_experiment_trial","9","supermarket_scheme","schematic_sequence","","","","",""
"","","","","","html-keyboard-response","35","152932","0.0-35.0","9A86A88B229145CA9943EAA00F48703F","019cf715-2e7d-7979-9138-24923998e623","019cf6fe-235e-7d95-bb9b-b011d2fe188e","","null","
                <div class=""stimulus-container"">
                    <img src=""images/schematic_sequence/supermarket_scheme/supermarket_scheme_ten.png"" class=""exp-image"">
                    <div class=""question-area""></div> 
                </div>","null","","","","","","","","",""
"","","","","","html-button-response","36","153421","0.0-36.0","9A86A88B229145CA9943EAA00F48703F","019cf715-2e7d-7979-9138-24923998e623","019cf6fe-235e-7d95-bb9b-b011d2fe188e","","488","
                <div class=""stimulus-container"">
                    <img src=""images/schematic_sequence/supermarket_scheme/supermarket_scheme_ten.png"" class=""exp-image"">
                    <div class=""question-area"">
                        <p style=""font-size: 20px; font-weight: bold; margin: 0;"">Is there a person in this image?</p>
                    </div>
                </div>","1","main_experiment_trial","ten","supermarket_scheme","schematic_sequence","","","","",""
"","","","","","html-keyboard-response","37","154427","0.0-37.0","9A86A88B229145CA9943EAA00F48703F","019cf715-2e7d-7979-9138-24923998e623","019cf6fe-235e-7d95-bb9b-b011d2fe188e","","null","<div style=""background-color: white; width: 100vw; height: 100vh;""></div>","null","","","","","","","","",""
"","","","","","html-keyboard-response","38","159437","0.0-38.0","9A86A88B229145CA9943EAA00F48703F","019cf715-2e7d-7979-9138-24923998e623","019cf6fe-235e-7d95-bb9b-b011d2fe188e","","null","
                <div class=""stimulus-container"">
                    <img src=""images/causal_sequence/museum_causal/museum_causal_1.png"" class=""exp-image"">
                    <div class=""question-area""></div> 
                </div>","null","","","","","","","","",""
"","","","","","html-button-response","39","160002","0.0-39.0","9A86A88B229145CA9943EAA00F48703F","019cf715-2e7d-7979-9138-24923998e623","019cf6fe-235e-7d95-bb9b-b011d2fe188e","","563","
                <div class=""stimulus-container"">
                    <img src=""images/causal_sequence/museum_causal/museum_causal_1.png"" class=""exp-image"">
                    <div class=""question-area"">
                        <p style=""font-size: 20px; font-weight: bold; margin: 0;"">Is there a person in this image?</p>
                    </div>
                </div>","0","main_experiment_trial","1","museum_causal","causal_sequence","","","","",""
"","","","","","html-keyboard-response","40","165004","0.0-40.0","9A86A88B229145CA9943EAA00F48703F","019cf715-2e7d-7979-9138-24923998e623","019cf6fe-235e-7d95-bb9b-b011d2fe188e","","null","
                <div class=""stimulus-container"">
                    <img src=""images/causal_sequence/museum_causal/museum_causal_2.png"" class=""exp-image"">
                    <div class=""question-area""></div> 
                </div>","null","","","","","","","","",""
"","","","","","html-button-response","41","165623","0.0-41.0","9A86A88B229145CA9943EAA00F48703F","019cf715-2e7d-7979-9138-24923998e623","019cf6fe-235e-7d95-bb9b-b011d2fe188e","","618","
                <div class=""stimulus-container"">
                    <img src=""images/causal_sequence/museum_causal/museum_causal_2.png"" class=""exp-image"">
                    <div class=""question-area"">
                        <p style=""font-size: 20px; font-weight: bold; margin: 0;"">Is there a person in this image?</p>
                    </div>
                </div>","1","main_experiment_trial","2","museum_causal","causal_sequence","","","","",""
"","","","","","html-keyboard-response","42","170627","0.0-42.0","9A86A88B229145CA9943EAA00F48703F","019cf715-2e7d-7979-9138-24923998e623","019cf6fe-235e-7d95-bb9b-b011d2fe188e","","null","
                <div class=""stimulus-container"">
                    <img src=""images/causal_sequence/museum_causal/museum_causal_3.png"" class=""exp-image"">
                    <div class=""question-area""></div> 
                </div>","null","","","","","","","","",""
"","","","","","html-button-response","43","172471","0.0-43.0","9A86A88B229145CA9943EAA00F48703F","019cf715-2e7d-7979-9138-24923998e623","019cf6fe-235e-7d95-bb9b-b011d2fe188e","","1843","
                <div class=""stimulus-container"">
                    <img src=""images/causal_sequence/museum_causal/museum_causal_3.png"" class=""exp-image"">
                    <div class=""question-area"">
                        <p style=""font-size: 20px; font-weight: bold; margin: 0;"">Is there a person in this image?</p>
                    </div>
                </div>","0","main_experiment_trial","3","museum_causal","causal_sequence","","","","",""
"","","","","","html-keyboard-response","44","177484","0.0-44.0","9A86A88B229145CA9943EAA00F48703F","019cf715-2e7d-7979-9138-24923998e623","019cf6fe-235e-7d95-bb9b-b011d2fe188e","","null","
                <div class=""stimulus-container"">
                    <img src=""images/causal_sequence/museum_causal/museum_causal_4.png"" class=""exp-image"">
                    <div class=""question-area""></div> 
                </div>","null","","","","","","","","",""
"","","","","","html-button-response","45","178127","0.0-45.0","9A86A88B229145CA9943EAA00F48703F","019cf715-2e7d-7979-9138-24923998e623","019cf6fe-235e-7d95-bb9b-b011d2fe188e","","641","
                <div class=""stimulus-container"">
                    <img src=""images/causal_sequence/museum_causal/museum_causal_4.png"" class=""exp-image"">
                    <div class=""question-area"">
                        <p style=""font-size: 20px; font-weight: bold; margin: 0;"">Is there a person in this image?</p>
                    </div>
                </div>","1","main_experiment_trial","4","museum_causal","causal_sequence","","","","",""
"","","","","","html-keyboard-response","46","183134","0.0-46.0","9A86A88B229145CA9943EAA00F48703F","019cf715-2e7d-7979-9138-24923998e623","019cf6fe-235e-7d95-bb9b-b011d2fe188e","","null","
                <div class=""stimulus-container"">
                    <img src=""images/causal_sequence/museum_causal/museum_causal_5.png"" class=""exp-image"">
                    <div class=""question-area""></div> 
                </div>","null","","","","","","","","",""
"","","","","","html-button-response","47","183670","0.0-47.0","9A86A88B229145CA9943EAA00F48703F","019cf715-2e7d-7979-9138-24923998e623","019cf6fe-235e-7d95-bb9b-b011d2fe188e","","535","
                <div class=""stimulus-container"">
                    <img src=""images/causal_sequence/museum_causal/museum_causal_5.png"" class=""exp-image"">
                    <div class=""question-area"">
                        <p style=""font-size: 20px; font-weight: bold; margin: 0;"">Is there a person in this image?</p>
                    </div>
                </div>","0","main_experiment_trial","5","museum_causal","causal_sequence","","","","",""
"","","","","","html-keyboard-response","48","188671","0.0-48.0","9A86A88B229145CA9943EAA00F48703F","019cf715-2e7d-7979-9138-24923998e623","019cf6fe-235e-7d95-bb9b-b011d2fe188e","","null","
                <div class=""stimulus-container"">
                    <img src=""images/causal_sequence/museum_causal/museum_causal_6.png"" class=""exp-image"">
                    <div class=""question-area""></div> 
                </div>","null","","","","","","","","",""
"","","","","","html-button-response","49","190254","0.0-49.0","9A86A88B229145CA9943EAA00F48703F","019cf715-2e7d-7979-9138-24923998e623","019cf6fe-235e-7d95-bb9b-b011d2fe188e","","1582","
                <div class=""stimulus-container"">
                    <img src=""images/causal_sequence/museum_causal/museum_causal_6.png"" class=""exp-image"">
                    <div class=""question-area"">
                        <p style=""font-size: 20px; font-weight: bold; margin: 0;"">Is there a person in this image?</p>
                    </div>
                </div>","0","main_experiment_trial","6","museum_causal","causal_sequence","","","","",""
"","","","","","html-keyboard-response","50","195265","0.0-50.0","9A86A88B229145CA9943EAA00F48703F","019cf715-2e7d-7979-9138-24923998e623","019cf6fe-235e-7d95-bb9b-b011d2fe188e","","null","
                <div class=""stimulus-container"">
                    <img src=""images/causal_sequence/museum_causal/museum_causal_7.png"" class=""exp-image"">
                    <div class=""question-area""></div> 
                </div>","null","","","","","","","","",""
"","","","","","html-button-response","51","195801","0.0-51.0","9A86A88B229145CA9943EAA00F48703F","019cf715-2e7d-7979-9138-24923998e623","019cf6fe-235e-7d95-bb9b-b011d2fe188e","","535","
                <div class=""stimulus-container"">
                    <img src=""images/causal_sequence/museum_causal/museum_causal_7.png"" class=""exp-image"">
                    <div class=""question-area"">
                        <p style=""font-size: 20px; font-weight: bold; margin: 0;"">Is there a person in this image?</p>
                    </div>
                </div>","1","main_experiment_trial","7","museum_causal","causal_sequence","","","","",""
"","","","","","html-keyboard-response","52","200814","0.0-52.0","9A86A88B229145CA9943EAA00F48703F","019cf715-2e7d-7979-9138-24923998e623","019cf6fe-235e-7d95-bb9b-b011d2fe188e","","null","
                <div class=""stimulus-container"">
                    <img src=""images/causal_sequence/museum_causal/museum_causal_8.png"" class=""exp-image"">
                    <div class=""question-area""></div> 
                </div>","null","","","","","","","","",""
"","","","","","html-button-response","53","201334","0.0-53.0","9A86A88B229145CA9943EAA00F48703F","019cf715-2e7d-7979-9138-24923998e623","019cf6fe-235e-7d95-bb9b-b011d2fe188e","","520","
                <div class=""stimulus-container"">
                    <img src=""images/causal_sequence/museum_causal/museum_causal_8.png"" class=""exp-image"">
                    <div class=""question-area"">
                        <p style=""font-size: 20px; font-weight: bold; margin: 0;"">Is there a person in this image?</p>
                    </div>
                </div>","0","main_experiment_trial","8","museum_causal","causal_sequence","","","","",""
"","","","","","html-keyboard-response","54","206347","0.0-54.0","9A86A88B229145CA9943EAA00F48703F","019cf715-2e7d-7979-9138-24923998e623","019cf6fe-235e-7d95-bb9b-b011d2fe188e","","null","
                <div class=""stimulus-container"">
                    <img src=""images/causal_sequence/museum_causal/museum_causal_9.png"" class=""exp-image"">
                    <div class=""question-area""></div> 
                </div>","null","","","","","","","","",""
"","","","","","html-button-response","55","207100","0.0-55.0","9A86A88B229145CA9943EAA00F48703F","019cf715-2e7d-7979-9138-24923998e623","019cf6fe-235e-7d95-bb9b-b011d2fe188e","","752","
                <div class=""stimulus-container"">
                    <img src=""images/causal_sequence/museum_causal/museum_causal_9.png"" class=""exp-image"">
                    <div class=""question-area"">
                        <p style=""font-size: 20px; font-weight: bold; margin: 0;"">Is there a person in this image?</p>
                    </div>
                </div>","1","main_experiment_trial","9","museum_causal","causal_sequence","","","","",""
"","","","","","html-keyboard-response","56","212104","0.0-56.0","9A86A88B229145CA9943EAA00F48703F","019cf715-2e7d-7979-9138-24923998e623","019cf6fe-235e-7d95-bb9b-b011d2fe188e","","null","
                <div class=""stimulus-container"">
                    <img src=""images/causal_sequence/museum_causal/museum_causal_ten.png"" class=""exp-image"">
                    <div class=""question-area""></div> 
                </div>","null","","","","","","","","",""
"","","","","","html-button-response","57","212703","0.0-57.0","9A86A88B229145CA9943EAA00F48703F","019cf715-2e7d-7979-9138-24923998e623","019cf6fe-235e-7d95-bb9b-b011d2fe188e","","598","
                <div class=""stimulus-container"">
                    <img src=""images/causal_sequence/museum_causal/museum_causal_ten.png"" class=""exp-image"">
                    <div class=""question-area"">
                        <p style=""font-size: 20px; font-weight: bold; margin: 0;"">Is there a person in this image?</p>
                    </div>
                </div>","0","main_experiment_trial","ten","museum_causal","causal_sequence","","","","",""
"","","","","","html-keyboard-response","58","213707","0.0-58.0","9A86A88B229145CA9943EAA00F48703F","019cf715-2e7d-7979-9138-24923998e623","019cf6fe-235e-7d95-bb9b-b011d2fe188e","","null","<div style=""background-color: white; width: 100vw; height: 100vh;""></div>","null","","","","","","","","",""
"","","","","","html-keyboard-response","59","218711","0.0-59.0","9A86A88B229145CA9943EAA00F48703F","019cf715-2e7d-7979-9138-24923998e623","019cf6fe-235e-7d95-bb9b-b011d2fe188e","","null","
                <div class=""stimulus-container"">
                    <img src=""images/causal_sequence/dog_causal/dog_causal_1.png"" class=""exp-image"">
                    <div class=""question-area""></div> 
                </div>","null","","","","","","","","",""
"","","","","","html-button-response","60","219806","0.0-60.0","9A86A88B229145CA9943EAA00F48703F","019cf715-2e7d-7979-9138-24923998e623","019cf6fe-235e-7d95-bb9b-b011d2fe188e","","1094","
                <div class=""stimulus-container"">
                    <img src=""images/causal_sequence/dog_causal/dog_causal_1.png"" class=""exp-image"">
                    <div class=""question-area"">
                        <p style=""font-size: 20px; font-weight: bold; margin: 0;"">Is there a person in this image?</p>
                    </div>
                </div>","0","main_experiment_trial","1","dog_causal","causal_sequence","","","","",""
"","","","","","html-keyboard-response","61","224812","0.0-61.0","9A86A88B229145CA9943EAA00F48703F","019cf715-2e7d-7979-9138-24923998e623","019cf6fe-235e-7d95-bb9b-b011d2fe188e","","null","
                <div class=""stimulus-container"">
                    <img src=""images/causal_sequence/dog_causal/dog_causal_2.png"" class=""exp-image"">
                    <div class=""question-area""></div> 
                </div>","null","","","","","","","","",""
"","","","","","html-button-response","62","225453","0.0-62.0","9A86A88B229145CA9943EAA00F48703F","019cf715-2e7d-7979-9138-24923998e623","019cf6fe-235e-7d95-bb9b-b011d2fe188e","","640","
                <div class=""stimulus-container"">
                    <img src=""images/causal_sequence/dog_causal/dog_causal_2.png"" class=""exp-image"">
                    <div class=""question-area"">
                        <p style=""font-size: 20px; font-weight: bold; margin: 0;"">Is there a person in this image?</p>
                    </div>
                </div>","0","main_experiment_trial","2","dog_causal","causal_sequence","","","","",""
"","","","","","html-keyboard-response","63","230461","0.0-63.0","9A86A88B229145CA9943EAA00F48703F","019cf715-2e7d-7979-9138-24923998e623","019cf6fe-235e-7d95-bb9b-b011d2fe188e","","null","
                <div class=""stimulus-container"">
                    <img src=""images/causal_sequence/dog_causal/dog_causal_3.png"" class=""exp-image"">
                    <div class=""question-area""></div> 
                </div>","null","","","","","","","","",""
"","","","","","html-button-response","64","230967","0.0-64.0","9A86A88B229145CA9943EAA00F48703F","019cf715-2e7d-7979-9138-24923998e623","019cf6fe-235e-7d95-bb9b-b011d2fe188e","","505","
                <div class=""stimulus-container"">
                    <img src=""images/causal_sequence/dog_causal/dog_causal_3.png"" class=""exp-image"">
                    <div class=""question-area"">
                        <p style=""font-size: 20px; font-weight: bold; margin: 0;"">Is there a person in this image?</p>
                    </div>
                </div>","0","main_experiment_trial","3","dog_causal","causal_sequence","","","","",""
"","","","","","html-keyboard-response","65","235978","0.0-65.0","9A86A88B229145CA9943EAA00F48703F","019cf715-2e7d-7979-9138-24923998e623","019cf6fe-235e-7d95-bb9b-b011d2fe188e","","null","
                <div class=""stimulus-container"">
                    <img src=""images/causal_sequence/dog_causal/dog_causal_4.png"" class=""exp-image"">
                    <div class=""question-area""></div> 
                </div>","null","","","","","","","","",""
"","","","","","html-button-response","66","236517","0.0-66.0","9A86A88B229145CA9943EAA00F48703F","019cf715-2e7d-7979-9138-24923998e623","019cf6fe-235e-7d95-bb9b-b011d2fe188e","","539","
                <div class=""stimulus-container"">
                    <img src=""images/causal_sequence/dog_causal/dog_causal_4.png"" class=""exp-image"">
                    <div class=""question-area"">
                        <p style=""font-size: 20px; font-weight: bold; margin: 0;"">Is there a person in this image?</p>
                    </div>
                </div>","0","main_experiment_trial","4","dog_causal","causal_sequence","","","","",""
"","","","","","html-keyboard-response","67","241529","0.0-67.0","9A86A88B229145CA9943EAA00F48703F","019cf715-2e7d-7979-9138-24923998e623","019cf6fe-235e-7d95-bb9b-b011d2fe188e","","null","
                <div class=""stimulus-container"">
                    <img src=""images/causal_sequence/dog_causal/dog_causal_5.png"" class=""exp-image"">
                    <div class=""question-area""></div> 
                </div>","null","","","","","","","","",""
"","","","","","html-button-response","68","242022","0.0-68.0","9A86A88B229145CA9943EAA00F48703F","019cf715-2e7d-7979-9138-24923998e623","019cf6fe-235e-7d95-bb9b-b011d2fe188e","","491","
                <div class=""stimulus-container"">
                    <img src=""images/causal_sequence/dog_causal/dog_causal_5.png"" class=""exp-image"">
                    <div class=""question-area"">
                        <p style=""font-size: 20px; font-weight: bold; margin: 0;"">Is there a person in this image?</p>
                    </div>
                </div>","0","main_experiment_trial","5","dog_causal","causal_sequence","","","","",""
"","","","","","html-keyboard-response","69","247030","0.0-69.0","9A86A88B229145CA9943EAA00F48703F","019cf715-2e7d-7979-9138-24923998e623","019cf6fe-235e-7d95-bb9b-b011d2fe188e","","null","
                <div class=""stimulus-container"">
                    <img src=""images/causal_sequence/dog_causal/dog_causal_6.png"" class=""exp-image"">
                    <div class=""question-area""></div> 
                </div>","null","","","","","","","","",""
"","","","","","html-button-response","70","247579","0.0-70.0","9A86A88B229145CA9943EAA00F48703F","019cf715-2e7d-7979-9138-24923998e623","019cf6fe-235e-7d95-bb9b-b011d2fe188e","","549","
                <div class=""stimulus-container"">
                    <img src=""images/causal_sequence/dog_causal/dog_causal_6.png"" class=""exp-image"">
                    <div class=""question-area"">
                        <p style=""font-size: 20px; font-weight: bold; margin: 0;"">Is there a person in this image?</p>
                    </div>
                </div>","0","main_experiment_trial","6","dog_causal","causal_sequence","","","","",""
"","","","","","html-keyboard-response","71","252591","0.0-71.0","9A86A88B229145CA9943EAA00F48703F","019cf715-2e7d-7979-9138-24923998e623","019cf6fe-235e-7d95-bb9b-b011d2fe188e","","null","
                <div class=""stimulus-container"">
                    <img src=""images/causal_sequence/dog_causal/dog_causal_7.png"" class=""exp-image"">
                    <div class=""question-area""></div> 
                </div>","null","","","","","","","","",""
"","","","","","html-button-response","72","253198","0.0-72.0","9A86A88B229145CA9943EAA00F48703F","019cf715-2e7d-7979-9138-24923998e623","019cf6fe-235e-7d95-bb9b-b011d2fe188e","","606","
                <div class=""stimulus-container"">
                    <img src=""images/causal_sequence/dog_causal/dog_causal_7.png"" class=""exp-image"">
                    <div class=""question-area"">
                        <p style=""font-size: 20px; font-weight: bold; margin: 0;"">Is there a person in this image?</p>
                    </div>
                </div>","0","main_experiment_trial","7","dog_causal","causal_sequence","","","","",""
"","","","","","html-keyboard-response","73","258204","0.0-73.0","9A86A88B229145CA9943EAA00F48703F","019cf715-2e7d-7979-9138-24923998e623","019cf6fe-235e-7d95-bb9b-b011d2fe188e","","null","
                <div class=""stimulus-container"">
                    <img src=""images/causal_sequence/dog_causal/dog_causal_8.png"" class=""exp-image"">
                    <div class=""question-area""></div> 
                </div>","null","","","","","","","","",""
"","","","","","html-button-response","74","259297","0.0-74.0","9A86A88B229145CA9943EAA00F48703F","019cf715-2e7d-7979-9138-24923998e623","019cf6fe-235e-7d95-bb9b-b011d2fe188e","","1093","
                <div class=""stimulus-container"">
                    <img src=""images/causal_sequence/dog_causal/dog_causal_8.png"" class=""exp-image"">
                    <div class=""question-area"">
                        <p style=""font-size: 20px; font-weight: bold; margin: 0;"">Is there a person in this image?</p>
                    </div>
                </div>","0","main_experiment_trial","8","dog_causal","causal_sequence","","","","",""
"","","","","","html-keyboard-response","75","264305","0.0-75.0","9A86A88B229145CA9943EAA00F48703F","019cf715-2e7d-7979-9138-24923998e623","019cf6fe-235e-7d95-bb9b-b011d2fe188e","","null","
                <div class=""stimulus-container"">
                    <img src=""images/causal_sequence/dog_causal/dog_causal_9.png"" class=""exp-image"">
                    <div class=""question-area""></div> 
                </div>","null","","","","","","","","",""
"","","","","","html-button-response","76","265720","0.0-76.0","9A86A88B229145CA9943EAA00F48703F","019cf715-2e7d-7979-9138-24923998e623","019cf6fe-235e-7d95-bb9b-b011d2fe188e","","1415","
                <div class=""stimulus-container"">
                    <img src=""images/causal_sequence/dog_causal/dog_causal_9.png"" class=""exp-image"">
                    <div class=""question-area"">
                        <p style=""font-size: 20px; font-weight: bold; margin: 0;"">Is there a person in this image?</p>
                    </div>
                </div>","0","main_experiment_trial","9","dog_causal","causal_sequence","","","","",""
"","","","","","html-keyboard-response","77","270737","0.0-77.0","9A86A88B229145CA9943EAA00F48703F","019cf715-2e7d-7979-9138-24923998e623","019cf6fe-235e-7d95-bb9b-b011d2fe188e","","null","
                <div class=""stimulus-container"">
                    <img src=""images/causal_sequence/dog_causal/dog_causal_ten.png"" class=""exp-image"">
                    <div class=""question-area""></div> 
                </div>","null","","","","","","","","",""
"","","","","","html-button-response","78","271350","0.0-78.0","9A86A88B229145CA9943EAA00F48703F","019cf715-2e7d-7979-9138-24923998e623","019cf6fe-235e-7d95-bb9b-b011d2fe188e","","613","
                <div class=""stimulus-container"">
                    <img src=""images/causal_sequence/dog_causal/dog_causal_ten.png"" class=""exp-image"">
                    <div class=""question-area"">
                        <p style=""font-size: 20px; font-weight: bold; margin: 0;"">Is there a person in this image?</p>
                    </div>
                </div>","0","main_experiment_trial","ten","dog_causal","causal_sequence","","","","",""
"","","","","","html-keyboard-response","79","272359","0.0-79.0","9A86A88B229145CA9943EAA00F48703F","019cf715-2e7d-7979-9138-24923998e623","019cf6fe-235e-7d95-bb9b-b011d2fe188e","","null","<div style=""background-color: white; width: 100vw; height: 100vh;""></div>","null","","","","","","","","",""
"","","","","","html-keyboard-response","80","277360","0.0-80.0","9A86A88B229145CA9943EAA00F48703F","019cf715-2e7d-7979-9138-24923998e623","019cf6fe-235e-7d95-bb9b-b011d2fe188e","","null","
                <div class=""stimulus-container"">
                    <img src=""images/causal_sequence/the_performance_causal/the_performance_causal_1.png"" class=""exp-image"">
                    <div class=""question-area""></div> 
                </div>","null","","","","","","","","",""
"","","","","","html-button-response","81","278145","0.0-81.0","9A86A88B229145CA9943EAA00F48703F","019cf715-2e7d-7979-9138-24923998e623","019cf6fe-235e-7d95-bb9b-b011d2fe188e","","783","
                <div class=""stimulus-container"">
                    <img src=""images/causal_sequence/the_performance_causal/the_performance_causal_1.png"" class=""exp-image"">
                    <div class=""question-area"">
                        <p style=""font-size: 20px; font-weight: bold; margin: 0;"">Is there a person in this image?</p>
                    </div>
                </div>","0","main_experiment_trial","1","the_performance_causal","causal_sequence","","","","",""
"","","","","","html-keyboard-response","82","283153","0.0-82.0","9A86A88B229145CA9943EAA00F48703F","019cf715-2e7d-7979-9138-24923998e623","019cf6fe-235e-7d95-bb9b-b011d2fe188e","","null","
                <div class=""stimulus-container"">
                    <img src=""images/causal_sequence/the_performance_causal/the_performance_causal_2.png"" class=""exp-image"">
                    <div class=""question-area""></div> 
                </div>","null","","","","","","","","",""
"","","","","","html-button-response","83","283968","0.0-83.0","9A86A88B229145CA9943EAA00F48703F","019cf715-2e7d-7979-9138-24923998e623","019cf6fe-235e-7d95-bb9b-b011d2fe188e","","815","
                <div class=""stimulus-container"">
                    <img src=""images/causal_sequence/the_performance_causal/the_performance_causal_2.png"" class=""exp-image"">
                    <div class=""question-area"">
                        <p style=""font-size: 20px; font-weight: bold; margin: 0;"">Is there a person in this image?</p>
                    </div>
                </div>","0","main_experiment_trial","2","the_performance_causal","causal_sequence","","","","",""
"","","","","","html-keyboard-response","84","288970","0.0-84.0","9A86A88B229145CA9943EAA00F48703F","019cf715-2e7d-7979-9138-24923998e623","019cf6fe-235e-7d95-bb9b-b011d2fe188e","","null","
                <div class=""stimulus-container"">
                    <img src=""images/causal_sequence/the_performance_causal/the_performance_causal_3.png"" class=""exp-image"">
                    <div class=""question-area""></div> 
                </div>","null","","","","","","","","",""
"","","","","","html-button-response","85","289576","0.0-85.0","9A86A88B229145CA9943EAA00F48703F","019cf715-2e7d-7979-9138-24923998e623","019cf6fe-235e-7d95-bb9b-b011d2fe188e","","605","
                <div class=""stimulus-container"">
                    <img src=""images/causal_sequence/the_performance_causal/the_performance_causal_3.png"" class=""exp-image"">
                    <div class=""question-area"">
                        <p style=""font-size: 20px; font-weight: bold; margin: 0;"">Is there a person in this image?</p>
                    </div>
                </div>","0","main_experiment_trial","3","the_performance_causal","causal_sequence","","","","",""
"","","","","","html-keyboard-response","86","294591","0.0-86.0","9A86A88B229145CA9943EAA00F48703F","019cf715-2e7d-7979-9138-24923998e623","019cf6fe-235e-7d95-bb9b-b011d2fe188e","","null","
                <div class=""stimulus-container"">
                    <img src=""images/causal_sequence/the_performance_causal/the_performance_causal_4.png"" class=""exp-image"">
                    <div class=""question-area""></div> 
                </div>","null","","","","","","","","",""
"","","","","","html-button-response","87","295982","0.0-87.0","9A86A88B229145CA9943EAA00F48703F","019cf715-2e7d-7979-9138-24923998e623","019cf6fe-235e-7d95-bb9b-b011d2fe188e","","1391","
                <div class=""stimulus-container"">
                    <img src=""images/causal_sequence/the_performance_causal/the_performance_causal_4.png"" class=""exp-image"">
                    <div class=""question-area"">
                        <p style=""font-size: 20px; font-weight: bold; margin: 0;"">Is there a person in this image?</p>
                    </div>
                </div>","0","main_experiment_trial","4","the_performance_causal","causal_sequence","","","","",""
"","","","","","html-keyboard-response","88","300985","0.0-88.0","9A86A88B229145CA9943EAA00F48703F","019cf715-2e7d-7979-9138-24923998e623","019cf6fe-235e-7d95-bb9b-b011d2fe188e","","null","
                <div class=""stimulus-container"">
                    <img src=""images/causal_sequence/the_performance_causal/the_performance_causal_5.png"" class=""exp-image"">
                    <div class=""question-area""></div> 
                </div>","null","","","","","","","","",""
"","","","","","html-button-response","89","301498","0.0-89.0","9A86A88B229145CA9943EAA00F48703F","019cf715-2e7d-7979-9138-24923998e623","019cf6fe-235e-7d95-bb9b-b011d2fe188e","","513","
                <div class=""stimulus-container"">
                    <img src=""images/causal_sequence/the_performance_causal/the_performance_causal_5.png"" class=""exp-image"">
                    <div class=""question-area"">
                        <p style=""font-size: 20px; font-weight: bold; margin: 0;"">Is there a person in this image?</p>
                    </div>
                </div>","0","main_experiment_trial","5","the_performance_causal","causal_sequence","","","","",""
"","","","","","html-keyboard-response","90","306500","0.0-90.0","9A86A88B229145CA9943EAA00F48703F","019cf715-2e7d-7979-9138-24923998e623","019cf6fe-235e-7d95-bb9b-b011d2fe188e","","null","
                <div class=""stimulus-container"">
                    <img src=""images/causal_sequence/the_performance_causal/the_performance_causal_6.png"" class=""exp-image"">
                    <div class=""question-area""></div> 
                </div>","null","","","","","","","","",""
"","","","","","html-button-response","91","307200","0.0-91.0","9A86A88B229145CA9943EAA00F48703F","019cf715-2e7d-7979-9138-24923998e623","019cf6fe-235e-7d95-bb9b-b011d2fe188e","","699","
                <div class=""stimulus-container"">
                    <img src=""images/causal_sequence/the_performance_causal/the_performance_causal_6.png"" class=""exp-image"">
                    <div class=""question-area"">
                        <p style=""font-size: 20px; font-weight: bold; margin: 0;"">Is there a person in this image?</p>
                    </div>
                </div>","0","main_experiment_trial","6","the_performance_causal","causal_sequence","","","","",""
"","","","","","html-keyboard-response","92","312208","0.0-92.0","9A86A88B229145CA9943EAA00F48703F","019cf715-2e7d-7979-9138-24923998e623","019cf6fe-235e-7d95-bb9b-b011d2fe188e","","null","
                <div class=""stimulus-container"">
                    <img src=""images/causal_sequence/the_performance_causal/the_performance_causal_7.png"" class=""exp-image"">
                    <div class=""question-area""></div> 
                </div>","null","","","","","","","","",""
"","","","","","html-button-response","93","313868","0.0-93.0","9A86A88B229145CA9943EAA00F48703F","019cf715-2e7d-7979-9138-24923998e623","019cf6fe-235e-7d95-bb9b-b011d2fe188e","","1660","
                <div class=""stimulus-container"">
                    <img src=""images/causal_sequence/the_performance_causal/the_performance_causal_7.png"" class=""exp-image"">
                    <div class=""question-area"">
                        <p style=""font-size: 20px; font-weight: bold; margin: 0;"">Is there a person in this image?</p>
                    </div>
                </div>","0","main_experiment_trial","7","the_performance_causal","causal_sequence","","","","",""
"","","","","","html-keyboard-response","94","318881","0.0-94.0","9A86A88B229145CA9943EAA00F48703F","019cf715-2e7d-7979-9138-24923998e623","019cf6fe-235e-7d95-bb9b-b011d2fe188e","","null","
                <div class=""stimulus-container"">
                    <img src=""images/causal_sequence/the_performance_causal/the_performance_causal_8.png"" class=""exp-image"">
                    <div class=""question-area""></div> 
                </div>","null","","","","","","","","",""
"","","","","","html-button-response","95","320147","0.0-95.0","9A86A88B229145CA9943EAA00F48703F","019cf715-2e7d-7979-9138-24923998e623","019cf6fe-235e-7d95-bb9b-b011d2fe188e","","1265","
                <div class=""stimulus-container"">
                    <img src=""images/causal_sequence/the_performance_causal/the_performance_causal_8.png"" class=""exp-image"">
                    <div class=""question-area"">
                        <p style=""font-size: 20px; font-weight: bold; margin: 0;"">Is there a person in this image?</p>
                    </div>
                </div>","0","main_experiment_trial","8","the_performance_causal","causal_sequence","","","","",""
"","","","","","html-keyboard-response","96","325151","0.0-96.0","9A86A88B229145CA9943EAA00F48703F","019cf715-2e7d-7979-9138-24923998e623","019cf6fe-235e-7d95-bb9b-b011d2fe188e","","null","
                <div class=""stimulus-container"">
                    <img src=""images/causal_sequence/the_performance_causal/the_performance_causal_9.png"" class=""exp-image"">
                    <div class=""question-area""></div> 
                </div>","null","","","","","","","","",""
"","","","","","html-button-response","97","325821","0.0-97.0","9A86A88B229145CA9943EAA00F48703F","019cf715-2e7d-7979-9138-24923998e623","019cf6fe-235e-7d95-bb9b-b011d2fe188e","","670","
                <div class=""stimulus-container"">
                    <img src=""images/causal_sequence/the_performance_causal/the_performance_causal_9.png"" class=""exp-image"">
                    <div class=""question-area"">
                        <p style=""font-size: 20px; font-weight: bold; margin: 0;"">Is there a person in this image?</p>
                    </div>
                </div>","0","main_experiment_trial","9","the_performance_causal","causal_sequence","","","","",""
"","","","","","html-keyboard-response","98","330831","0.0-98.0","9A86A88B229145CA9943EAA00F48703F","019cf715-2e7d-7979-9138-24923998e623","019cf6fe-235e-7d95-bb9b-b011d2fe188e","","null","
                <div class=""stimulus-container"">
                    <img src=""images/causal_sequence/the_performance_causal/the_performance_causal_ten.png"" class=""exp-image"">
                    <div class=""question-area""></div> 
                </div>","null","","","","","","","","",""
"","","","","","html-button-response","99","331459","0.0-99.0","9A86A88B229145CA9943EAA00F48703F","019cf715-2e7d-7979-9138-24923998e623","019cf6fe-235e-7d95-bb9b-b011d2fe188e","","627","
                <div class=""stimulus-container"">
                    <img src=""images/causal_sequence/the_performance_causal/the_performance_causal_ten.png"" class=""exp-image"">
                    <div class=""question-area"">
                        <p style=""font-size: 20px; font-weight: bold; margin: 0;"">Is there a person in this image?</p>
                    </div>
                </div>","0","main_experiment_trial","ten","the_performance_causal","causal_sequence","","","","",""
"","","","","","html-keyboard-response","100","332469","0.0-100.0","9A86A88B229145CA9943EAA00F48703F","019cf715-2e7d-7979-9138-24923998e623","019cf6fe-235e-7d95-bb9b-b011d2fe188e","","null","<div style=""background-color: white; width: 100vw; height: 100vh;""></div>","null","","","","","","","","",""
"","","","","","html-keyboard-response","101","337470","0.0-101.0","9A86A88B229145CA9943EAA00F48703F","019cf715-2e7d-7979-9138-24923998e623","019cf6fe-235e-7d95-bb9b-b011d2fe188e","","null","
                <div class=""stimulus-container"">
                    <img src=""images/causal_sequence/package_causal/package_causal_1.png"" class=""exp-image"">
                    <div class=""question-area""></div> 
                </div>","null","","","","","","","","",""
"","","","","","html-button-response","102","338124","0.0-102.0","9A86A88B229145CA9943EAA00F48703F","019cf715-2e7d-7979-9138-24923998e623","019cf6fe-235e-7d95-bb9b-b011d2fe188e","","653","
                <div class=""stimulus-container"">
                    <img src=""images/causal_sequence/package_causal/package_causal_1.png"" class=""exp-image"">
                    <div class=""question-area"">
                        <p style=""font-size: 20px; font-weight: bold; margin: 0;"">Is there a person in this image?</p>
                    </div>
                </div>","0","main_experiment_trial","1","package_causal","causal_sequence","","","","",""
"","","","","","html-keyboard-response","103","343134","0.0-103.0","9A86A88B229145CA9943EAA00F48703F","019cf715-2e7d-7979-9138-24923998e623","019cf6fe-235e-7d95-bb9b-b011d2fe188e","","null","
                <div class=""stimulus-container"">
                    <img src=""images/causal_sequence/package_causal/package_causal_2.png"" class=""exp-image"">
                    <div class=""question-area""></div> 
                </div>","null","","","","","","","","",""
"","","","","","html-button-response","104","345711","0.0-104.0","9A86A88B229145CA9943EAA00F48703F","019cf715-2e7d-7979-9138-24923998e623","019cf6fe-235e-7d95-bb9b-b011d2fe188e","","2576","
                <div class=""stimulus-container"">
                    <img src=""images/causal_sequence/package_causal/package_causal_2.png"" class=""exp-image"">
                    <div class=""question-area"">
                        <p style=""font-size: 20px; font-weight: bold; margin: 0;"">Is there a person in this image?</p>
                    </div>
                </div>","0","main_experiment_trial","2","package_causal","causal_sequence","","","","",""
"","","","","","html-keyboard-response","105","350712","0.0-105.0","9A86A88B229145CA9943EAA00F48703F","019cf715-2e7d-7979-9138-24923998e623","019cf6fe-235e-7d95-bb9b-b011d2fe188e","","null","
                <div class=""stimulus-container"">
                    <img src=""images/causal_sequence/package_causal/package_causal_3.png"" class=""exp-image"">
                    <div class=""question-area""></div> 
                </div>","null","","","","","","","","",""
"","","","","","html-button-response","106","351304","0.0-106.0","9A86A88B229145CA9943EAA00F48703F","019cf715-2e7d-7979-9138-24923998e623","019cf6fe-235e-7d95-bb9b-b011d2fe188e","","591","
                <div class=""stimulus-container"">
                    <img src=""images/causal_sequence/package_causal/package_causal_3.png"" class=""exp-image"">
                    <div class=""question-area"">
                        <p style=""font-size: 20px; font-weight: bold; margin: 0;"">Is there a person in this image?</p>
                    </div>
                </div>","0","main_experiment_trial","3","package_causal","causal_sequence","","","","",""
"","","","","","html-keyboard-response","107","356319","0.0-107.0","9A86A88B229145CA9943EAA00F48703F","019cf715-2e7d-7979-9138-24923998e623","019cf6fe-235e-7d95-bb9b-b011d2fe188e","","null","
                <div class=""stimulus-container"">
                    <img src=""images/causal_sequence/package_causal/package_causal_4.png"" class=""exp-image"">
                    <div class=""question-area""></div> 
                </div>","null","","","","","","","","",""
"","","","","","html-button-response","108","358416","0.0-108.0","9A86A88B229145CA9943EAA00F48703F","019cf715-2e7d-7979-9138-24923998e623","019cf6fe-235e-7d95-bb9b-b011d2fe188e","","2096","
                <div class=""stimulus-container"">
                    <img src=""images/causal_sequence/package_causal/package_causal_4.png"" class=""exp-image"">
                    <div class=""question-area"">
                        <p style=""font-size: 20px; font-weight: bold; margin: 0;"">Is there a person in this image?</p>
                    </div>
                </div>","1","main_experiment_trial","4","package_causal","causal_sequence","","","","",""
"","","","","","html-keyboard-response","109","363427","0.0-109.0","9A86A88B229145CA9943EAA00F48703F","019cf715-2e7d-7979-9138-24923998e623","019cf6fe-235e-7d95-bb9b-b011d2fe188e","","null","
                <div class=""stimulus-container"">
                    <img src=""images/causal_sequence/package_causal/package_causal_5.png"" class=""exp-image"">
                    <div class=""question-area""></div> 
                </div>","null","","","","","","","","",""
"","","","","","html-button-response","110","366439","0.0-110.0","9A86A88B229145CA9943EAA00F48703F","019cf715-2e7d-7979-9138-24923998e623","019cf6fe-235e-7d95-bb9b-b011d2fe188e","","null","
                <div class=""stimulus-container"">
                    <img src=""images/causal_sequence/package_causal/package_causal_5.png"" class=""exp-image"">
                    <div class=""question-area"">
                        <p style=""font-size: 20px; font-weight: bold; margin: 0;"">Is there a person in this image?</p>
                    </div>
                </div>","null","main_experiment_trial","5","package_causal","causal_sequence","","","","",""
"","","","","","html-keyboard-response","111","371440","0.0-111.0","9A86A88B229145CA9943EAA00F48703F","019cf715-2e7d-7979-9138-24923998e623","019cf6fe-235e-7d95-bb9b-b011d2fe188e","","null","
                <div class=""stimulus-container"">
                    <img src=""images/causal_sequence/package_causal/package_causal_6.png"" class=""exp-image"">
                    <div class=""question-area""></div> 
                </div>","null","","","","","","","","",""
"","","","","","html-button-response","112","371892","0.0-112.0","9A86A88B229145CA9943EAA00F48703F","019cf715-2e7d-7979-9138-24923998e623","019cf6fe-235e-7d95-bb9b-b011d2fe188e","","450","
                <div class=""stimulus-container"">
                    <img src=""images/causal_sequence/package_causal/package_causal_6.png"" class=""exp-image"">
                    <div class=""question-area"">
                        <p style=""font-size: 20px; font-weight: bold; margin: 0;"">Is there a person in this image?</p>
                    </div>
                </div>","0","main_experiment_trial","6","package_causal","causal_sequence","","","","",""
"","","","","","html-keyboard-response","113","376907","0.0-113.0","9A86A88B229145CA9943EAA00F48703F","019cf715-2e7d-7979-9138-24923998e623","019cf6fe-235e-7d95-bb9b-b011d2fe188e","","null","
                <div class=""stimulus-container"">
                    <img src=""images/causal_sequence/package_causal/package_causal_7.png"" class=""exp-image"">
                    <div class=""question-area""></div> 
                </div>","null","","","","","","","","",""
"","","","","","html-button-response","114","377453","0.0-114.0","9A86A88B229145CA9943EAA00F48703F","019cf715-2e7d-7979-9138-24923998e623","019cf6fe-235e-7d95-bb9b-b011d2fe188e","","546","
                <div class=""stimulus-container"">
                    <img src=""images/causal_sequence/package_causal/package_causal_7.png"" class=""exp-image"">
                    <div class=""question-area"">
                        <p style=""font-size: 20px; font-weight: bold; margin: 0;"">Is there a person in this image?</p>
                    </div>
                </div>","0","main_experiment_trial","7","package_causal","causal_sequence","","","","",""
"","","","","","html-keyboard-response","115","382466","0.0-115.0","9A86A88B229145CA9943EAA00F48703F","019cf715-2e7d-7979-9138-24923998e623","019cf6fe-235e-7d95-bb9b-b011d2fe188e","","null","
                <div class=""stimulus-container"">
                    <img src=""images/causal_sequence/package_causal/package_causal_8.png"" class=""exp-image"">
                    <div class=""question-area""></div> 
                </div>","null","","","","","","","","",""
"","","","","","html-button-response","116","382917","0.0-116.0","9A86A88B229145CA9943EAA00F48703F","019cf715-2e7d-7979-9138-24923998e623","019cf6fe-235e-7d95-bb9b-b011d2fe188e","","450","
                <div class=""stimulus-container"">
                    <img src=""images/causal_sequence/package_causal/package_causal_8.png"" class=""exp-image"">
                    <div class=""question-area"">
                        <p style=""font-size: 20px; font-weight: bold; margin: 0;"">Is there a person in this image?</p>
                    </div>
                </div>","0","main_experiment_trial","8","package_causal","causal_sequence","","","","",""
"","","","","","html-keyboard-response","117","387923","0.0-117.0","9A86A88B229145CA9943EAA00F48703F","019cf715-2e7d-7979-9138-24923998e623","019cf6fe-235e-7d95-bb9b-b011d2fe188e","","null","
                <div class=""stimulus-container"">
                    <img src=""images/causal_sequence/package_causal/package_causal_9.png"" class=""exp-image"">
                    <div class=""question-area""></div> 
                </div>","null","","","","","","","","",""
"","","","","","html-button-response","118","388595","0.0-118.0","9A86A88B229145CA9943EAA00F48703F","019cf715-2e7d-7979-9138-24923998e623","019cf6fe-235e-7d95-bb9b-b011d2fe188e","","671","
                <div class=""stimulus-container"">
                    <img src=""images/causal_sequence/package_causal/package_causal_9.png"" class=""exp-image"">
                    <div class=""question-area"">
                        <p style=""font-size: 20px; font-weight: bold; margin: 0;"">Is there a person in this image?</p>
                    </div>
                </div>","0","main_experiment_trial","9","package_causal","causal_sequence","","","","",""
"","","","","","html-keyboard-response","119","393606","0.0-119.0","9A86A88B229145CA9943EAA00F48703F","019cf715-2e7d-7979-9138-24923998e623","019cf6fe-235e-7d95-bb9b-b011d2fe188e","","null","
                <div class=""stimulus-container"">
                    <img src=""images/causal_sequence/package_causal/package_causal_ten.png"" class=""exp-image"">
                    <div class=""question-area""></div> 
                </div>","null","","","","","","","","",""
"","","","","","html-button-response","120","394039","0.0-120.0","9A86A88B229145CA9943EAA00F48703F","019cf715-2e7d-7979-9138-24923998e623","019cf6fe-235e-7d95-bb9b-b011d2fe188e","","432","
                <div class=""stimulus-container"">
                    <img src=""images/causal_sequence/package_causal/package_causal_ten.png"" class=""exp-image"">
                    <div class=""question-area"">
                        <p style=""font-size: 20px; font-weight: bold; margin: 0;"">Is there a person in this image?</p>
                    </div>
                </div>","0","main_experiment_trial","ten","package_causal","causal_sequence","","","","",""
"","","","","","html-keyboard-response","121","395050","0.0-121.0","9A86A88B229145CA9943EAA00F48703F","019cf715-2e7d-7979-9138-24923998e623","019cf6fe-235e-7d95-bb9b-b011d2fe188e","","null","<div style=""background-color: white; width: 100vw; height: 100vh;""></div>","null","","","","","","","","",""
"","","","","","html-keyboard-response","122","400052","0.0-122.0","9A86A88B229145CA9943EAA00F48703F","019cf715-2e7d-7979-9138-24923998e623","019cf6fe-235e-7d95-bb9b-b011d2fe188e","","null","
                <div class=""stimulus-container"">
                    <img src=""images/schematic_sequence/hotel_scheme/hotel_scheme_1.png"" class=""exp-image"">
                    <div class=""question-area""></div> 
                </div>","null","","","","","","","","",""
"","","","","","html-button-response","123","400856","0.0-123.0","9A86A88B229145CA9943EAA00F48703F","019cf715-2e7d-7979-9138-24923998e623","019cf6fe-235e-7d95-bb9b-b011d2fe188e","","804","
                <div class=""stimulus-container"">
                    <img src=""images/schematic_sequence/hotel_scheme/hotel_scheme_1.png"" class=""exp-image"">
                    <div class=""question-area"">
                        <p style=""font-size: 20px; font-weight: bold; margin: 0;"">Is there a person in this image?</p>
                    </div>
                </div>","1","main_experiment_trial","1","hotel_scheme","schematic_sequence","","","","",""
"","","","","","html-keyboard-response","124","405866","0.0-124.0","9A86A88B229145CA9943EAA00F48703F","019cf715-2e7d-7979-9138-24923998e623","019cf6fe-235e-7d95-bb9b-b011d2fe188e","","null","
                <div class=""stimulus-container"">
                    <img src=""images/schematic_sequence/hotel_scheme/hotel_scheme_2.png"" class=""exp-image"">
                    <div class=""question-area""></div> 
                </div>","null","","","","","","","","",""
"","","","","","html-button-response","125","406533","0.0-125.0","9A86A88B229145CA9943EAA00F48703F","019cf715-2e7d-7979-9138-24923998e623","019cf6fe-235e-7d95-bb9b-b011d2fe188e","","665","
                <div class=""stimulus-container"">
                    <img src=""images/schematic_sequence/hotel_scheme/hotel_scheme_2.png"" class=""exp-image"">
                    <div class=""question-area"">
                        <p style=""font-size: 20px; font-weight: bold; margin: 0;"">Is there a person in this image?</p>
                    </div>
                </div>","0","main_experiment_trial","2","hotel_scheme","schematic_sequence","","","","",""
"","","","","","html-keyboard-response","126","411541","0.0-126.0","9A86A88B229145CA9943EAA00F48703F","019cf715-2e7d-7979-9138-24923998e623","019cf6fe-235e-7d95-bb9b-b011d2fe188e","","null","
                <div class=""stimulus-container"">
                    <img src=""images/schematic_sequence/hotel_scheme/hotel_scheme_3.png"" class=""exp-image"">
                    <div class=""question-area""></div> 
                </div>","null","","","","","","","","",""
"","","","","","html-button-response","127","412389","0.0-127.0","9A86A88B229145CA9943EAA00F48703F","019cf715-2e7d-7979-9138-24923998e623","019cf6fe-235e-7d95-bb9b-b011d2fe188e","","848","
                <div class=""stimulus-container"">
                    <img src=""images/schematic_sequence/hotel_scheme/hotel_scheme_3.png"" class=""exp-image"">
                    <div class=""question-area"">
                        <p style=""font-size: 20px; font-weight: bold; margin: 0;"">Is there a person in this image?</p>
                    </div>
                </div>","0","main_experiment_trial","3","hotel_scheme","schematic_sequence","","","","",""
"","","","","","html-keyboard-response","128","417397","0.0-128.0","9A86A88B229145CA9943EAA00F48703F","019cf715-2e7d-7979-9138-24923998e623","019cf6fe-235e-7d95-bb9b-b011d2fe188e","","null","
                <div class=""stimulus-container"">
                    <img src=""images/schematic_sequence/hotel_scheme/hotel_scheme_4.png"" class=""exp-image"">
                    <div class=""question-area""></div> 
                </div>","null","","","","","","","","",""
"","","","","","html-button-response","129","418031","0.0-129.0","9A86A88B229145CA9943EAA00F48703F","019cf715-2e7d-7979-9138-24923998e623","019cf6fe-235e-7d95-bb9b-b011d2fe188e","","633","
                <div class=""stimulus-container"">
                    <img src=""images/schematic_sequence/hotel_scheme/hotel_scheme_4.png"" class=""exp-image"">
                    <div class=""question-area"">
                        <p style=""font-size: 20px; font-weight: bold; margin: 0;"">Is there a person in this image?</p>
                    </div>
                </div>","1","main_experiment_trial","4","hotel_scheme","schematic_sequence","","","","",""
"","","","","","html-keyboard-response","130","423043","0.0-130.0","9A86A88B229145CA9943EAA00F48703F","019cf715-2e7d-7979-9138-24923998e623","019cf6fe-235e-7d95-bb9b-b011d2fe188e","","null","
                <div class=""stimulus-container"">
                    <img src=""images/schematic_sequence/hotel_scheme/hotel_scheme_5.png"" class=""exp-image"">
                    <div class=""question-area""></div> 
                </div>","null","","","","","","","","",""
"","","","","","html-button-response","131","423745","0.0-131.0","9A86A88B229145CA9943EAA00F48703F","019cf715-2e7d-7979-9138-24923998e623","019cf6fe-235e-7d95-bb9b-b011d2fe188e","","701","
                <div class=""stimulus-container"">
                    <img src=""images/schematic_sequence/hotel_scheme/hotel_scheme_5.png"" class=""exp-image"">
                    <div class=""question-area"">
                        <p style=""font-size: 20px; font-weight: bold; margin: 0;"">Is there a person in this image?</p>
                    </div>
                </div>","0","main_experiment_trial","5","hotel_scheme","schematic_sequence","","","","",""
"","","","","","html-keyboard-response","132","428752","0.0-132.0","9A86A88B229145CA9943EAA00F48703F","019cf715-2e7d-7979-9138-24923998e623","019cf6fe-235e-7d95-bb9b-b011d2fe188e","","null","
                <div class=""stimulus-container"">
                    <img src=""images/schematic_sequence/hotel_scheme/hotel_scheme_6.png"" class=""exp-image"">
                    <div class=""question-area""></div> 
                </div>","null","","","","","","","","",""
"","","","","","html-button-response","133","429254","0.0-133.0","9A86A88B229145CA9943EAA00F48703F","019cf715-2e7d-7979-9138-24923998e623","019cf6fe-235e-7d95-bb9b-b011d2fe188e","","501","
                <div class=""stimulus-container"">
                    <img src=""images/schematic_sequence/hotel_scheme/hotel_scheme_6.png"" class=""exp-image"">
                    <div class=""question-area"">
                        <p style=""font-size: 20px; font-weight: bold; margin: 0;"">Is there a person in this image?</p>
                    </div>
                </div>","0","main_experiment_trial","6","hotel_scheme","schematic_sequence","","","","",""
"","","","","","html-keyboard-response","134","434269","0.0-134.0","9A86A88B229145CA9943EAA00F48703F","019cf715-2e7d-7979-9138-24923998e623","019cf6fe-235e-7d95-bb9b-b011d2fe188e","","null","
                <div class=""stimulus-container"">
                    <img src=""images/schematic_sequence/hotel_scheme/hotel_scheme_7.png"" class=""exp-image"">
                    <div class=""question-area""></div> 
                </div>","null","","","","","","","","",""
"","","","","","html-button-response","135","434734","0.0-135.0","9A86A88B229145CA9943EAA00F48703F","019cf715-2e7d-7979-9138-24923998e623","019cf6fe-235e-7d95-bb9b-b011d2fe188e","","464","
                <div class=""stimulus-container"">
                    <img src=""images/schematic_sequence/hotel_scheme/hotel_scheme_7.png"" class=""exp-image"">
                    <div class=""question-area"">
                        <p style=""font-size: 20px; font-weight: bold; margin: 0;"">Is there a person in this image?</p>
                    </div>
                </div>","0","main_experiment_trial","7","hotel_scheme","schematic_sequence","","","","",""
"","","","","","html-keyboard-response","136","439749","0.0-136.0","9A86A88B229145CA9943EAA00F48703F","019cf715-2e7d-7979-9138-24923998e623","019cf6fe-235e-7d95-bb9b-b011d2fe188e","","null","
                <div class=""stimulus-container"">
                    <img src=""images/schematic_sequence/hotel_scheme/hotel_scheme_8.png"" class=""exp-image"">
                    <div class=""question-area""></div> 
                </div>","null","","","","","","","","",""
"","","","","","html-button-response","137","440935","0.0-137.0","9A86A88B229145CA9943EAA00F48703F","019cf715-2e7d-7979-9138-24923998e623","019cf6fe-235e-7d95-bb9b-b011d2fe188e","","1185","
                <div class=""stimulus-container"">
                    <img src=""images/schematic_sequence/hotel_scheme/hotel_scheme_8.png"" class=""exp-image"">
                    <div class=""question-area"">
                        <p style=""font-size: 20px; font-weight: bold; margin: 0;"">Is there a person in this image?</p>
                    </div>
                </div>","0","main_experiment_trial","8","hotel_scheme","schematic_sequence","","","","",""
"","","","","","html-keyboard-response","138","445939","0.0-138.0","9A86A88B229145CA9943EAA00F48703F","019cf715-2e7d-7979-9138-24923998e623","019cf6fe-235e-7d95-bb9b-b011d2fe188e","","null","
                <div class=""stimulus-container"">
                    <img src=""images/schematic_sequence/hotel_scheme/hotel_scheme_9.png"" class=""exp-image"">
                    <div class=""question-area""></div> 
                </div>","null","","","","","","","","",""
"","","","","","html-button-response","139","446462","0.0-139.0","9A86A88B229145CA9943EAA00F48703F","019cf715-2e7d-7979-9138-24923998e623","019cf6fe-235e-7d95-bb9b-b011d2fe188e","","522","
                <div class=""stimulus-container"">
                    <img src=""images/schematic_sequence/hotel_scheme/hotel_scheme_9.png"" class=""exp-image"">
                    <div class=""question-area"">
                        <p style=""font-size: 20px; font-weight: bold; margin: 0;"">Is there a person in this image?</p>
                    </div>
                </div>","0","main_experiment_trial","9","hotel_scheme","schematic_sequence","","","","",""
"","","","","","html-keyboard-response","140","451466","0.0-140.0","9A86A88B229145CA9943EAA00F48703F","019cf715-2e7d-7979-9138-24923998e623","019cf6fe-235e-7d95-bb9b-b011d2fe188e","","null","
                <div class=""stimulus-container"">
                    <img src=""images/schematic_sequence/hotel_scheme/hotel_scheme_ten.png"" class=""exp-image"">
                    <div class=""question-area""></div> 
                </div>","null","","","","","","","","",""
"","","","","","html-button-response","141","452103","0.0-141.0","9A86A88B229145CA9943EAA00F48703F","019cf715-2e7d-7979-9138-24923998e623","019cf6fe-235e-7d95-bb9b-b011d2fe188e","","636","
                <div class=""stimulus-container"">
                    <img src=""images/schematic_sequence/hotel_scheme/hotel_scheme_ten.png"" class=""exp-image"">
                    <div class=""question-area"">
                        <p style=""font-size: 20px; font-weight: bold; margin: 0;"">Is there a person in this image?</p>
                    </div>
                </div>","0","main_experiment_trial","ten","hotel_scheme","schematic_sequence","","","","",""
"","","","","","html-keyboard-response","142","453115","0.0-142.0","9A86A88B229145CA9943EAA00F48703F","019cf715-2e7d-7979-9138-24923998e623","019cf6fe-235e-7d95-bb9b-b011d2fe188e","","null","<div style=""background-color: white; width: 100vw; height: 100vh;""></div>","null","","","","","","","","",""
"","","","","","html-keyboard-response","143","458116","0.0-143.0","9A86A88B229145CA9943EAA00F48703F","019cf715-2e7d-7979-9138-24923998e623","019cf6fe-235e-7d95-bb9b-b011d2fe188e","","null","
                <div class=""stimulus-container"">
                    <img src=""images/causal_sequence/saving_a_cat_causal/saving_a_cat_causal_1.png"" class=""exp-image"">
                    <div class=""question-area""></div> 
                </div>","null","","","","","","","","",""
"","","","","","html-button-response","144","458658","0.0-144.0","9A86A88B229145CA9943EAA00F48703F","019cf715-2e7d-7979-9138-24923998e623","019cf6fe-235e-7d95-bb9b-b011d2fe188e","","541","
                <div class=""stimulus-container"">
                    <img src=""images/causal_sequence/saving_a_cat_causal/saving_a_cat_causal_1.png"" class=""exp-image"">
                    <div class=""question-area"">
                        <p style=""font-size: 20px; font-weight: bold; margin: 0;"">Is there a person in this image?</p>
                    </div>
                </div>","0","main_experiment_trial","1","saving_a_cat_causal","causal_sequence","","","","",""
"","","","","","html-keyboard-response","145","463665","0.0-145.0","9A86A88B229145CA9943EAA00F48703F","019cf715-2e7d-7979-9138-24923998e623","019cf6fe-235e-7d95-bb9b-b011d2fe188e","","null","
                <div class=""stimulus-container"">
                    <img src=""images/causal_sequence/saving_a_cat_causal/saving_a_cat_causal_2.png"" class=""exp-image"">
                    <div class=""question-area""></div> 
                </div>","null","","","","","","","","",""
"","","","","","html-button-response","146","464380","0.0-146.0","9A86A88B229145CA9943EAA00F48703F","019cf715-2e7d-7979-9138-24923998e623","019cf6fe-235e-7d95-bb9b-b011d2fe188e","","714","
                <div class=""stimulus-container"">
                    <img src=""images/causal_sequence/saving_a_cat_causal/saving_a_cat_causal_2.png"" class=""exp-image"">
                    <div class=""question-area"">
                        <p style=""font-size: 20px; font-weight: bold; margin: 0;"">Is there a person in this image?</p>
                    </div>
                </div>","1","main_experiment_trial","2","saving_a_cat_causal","causal_sequence","","","","",""
"","","","","","html-keyboard-response","147","469395","0.0-147.0","9A86A88B229145CA9943EAA00F48703F","019cf715-2e7d-7979-9138-24923998e623","019cf6fe-235e-7d95-bb9b-b011d2fe188e","","null","
                <div class=""stimulus-container"">
                    <img src=""images/causal_sequence/saving_a_cat_causal/saving_a_cat_causal_3.png"" class=""exp-image"">
                    <div class=""question-area""></div> 
                </div>","null","","","","","","","","",""
"","","","","","html-button-response","148","470273","0.0-148.0","9A86A88B229145CA9943EAA00F48703F","019cf715-2e7d-7979-9138-24923998e623","019cf6fe-235e-7d95-bb9b-b011d2fe188e","","877","
                <div class=""stimulus-container"">
                    <img src=""images/causal_sequence/saving_a_cat_causal/saving_a_cat_causal_3.png"" class=""exp-image"">
                    <div class=""question-area"">
                        <p style=""font-size: 20px; font-weight: bold; margin: 0;"">Is there a person in this image?</p>
                    </div>
                </div>","1","main_experiment_trial","3","saving_a_cat_causal","causal_sequence","","","","",""
"","","","","","html-keyboard-response","149","475276","0.0-149.0","9A86A88B229145CA9943EAA00F48703F","019cf715-2e7d-7979-9138-24923998e623","019cf6fe-235e-7d95-bb9b-b011d2fe188e","","null","
                <div class=""stimulus-container"">
                    <img src=""images/causal_sequence/saving_a_cat_causal/saving_a_cat_causal_4.png"" class=""exp-image"">
                    <div class=""question-area""></div> 
                </div>","null","","","","","","","","",""
"","","","","","html-button-response","150","476250","0.0-150.0","9A86A88B229145CA9943EAA00F48703F","019cf715-2e7d-7979-9138-24923998e623","019cf6fe-235e-7d95-bb9b-b011d2fe188e","","972","
                <div class=""stimulus-container"">
                    <img src=""images/causal_sequence/saving_a_cat_causal/saving_a_cat_causal_4.png"" class=""exp-image"">
                    <div class=""question-area"">
                        <p style=""font-size: 20px; font-weight: bold; margin: 0;"">Is there a person in this image?</p>
                    </div>
                </div>","0","main_experiment_trial","4","saving_a_cat_causal","causal_sequence","","","","",""
"","","","","","html-keyboard-response","151","481260","0.0-151.0","9A86A88B229145CA9943EAA00F48703F","019cf715-2e7d-7979-9138-24923998e623","019cf6fe-235e-7d95-bb9b-b011d2fe188e","","null","
                <div class=""stimulus-container"">
                    <img src=""images/causal_sequence/saving_a_cat_causal/saving_a_cat_causal_5.png"" class=""exp-image"">
                    <div class=""question-area""></div> 
                </div>","null","","","","","","","","",""
"","","","","","html-button-response","152","482246","0.0-152.0","9A86A88B229145CA9943EAA00F48703F","019cf715-2e7d-7979-9138-24923998e623","019cf6fe-235e-7d95-bb9b-b011d2fe188e","","985","
                <div class=""stimulus-container"">
                    <img src=""images/causal_sequence/saving_a_cat_causal/saving_a_cat_causal_5.png"" class=""exp-image"">
                    <div class=""question-area"">
                        <p style=""font-size: 20px; font-weight: bold; margin: 0;"">Is there a person in this image?</p>
                    </div>
                </div>","0","main_experiment_trial","5","saving_a_cat_causal","causal_sequence","","","","",""
"","","","","","html-keyboard-response","153","487255","0.0-153.0","9A86A88B229145CA9943EAA00F48703F","019cf715-2e7d-7979-9138-24923998e623","019cf6fe-235e-7d95-bb9b-b011d2fe188e","","null","
                <div class=""stimulus-container"">
                    <img src=""images/causal_sequence/saving_a_cat_causal/saving_a_cat_causal_6.png"" class=""exp-image"">
                    <div class=""question-area""></div> 
                </div>","null","","","","","","","","",""
"","","","","","html-button-response","154","488628","0.0-154.0","9A86A88B229145CA9943EAA00F48703F","019cf715-2e7d-7979-9138-24923998e623","019cf6fe-235e-7d95-bb9b-b011d2fe188e","","1372","
                <div class=""stimulus-container"">
                    <img src=""images/causal_sequence/saving_a_cat_causal/saving_a_cat_causal_6.png"" class=""exp-image"">
                    <div class=""question-area"">
                        <p style=""font-size: 20px; font-weight: bold; margin: 0;"">Is there a person in this image?</p>
                    </div>
                </div>","0","main_experiment_trial","6","saving_a_cat_causal","causal_sequence","","","","",""
"","","","","","html-keyboard-response","155","493639","0.0-155.0","9A86A88B229145CA9943EAA00F48703F","019cf715-2e7d-7979-9138-24923998e623","019cf6fe-235e-7d95-bb9b-b011d2fe188e","","null","
                <div class=""stimulus-container"">
                    <img src=""images/causal_sequence/saving_a_cat_causal/saving_a_cat_causal_7.png"" class=""exp-image"">
                    <div class=""question-area""></div> 
                </div>","null","","","","","","","","",""
"","","","","","html-button-response","156","494577","0.0-156.0","9A86A88B229145CA9943EAA00F48703F","019cf715-2e7d-7979-9138-24923998e623","019cf6fe-235e-7d95-bb9b-b011d2fe188e","","936","
                <div class=""stimulus-container"">
                    <img src=""images/causal_sequence/saving_a_cat_causal/saving_a_cat_causal_7.png"" class=""exp-image"">
                    <div class=""question-area"">
                        <p style=""font-size: 20px; font-weight: bold; margin: 0;"">Is there a person in this image?</p>
                    </div>
                </div>","0","main_experiment_trial","7","saving_a_cat_causal","causal_sequence","","","","",""
"","","","","","html-keyboard-response","157","499591","0.0-157.0","9A86A88B229145CA9943EAA00F48703F","019cf715-2e7d-7979-9138-24923998e623","019cf6fe-235e-7d95-bb9b-b011d2fe188e","","null","
                <div class=""stimulus-container"">
                    <img src=""images/causal_sequence/saving_a_cat_causal/saving_a_cat_causal_8.png"" class=""exp-image"">
                    <div class=""question-area""></div> 
                </div>","null","","","","","","","","",""
"","","","","","html-button-response","158","500623","0.0-158.0","9A86A88B229145CA9943EAA00F48703F","019cf715-2e7d-7979-9138-24923998e623","019cf6fe-235e-7d95-bb9b-b011d2fe188e","","1031","
                <div class=""stimulus-container"">
                    <img src=""images/causal_sequence/saving_a_cat_causal/saving_a_cat_causal_8.png"" class=""exp-image"">
                    <div class=""question-area"">
                        <p style=""font-size: 20px; font-weight: bold; margin: 0;"">Is there a person in this image?</p>
                    </div>
                </div>","0","main_experiment_trial","8","saving_a_cat_causal","causal_sequence","","","","",""
"","","","","","html-keyboard-response","159","505630","0.0-159.0","9A86A88B229145CA9943EAA00F48703F","019cf715-2e7d-7979-9138-24923998e623","019cf6fe-235e-7d95-bb9b-b011d2fe188e","","null","
                <div class=""stimulus-container"">
                    <img src=""images/causal_sequence/saving_a_cat_causal/saving_a_cat_causal_9.png"" class=""exp-image"">
                    <div class=""question-area""></div> 
                </div>","null","","","","","","","","",""
"","","","","","html-button-response","160","506483","0.0-160.0","9A86A88B229145CA9943EAA00F48703F","019cf715-2e7d-7979-9138-24923998e623","019cf6fe-235e-7d95-bb9b-b011d2fe188e","","852","
                <div class=""stimulus-container"">
                    <img src=""images/causal_sequence/saving_a_cat_causal/saving_a_cat_causal_9.png"" class=""exp-image"">
                    <div class=""question-area"">
                        <p style=""font-size: 20px; font-weight: bold; margin: 0;"">Is there a person in this image?</p>
                    </div>
                </div>","0","main_experiment_trial","9","saving_a_cat_causal","causal_sequence","","","","",""
"","","","","","html-keyboard-response","161","511489","0.0-161.0","9A86A88B229145CA9943EAA00F48703F","019cf715-2e7d-7979-9138-24923998e623","019cf6fe-235e-7d95-bb9b-b011d2fe188e","","null","
                <div class=""stimulus-container"">
                    <img src=""images/causal_sequence/saving_a_cat_causal/saving_a_cat_causal_ten.png"" class=""exp-image"">
                    <div class=""question-area""></div> 
                </div>","null","","","","","","","","",""
"","","","","","html-button-response","162","512240","0.0-162.0","9A86A88B229145CA9943EAA00F48703F","019cf715-2e7d-7979-9138-24923998e623","019cf6fe-235e-7d95-bb9b-b011d2fe188e","","750","
                <div class=""stimulus-container"">
                    <img src=""images/causal_sequence/saving_a_cat_causal/saving_a_cat_causal_ten.png"" class=""exp-image"">
                    <div class=""question-area"">
                        <p style=""font-size: 20px; font-weight: bold; margin: 0;"">Is there a person in this image?</p>
                    </div>
                </div>","0","main_experiment_trial","ten","saving_a_cat_causal","causal_sequence","","","","",""
"","","","","","html-keyboard-response","163","513240","0.0-163.0","9A86A88B229145CA9943EAA00F48703F","019cf715-2e7d-7979-9138-24923998e623","019cf6fe-235e-7d95-bb9b-b011d2fe188e","","null","<div style=""background-color: white; width: 100vw; height: 100vh;""></div>","null","","","","","","","","",""
"","","","","","html-keyboard-response","164","518251","0.0-164.0","9A86A88B229145CA9943EAA00F48703F","019cf715-2e7d-7979-9138-24923998e623","019cf6fe-235e-7d95-bb9b-b011d2fe188e","","null","
                <div class=""stimulus-container"">
                    <img src=""images/schematic_sequence/flight_scheme/flight_scheme_1.png"" class=""exp-image"">
                    <div class=""question-area""></div> 
                </div>","null","","","","","","","","",""
"","","","","","html-button-response","165","518916","0.0-165.0","9A86A88B229145CA9943EAA00F48703F","019cf715-2e7d-7979-9138-24923998e623","019cf6fe-235e-7d95-bb9b-b011d2fe188e","","664","
                <div class=""stimulus-container"">
                    <img src=""images/schematic_sequence/flight_scheme/flight_scheme_1.png"" class=""exp-image"">
                    <div class=""question-area"">
                        <p style=""font-size: 20px; font-weight: bold; margin: 0;"">Is there a person in this image?</p>
                    </div>
                </div>","1","main_experiment_trial","1","flight_scheme","schematic_sequence","","","","",""
"","","","","","html-keyboard-response","166","523917","0.0-166.0","9A86A88B229145CA9943EAA00F48703F","019cf715-2e7d-7979-9138-24923998e623","019cf6fe-235e-7d95-bb9b-b011d2fe188e","","null","
                <div class=""stimulus-container"">
                    <img src=""images/schematic_sequence/flight_scheme/flight_scheme_2.png"" class=""exp-image"">
                    <div class=""question-area""></div> 
                </div>","null","","","","","","","","",""
"","","","","","html-button-response","167","524371","0.0-167.0","9A86A88B229145CA9943EAA00F48703F","019cf715-2e7d-7979-9138-24923998e623","019cf6fe-235e-7d95-bb9b-b011d2fe188e","","452","
                <div class=""stimulus-container"">
                    <img src=""images/schematic_sequence/flight_scheme/flight_scheme_2.png"" class=""exp-image"">
                    <div class=""question-area"">
                        <p style=""font-size: 20px; font-weight: bold; margin: 0;"">Is there a person in this image?</p>
                    </div>
                </div>","1","main_experiment_trial","2","flight_scheme","schematic_sequence","","","","",""
"","","","","","html-keyboard-response","168","529373","0.0-168.0","9A86A88B229145CA9943EAA00F48703F","019cf715-2e7d-7979-9138-24923998e623","019cf6fe-235e-7d95-bb9b-b011d2fe188e","","null","
                <div class=""stimulus-container"">
                    <img src=""images/schematic_sequence/flight_scheme/flight_scheme_3.png"" class=""exp-image"">
                    <div class=""question-area""></div> 
                </div>","null","","","","","","","","",""
"","","","","","html-button-response","169","529937","0.0-169.0","9A86A88B229145CA9943EAA00F48703F","019cf715-2e7d-7979-9138-24923998e623","019cf6fe-235e-7d95-bb9b-b011d2fe188e","","563","
                <div class=""stimulus-container"">
                    <img src=""images/schematic_sequence/flight_scheme/flight_scheme_3.png"" class=""exp-image"">
                    <div class=""question-area"">
                        <p style=""font-size: 20px; font-weight: bold; margin: 0;"">Is there a person in this image?</p>
                    </div>
                </div>","0","main_experiment_trial","3","flight_scheme","schematic_sequence","","","","",""
"","","","","","html-keyboard-response","170","534939","0.0-170.0","9A86A88B229145CA9943EAA00F48703F","019cf715-2e7d-7979-9138-24923998e623","019cf6fe-235e-7d95-bb9b-b011d2fe188e","","null","
                <div class=""stimulus-container"">
                    <img src=""images/schematic_sequence/flight_scheme/flight_scheme_4.png"" class=""exp-image"">
                    <div class=""question-area""></div> 
                </div>","null","","","","","","","","",""
"","","","","","html-button-response","171","535780","0.0-171.0","9A86A88B229145CA9943EAA00F48703F","019cf715-2e7d-7979-9138-24923998e623","019cf6fe-235e-7d95-bb9b-b011d2fe188e","","840","
                <div class=""stimulus-container"">
                    <img src=""images/schematic_sequence/flight_scheme/flight_scheme_4.png"" class=""exp-image"">
                    <div class=""question-area"">
                        <p style=""font-size: 20px; font-weight: bold; margin: 0;"">Is there a person in this image?</p>
                    </div>
                </div>","0","main_experiment_trial","4","flight_scheme","schematic_sequence","","","","",""
"","","","","","html-keyboard-response","172","540795","0.0-172.0","9A86A88B229145CA9943EAA00F48703F","019cf715-2e7d-7979-9138-24923998e623","019cf6fe-235e-7d95-bb9b-b011d2fe188e","","null","
                <div class=""stimulus-container"">
                    <img src=""images/schematic_sequence/flight_scheme/flight_scheme_5.png"" class=""exp-image"">
                    <div class=""question-area""></div> 
                </div>","null","","","","","","","","",""
"","","","","","html-button-response","173","542017","0.0-173.0","9A86A88B229145CA9943EAA00F48703F","019cf715-2e7d-7979-9138-24923998e623","019cf6fe-235e-7d95-bb9b-b011d2fe188e","","1221","
                <div class=""stimulus-container"">
                    <img src=""images/schematic_sequence/flight_scheme/flight_scheme_5.png"" class=""exp-image"">
                    <div class=""question-area"">
                        <p style=""font-size: 20px; font-weight: bold; margin: 0;"">Is there a person in this image?</p>
                    </div>
                </div>","0","main_experiment_trial","5","flight_scheme","schematic_sequence","","","","",""
"","","","","","html-keyboard-response","174","547031","0.0-174.0","9A86A88B229145CA9943EAA00F48703F","019cf715-2e7d-7979-9138-24923998e623","019cf6fe-235e-7d95-bb9b-b011d2fe188e","","null","
                <div class=""stimulus-container"">
                    <img src=""images/schematic_sequence/flight_scheme/flight_scheme_6.png"" class=""exp-image"">
                    <div class=""question-area""></div> 
                </div>","null","","","","","","","","",""
"","","","","","html-button-response","175","547734","0.0-175.0","9A86A88B229145CA9943EAA00F48703F","019cf715-2e7d-7979-9138-24923998e623","019cf6fe-235e-7d95-bb9b-b011d2fe188e","","703","
                <div class=""stimulus-container"">
                    <img src=""images/schematic_sequence/flight_scheme/flight_scheme_6.png"" class=""exp-image"">
                    <div class=""question-area"">
                        <p style=""font-size: 20px; font-weight: bold; margin: 0;"">Is there a person in this image?</p>
                    </div>
                </div>","1","main_experiment_trial","6","flight_scheme","schematic_sequence","","","","",""
"","","","","","html-keyboard-response","176","552735","0.0-176.0","9A86A88B229145CA9943EAA00F48703F","019cf715-2e7d-7979-9138-24923998e623","019cf6fe-235e-7d95-bb9b-b011d2fe188e","","null","
                <div class=""stimulus-container"">
                    <img src=""images/schematic_sequence/flight_scheme/flight_scheme_7.png"" class=""exp-image"">
                    <div class=""question-area""></div> 
                </div>","null","","","","","","","","",""
"","","","","","html-button-response","177","553474","0.0-177.0","9A86A88B229145CA9943EAA00F48703F","019cf715-2e7d-7979-9138-24923998e623","019cf6fe-235e-7d95-bb9b-b011d2fe188e","","737","
                <div class=""stimulus-container"">
                    <img src=""images/schematic_sequence/flight_scheme/flight_scheme_7.png"" class=""exp-image"">
                    <div class=""question-area"">
                        <p style=""font-size: 20px; font-weight: bold; margin: 0;"">Is there a person in this image?</p>
                    </div>
                </div>","1","main_experiment_trial","7","flight_scheme","schematic_sequence","","","","",""
"","","","","","html-keyboard-response","178","558485","0.0-178.0","9A86A88B229145CA9943EAA00F48703F","019cf715-2e7d-7979-9138-24923998e623","019cf6fe-235e-7d95-bb9b-b011d2fe188e","","null","
                <div class=""stimulus-container"">
                    <img src=""images/schematic_sequence/flight_scheme/flight_scheme_8.png"" class=""exp-image"">
                    <div class=""question-area""></div> 
                </div>","null","","","","","","","","",""
"","","","","","html-button-response","179","559561","0.0-179.0","9A86A88B229145CA9943EAA00F48703F","019cf715-2e7d-7979-9138-24923998e623","019cf6fe-235e-7d95-bb9b-b011d2fe188e","","1075","
                <div class=""stimulus-container"">
                    <img src=""images/schematic_sequence/flight_scheme/flight_scheme_8.png"" class=""exp-image"">
                    <div class=""question-area"">
                        <p style=""font-size: 20px; font-weight: bold; margin: 0;"">Is there a person in this image?</p>
                    </div>
                </div>","1","main_experiment_trial","8","flight_scheme","schematic_sequence","","","","",""
"","","","","","html-keyboard-response","180","564565","0.0-180.0","9A86A88B229145CA9943EAA00F48703F","019cf715-2e7d-7979-9138-24923998e623","019cf6fe-235e-7d95-bb9b-b011d2fe188e","","null","
                <div class=""stimulus-container"">
                    <img src=""images/schematic_sequence/flight_scheme/flight_scheme_9.png"" class=""exp-image"">
                    <div class=""question-area""></div> 
                </div>","null","","","","","","","","",""
"","","","","","html-button-response","181","565417","0.0-181.0","9A86A88B229145CA9943EAA00F48703F","019cf715-2e7d-7979-9138-24923998e623","019cf6fe-235e-7d95-bb9b-b011d2fe188e","","851","
                <div class=""stimulus-container"">
                    <img src=""images/schematic_sequence/flight_scheme/flight_scheme_9.png"" class=""exp-image"">
                    <div class=""question-area"">
                        <p style=""font-size: 20px; font-weight: bold; margin: 0;"">Is there a person in this image?</p>
                    </div>
                </div>","0","main_experiment_trial","9","flight_scheme","schematic_sequence","","","","",""
"","","","","","html-keyboard-response","182","570429","0.0-182.0","9A86A88B229145CA9943EAA00F48703F","019cf715-2e7d-7979-9138-24923998e623","019cf6fe-235e-7d95-bb9b-b011d2fe188e","","null","
                <div class=""stimulus-container"">
                    <img src=""images/schematic_sequence/flight_scheme/flight_scheme_ten.png"" class=""exp-image"">
                    <div class=""question-area""></div> 
                </div>","null","","","","","","","","",""
"","","","","","html-button-response","183","571251","0.0-183.0","9A86A88B229145CA9943EAA00F48703F","019cf715-2e7d-7979-9138-24923998e623","019cf6fe-235e-7d95-bb9b-b011d2fe188e","","820","
                <div class=""stimulus-container"">
                    <img src=""images/schematic_sequence/flight_scheme/flight_scheme_ten.png"" class=""exp-image"">
                    <div class=""question-area"">
                        <p style=""font-size: 20px; font-weight: bold; margin: 0;"">Is there a person in this image?</p>
                    </div>
                </div>","0","main_experiment_trial","ten","flight_scheme","schematic_sequence","","","","",""
