"success","timeout","failed_images","failed_audio","failed_video","trial_type","trial_index","time_elapsed","internal_node_id","subject_id","study_id","session_id","view_history","rt","stimulus","response","task","image_index","folder","sequence_type","presentation_order","valuable_image_index","reward_type","distance_from_x","target_X","chosen_image_index","is_x_plus_dist","correct_choice"
"true","false","[]","[]","[]","preload","0","7089","0.0-0.0","BE09D9CF9E874197AD689951633A045C","019cfa62-9feb-78aa-bbf6-8df558f2d5fd","019cfa3a-388e-72ab-ad58-bdeb258f96cd","","","","","","","","","","","","","","","",""
"","","","","","instructions","1","11511","0.0-1.0","BE09D9CF9E874197AD689951633A045C","019cfa62-9feb-78aa-bbf6-8df558f2d5fd","019cfa3a-388e-72ab-ad58-bdeb258f96cd","[{""page_index"":0,""viewing_time"":4421}]","4421","","","","","","","","","","","","","",""
"","","","","","instructions","2","30243","0.0-2.0","BE09D9CF9E874197AD689951633A045C","019cfa62-9feb-78aa-bbf6-8df558f2d5fd","019cfa3a-388e-72ab-ad58-bdeb258f96cd","[{""page_index"":0,""viewing_time"":18731}]","18731","","","","","","","","","","","","","",""
"true","","","","","fullscreen","3","33451","0.0-3.0","BE09D9CF9E874197AD689951633A045C","019cfa62-9feb-78aa-bbf6-8df558f2d5fd","019cfa3a-388e-72ab-ad58-bdeb258f96cd","","2204","","","","","","","","","","","","","",""
"","","","","","instructions","4","38621","0.0-4.0","BE09D9CF9E874197AD689951633A045C","019cfa62-9feb-78aa-bbf6-8df558f2d5fd","019cfa3a-388e-72ab-ad58-bdeb258f96cd","[{""page_index"":0,""viewing_time"":5170}]","5170","","","","","","","","","","","","","",""
"","","","","","instructions","5","43291","0.0-5.0","BE09D9CF9E874197AD689951633A045C","019cfa62-9feb-78aa-bbf6-8df558f2d5fd","019cfa3a-388e-72ab-ad58-bdeb258f96cd","[{""page_index"":0,""viewing_time"":4669}]","4669","","","","","","","","","","","","","",""
"","","","","","html-keyboard-response","6","47295","0.0-6.0","BE09D9CF9E874197AD689951633A045C","019cfa62-9feb-78aa-bbf6-8df558f2d5fd","019cfa3a-388e-72ab-ad58-bdeb258f96cd","","null","
                <div class=""stimulus-container"">
                    <img src=""images/instructions/movie_1.png"" class=""exp-image"">
                    <div class=""question-area""></div> 
                </div>","null","","","","","","","","","","","",""
"","","","","","html-button-response","7","50300","0.0-7.0","BE09D9CF9E874197AD689951633A045C","019cfa62-9feb-78aa-bbf6-8df558f2d5fd","019cfa3a-388e-72ab-ad58-bdeb258f96cd","","null","
                <div class=""stimulus-container"">
                    <img src=""images/instructions/movie_1.png"" class=""exp-image"">
                    <div class=""question-area"">
                        <p style=""font-size: 20px; font-weight: bold; margin: 0;"">Was there a person in this image?</p>
                    </div>
                </div>","null","example_question","1","","","","","","","","","",""
"","","","","","html-keyboard-response","8","54303","0.0-8.0","BE09D9CF9E874197AD689951633A045C","019cfa62-9feb-78aa-bbf6-8df558f2d5fd","019cfa3a-388e-72ab-ad58-bdeb258f96cd","","null","
                <div class=""stimulus-container"">
                    <img src=""images/instructions/movie_2.png"" class=""exp-image"">
                    <div class=""question-area""></div> 
                </div>","null","","","","","","","","","","","",""
"","","","","","html-button-response","9","55651","0.0-9.0","BE09D9CF9E874197AD689951633A045C","019cfa62-9feb-78aa-bbf6-8df558f2d5fd","019cfa3a-388e-72ab-ad58-bdeb258f96cd","","1346","
                <div class=""stimulus-container"">
                    <img src=""images/instructions/movie_2.png"" class=""exp-image"">
                    <div class=""question-area"">
                        <p style=""font-size: 20px; font-weight: bold; margin: 0;"">Was there a person in this image?</p>
                    </div>
                </div>","0","example_question","2","","","","","","","","","",""
"","","","","","html-keyboard-response","10","59654","0.0-10.0","BE09D9CF9E874197AD689951633A045C","019cfa62-9feb-78aa-bbf6-8df558f2d5fd","019cfa3a-388e-72ab-ad58-bdeb258f96cd","","null","
                <div class=""stimulus-container"">
                    <img src=""images/instructions/movie_3.png"" class=""exp-image"">
                    <div class=""question-area""></div> 
                </div>","null","","","","","","","","","","","",""
"","","","","","html-button-response","11","60487","0.0-11.0","BE09D9CF9E874197AD689951633A045C","019cfa62-9feb-78aa-bbf6-8df558f2d5fd","019cfa3a-388e-72ab-ad58-bdeb258f96cd","","832","
                <div class=""stimulus-container"">
                    <img src=""images/instructions/movie_3.png"" class=""exp-image"">
                    <div class=""question-area"">
                        <p style=""font-size: 20px; font-weight: bold; margin: 0;"">Was there a person in this image?</p>
                    </div>
                </div>","0","example_question","3","","","","","","","","","",""
"","","","","","html-keyboard-response","12","64490","0.0-12.0","BE09D9CF9E874197AD689951633A045C","019cfa62-9feb-78aa-bbf6-8df558f2d5fd","019cfa3a-388e-72ab-ad58-bdeb258f96cd","","null","
                <div class=""stimulus-container"">
                    <img src=""images/instructions/movie_4.png"" class=""exp-image"">
                    <div class=""question-area""></div> 
                </div>","null","","","","","","","","","","","",""
"","","","","","html-button-response","13","65192","0.0-13.0","BE09D9CF9E874197AD689951633A045C","019cfa62-9feb-78aa-bbf6-8df558f2d5fd","019cfa3a-388e-72ab-ad58-bdeb258f96cd","","700","
                <div class=""stimulus-container"">
                    <img src=""images/instructions/movie_4.png"" class=""exp-image"">
                    <div class=""question-area"">
                        <p style=""font-size: 20px; font-weight: bold; margin: 0;"">Was there a person in this image?</p>
                    </div>
                </div>","0","example_question","4","","","","","","","","","",""
"","","","","","instructions","14","67543","0.0-14.0","BE09D9CF9E874197AD689951633A045C","019cfa62-9feb-78aa-bbf6-8df558f2d5fd","019cfa3a-388e-72ab-ad58-bdeb258f96cd","[{""page_index"":0,""viewing_time"":2349}]","2350","","","","","","","","","","","","","",""
"","","","","","instructions","15","75403","0.0-15.0","BE09D9CF9E874197AD689951633A045C","019cfa62-9feb-78aa-bbf6-8df558f2d5fd","019cfa3a-388e-72ab-ad58-bdeb258f96cd","[{""page_index"":0,""viewing_time"":7860}]","7860","","","","","","","","","","","","","",""
"","","","","","html-keyboard-response","16","80406","0.0-16.0","BE09D9CF9E874197AD689951633A045C","019cfa62-9feb-78aa-bbf6-8df558f2d5fd","019cfa3a-388e-72ab-ad58-bdeb258f96cd","","null","<div style=""background-color: white; width: 100vw; height: 100vh;""></div>","null","","","","","","","","","","","",""
"","","","","","html-keyboard-response","17","81408","0.0-17.0","BE09D9CF9E874197AD689951633A045C","019cfa62-9feb-78aa-bbf6-8df558f2d5fd","019cfa3a-388e-72ab-ad58-bdeb258f96cd","","null","
                <div class=""stimulus-container"">
                    <img src=""images/causal_sequence/coin_causal/coin_causal_1.png"" class=""exp-image"">
                    <div class=""question-area""></div> 
                </div>","null","","","","","","","","","","","",""
"","","","","","html-button-response","18","82538","0.0-18.0","BE09D9CF9E874197AD689951633A045C","019cfa62-9feb-78aa-bbf6-8df558f2d5fd","019cfa3a-388e-72ab-ad58-bdeb258f96cd","","1128","
                <div class=""stimulus-container"">
                    <img src=""images/causal_sequence/coin_causal/coin_causal_1.png"" class=""exp-image"">
                    <div class=""question-area"">
                        <p style=""font-size: 20px; font-weight: bold; margin: 0;"">Is there a person in this image?</p>
                    </div>
                </div>","0","main_experiment_trial","1","coin_causal","causal_sequence","chronological","","","","","","",""
"","","","","","html-keyboard-response","19","83539","0.0-19.0","BE09D9CF9E874197AD689951633A045C","019cfa62-9feb-78aa-bbf6-8df558f2d5fd","019cfa3a-388e-72ab-ad58-bdeb258f96cd","","null","
                <div class=""stimulus-container"">
                    <img src=""images/causal_sequence/coin_causal/coin_causal_2.png"" class=""exp-image"">
                    <div class=""question-area""></div> 
                </div>","null","","","","","","","","","","","",""
"","","","","","html-button-response","20","84292","0.0-20.0","BE09D9CF9E874197AD689951633A045C","019cfa62-9feb-78aa-bbf6-8df558f2d5fd","019cfa3a-388e-72ab-ad58-bdeb258f96cd","","752","
                <div class=""stimulus-container"">
                    <img src=""images/causal_sequence/coin_causal/coin_causal_2.png"" class=""exp-image"">
                    <div class=""question-area"">
                        <p style=""font-size: 20px; font-weight: bold; margin: 0;"">Is there a person in this image?</p>
                    </div>
                </div>","0","main_experiment_trial","2","coin_causal","causal_sequence","chronological","","","","","","",""
"","","","","","html-keyboard-response","21","85295","0.0-21.0","BE09D9CF9E874197AD689951633A045C","019cfa62-9feb-78aa-bbf6-8df558f2d5fd","019cfa3a-388e-72ab-ad58-bdeb258f96cd","","null","
                <div class=""stimulus-container"">
                    <img src=""images/causal_sequence/coin_causal/coin_causal_3.png"" class=""exp-image"">
                    <div class=""question-area""></div> 
                </div>","null","","","","","","","","","","","",""
"","","","","","html-button-response","22","85808","0.0-22.0","BE09D9CF9E874197AD689951633A045C","019cfa62-9feb-78aa-bbf6-8df558f2d5fd","019cfa3a-388e-72ab-ad58-bdeb258f96cd","","511","
                <div class=""stimulus-container"">
                    <img src=""images/causal_sequence/coin_causal/coin_causal_3.png"" class=""exp-image"">
                    <div class=""question-area"">
                        <p style=""font-size: 20px; font-weight: bold; margin: 0;"">Is there a person in this image?</p>
                    </div>
                </div>","0","main_experiment_trial","3","coin_causal","causal_sequence","chronological","","","","","","",""
"","","","","","html-keyboard-response","23","86810","0.0-23.0","BE09D9CF9E874197AD689951633A045C","019cfa62-9feb-78aa-bbf6-8df558f2d5fd","019cfa3a-388e-72ab-ad58-bdeb258f96cd","","null","
                <div class=""stimulus-container"">
                    <img src=""images/causal_sequence/coin_causal/coin_causal_4.png"" class=""exp-image"">
                    <div class=""question-area""></div> 
                </div>","null","","","","","","","","","","","",""
"","","","","","html-button-response","24","87359","0.0-24.0","BE09D9CF9E874197AD689951633A045C","019cfa62-9feb-78aa-bbf6-8df558f2d5fd","019cfa3a-388e-72ab-ad58-bdeb258f96cd","","548","
                <div class=""stimulus-container"">
                    <img src=""images/causal_sequence/coin_causal/coin_causal_4.png"" class=""exp-image"">
                    <div class=""question-area"">
                        <p style=""font-size: 20px; font-weight: bold; margin: 0;"">Is there a person in this image?</p>
                    </div>
                </div>","0","main_experiment_trial","4","coin_causal","causal_sequence","chronological","","","","","","",""
"","","","","","html-keyboard-response","25","88361","0.0-25.0","BE09D9CF9E874197AD689951633A045C","019cfa62-9feb-78aa-bbf6-8df558f2d5fd","019cfa3a-388e-72ab-ad58-bdeb258f96cd","","null","
                <div class=""stimulus-container"">
                    <img src=""images/causal_sequence/coin_causal/coin_causal_5.png"" class=""exp-image"">
                    <div class=""question-area""></div> 
                </div>","null","","","","","","","","","","","",""
"","","","","","html-button-response","26","88994","0.0-26.0","BE09D9CF9E874197AD689951633A045C","019cfa62-9feb-78aa-bbf6-8df558f2d5fd","019cfa3a-388e-72ab-ad58-bdeb258f96cd","","632","
                <div class=""stimulus-container"">
                    <img src=""images/causal_sequence/coin_causal/coin_causal_5.png"" class=""exp-image"">
                    <div class=""question-area"">
                        <p style=""font-size: 20px; font-weight: bold; margin: 0;"">Is there a person in this image?</p>
                    </div>
                </div>","0","main_experiment_trial","5","coin_causal","causal_sequence","chronological","","","","","","",""
"","","","","","html-keyboard-response","27","89997","0.0-27.0","BE09D9CF9E874197AD689951633A045C","019cfa62-9feb-78aa-bbf6-8df558f2d5fd","019cfa3a-388e-72ab-ad58-bdeb258f96cd","","null","
                <div class=""stimulus-container"">
                    <img src=""images/causal_sequence/coin_causal/coin_causal_6.png"" class=""exp-image"">
                    <div class=""question-area""></div> 
                </div>","null","","","","","","","","","","","",""
"","","","","","html-button-response","28","90764","0.0-28.0","BE09D9CF9E874197AD689951633A045C","019cfa62-9feb-78aa-bbf6-8df558f2d5fd","019cfa3a-388e-72ab-ad58-bdeb258f96cd","","764","
                <div class=""stimulus-container"">
                    <img src=""images/causal_sequence/coin_causal/coin_causal_6.png"" class=""exp-image"">
                    <div class=""question-area"">
                        <p style=""font-size: 20px; font-weight: bold; margin: 0;"">Is there a person in this image?</p>
                    </div>
                </div>","0","main_experiment_trial","6","coin_causal","causal_sequence","chronological","","","","","","",""
"","","","","","html-keyboard-response","29","91767","0.0-29.0","BE09D9CF9E874197AD689951633A045C","019cfa62-9feb-78aa-bbf6-8df558f2d5fd","019cfa3a-388e-72ab-ad58-bdeb258f96cd","","null","
                <div class=""stimulus-container"">
                    <img src=""images/causal_sequence/coin_causal/coin_causal_7.png"" class=""exp-image"">
                    <div class=""question-area""></div> 
                </div>","null","","","","","","","","","","","",""
"","","","","","html-button-response","30","92549","0.0-30.0","BE09D9CF9E874197AD689951633A045C","019cfa62-9feb-78aa-bbf6-8df558f2d5fd","019cfa3a-388e-72ab-ad58-bdeb258f96cd","","780","
                <div class=""stimulus-container"">
                    <img src=""images/causal_sequence/coin_causal/coin_causal_7.png"" class=""exp-image"">
                    <div class=""question-area"">
                        <p style=""font-size: 20px; font-weight: bold; margin: 0;"">Is there a person in this image?</p>
                    </div>
                </div>","1","main_experiment_trial","7","coin_causal","causal_sequence","chronological","","","","","","",""
"","","","","","html-keyboard-response","31","93552","0.0-31.0","BE09D9CF9E874197AD689951633A045C","019cfa62-9feb-78aa-bbf6-8df558f2d5fd","019cfa3a-388e-72ab-ad58-bdeb258f96cd","","null","
                <div class=""stimulus-container"">
                    <img src=""images/causal_sequence/coin_causal/coin_causal_8.png"" class=""exp-image"">
                    <div class=""question-area""></div> 
                </div>","null","","","","","","","","","","","",""
"","","","","","html-button-response","32","94097","0.0-32.0","BE09D9CF9E874197AD689951633A045C","019cfa62-9feb-78aa-bbf6-8df558f2d5fd","019cfa3a-388e-72ab-ad58-bdeb258f96cd","","544","
                <div class=""stimulus-container"">
                    <img src=""images/causal_sequence/coin_causal/coin_causal_8.png"" class=""exp-image"">
                    <div class=""question-area"">
                        <p style=""font-size: 20px; font-weight: bold; margin: 0;"">Is there a person in this image?</p>
                    </div>
                </div>","0","main_experiment_trial","8","coin_causal","causal_sequence","chronological","","","","","","",""
"","","","","","html-keyboard-response","33","95099","0.0-33.0","BE09D9CF9E874197AD689951633A045C","019cfa62-9feb-78aa-bbf6-8df558f2d5fd","019cfa3a-388e-72ab-ad58-bdeb258f96cd","","null","
                <div class=""stimulus-container"">
                    <img src=""images/causal_sequence/coin_causal/coin_causal_9.png"" class=""exp-image"">
                    <div class=""question-area""></div> 
                </div>","null","","","","","","","","","","","",""
"","","","","","html-button-response","34","95635","0.0-34.0","BE09D9CF9E874197AD689951633A045C","019cfa62-9feb-78aa-bbf6-8df558f2d5fd","019cfa3a-388e-72ab-ad58-bdeb258f96cd","","535","
                <div class=""stimulus-container"">
                    <img src=""images/causal_sequence/coin_causal/coin_causal_9.png"" class=""exp-image"">
                    <div class=""question-area"">
                        <p style=""font-size: 20px; font-weight: bold; margin: 0;"">Is there a person in this image?</p>
                    </div>
                </div>","0","main_experiment_trial","9","coin_causal","causal_sequence","chronological","","","","","","",""
"","","","","","html-keyboard-response","35","96638","0.0-35.0","BE09D9CF9E874197AD689951633A045C","019cfa62-9feb-78aa-bbf6-8df558f2d5fd","019cfa3a-388e-72ab-ad58-bdeb258f96cd","","null","
                <div class=""stimulus-container"">
                    <img src=""images/causal_sequence/coin_causal/coin_causal_ten.png"" class=""exp-image"">
                    <div class=""question-area""></div> 
                </div>","null","","","","","","","","","","","",""
"","","","","","html-button-response","36","97067","0.0-36.0","BE09D9CF9E874197AD689951633A045C","019cfa62-9feb-78aa-bbf6-8df558f2d5fd","019cfa3a-388e-72ab-ad58-bdeb258f96cd","","427","
                <div class=""stimulus-container"">
                    <img src=""images/causal_sequence/coin_causal/coin_causal_ten.png"" class=""exp-image"">
                    <div class=""question-area"">
                        <p style=""font-size: 20px; font-weight: bold; margin: 0;"">Is there a person in this image?</p>
                    </div>
                </div>","0","main_experiment_trial","ten","coin_causal","causal_sequence","chronological","","","","","","",""
"","","","","","html-keyboard-response","37","102069","0.0-37.0","BE09D9CF9E874197AD689951633A045C","019cfa62-9feb-78aa-bbf6-8df558f2d5fd","019cfa3a-388e-72ab-ad58-bdeb258f96cd","","null","<div style=""background-color: white; width: 100vw; height: 100vh;""></div>","null","","","","","","","","","","","",""
"","","","","","html-keyboard-response","38","103071","0.0-38.0","BE09D9CF9E874197AD689951633A045C","019cfa62-9feb-78aa-bbf6-8df558f2d5fd","019cfa3a-388e-72ab-ad58-bdeb258f96cd","","null","
                <div class=""stimulus-container"">
                    <img src=""images/semantic_sequence/exploring_nature_semantic/exploring_nature_semantic_1.png"" class=""exp-image"">
                    <div class=""question-area""></div> 
                </div>","null","","","","","","","","","","","",""
"","","","","","html-button-response","39","103773","0.0-39.0","BE09D9CF9E874197AD689951633A045C","019cfa62-9feb-78aa-bbf6-8df558f2d5fd","019cfa3a-388e-72ab-ad58-bdeb258f96cd","","701","
                <div class=""stimulus-container"">
                    <img src=""images/semantic_sequence/exploring_nature_semantic/exploring_nature_semantic_1.png"" class=""exp-image"">
                    <div class=""question-area"">
                        <p style=""font-size: 20px; font-weight: bold; margin: 0;"">Is there a person in this image?</p>
                    </div>
                </div>","0","main_experiment_trial","1","exploring_nature_semantic","semantic_sequence","chronological","","","","","","",""
"","","","","","html-keyboard-response","40","104775","0.0-40.0","BE09D9CF9E874197AD689951633A045C","019cfa62-9feb-78aa-bbf6-8df558f2d5fd","019cfa3a-388e-72ab-ad58-bdeb258f96cd","","null","
                <div class=""stimulus-container"">
                    <img src=""images/semantic_sequence/exploring_nature_semantic/exploring_nature_semantic_2.png"" class=""exp-image"">
                    <div class=""question-area""></div> 
                </div>","null","","","","","","","","","","","",""
"","","","","","html-button-response","41","105492","0.0-41.0","BE09D9CF9E874197AD689951633A045C","019cfa62-9feb-78aa-bbf6-8df558f2d5fd","019cfa3a-388e-72ab-ad58-bdeb258f96cd","","715","
                <div class=""stimulus-container"">
                    <img src=""images/semantic_sequence/exploring_nature_semantic/exploring_nature_semantic_2.png"" class=""exp-image"">
                    <div class=""question-area"">
                        <p style=""font-size: 20px; font-weight: bold; margin: 0;"">Is there a person in this image?</p>
                    </div>
                </div>","0","main_experiment_trial","2","exploring_nature_semantic","semantic_sequence","chronological","","","","","","",""
"","","","","","html-keyboard-response","42","106495","0.0-42.0","BE09D9CF9E874197AD689951633A045C","019cfa62-9feb-78aa-bbf6-8df558f2d5fd","019cfa3a-388e-72ab-ad58-bdeb258f96cd","","null","
                <div class=""stimulus-container"">
                    <img src=""images/semantic_sequence/exploring_nature_semantic/exploring_nature_semantic_3.png"" class=""exp-image"">
                    <div class=""question-area""></div> 
                </div>","null","","","","","","","","","","","",""
"","","","","","html-button-response","43","107078","0.0-43.0","BE09D9CF9E874197AD689951633A045C","019cfa62-9feb-78aa-bbf6-8df558f2d5fd","019cfa3a-388e-72ab-ad58-bdeb258f96cd","","581","
                <div class=""stimulus-container"">
                    <img src=""images/semantic_sequence/exploring_nature_semantic/exploring_nature_semantic_3.png"" class=""exp-image"">
                    <div class=""question-area"">
                        <p style=""font-size: 20px; font-weight: bold; margin: 0;"">Is there a person in this image?</p>
                    </div>
                </div>","0","main_experiment_trial","3","exploring_nature_semantic","semantic_sequence","chronological","","","","","","",""
"","","","","","html-keyboard-response","44","108080","0.0-44.0","BE09D9CF9E874197AD689951633A045C","019cfa62-9feb-78aa-bbf6-8df558f2d5fd","019cfa3a-388e-72ab-ad58-bdeb258f96cd","","null","
                <div class=""stimulus-container"">
                    <img src=""images/semantic_sequence/exploring_nature_semantic/exploring_nature_semantic_4.png"" class=""exp-image"">
                    <div class=""question-area""></div> 
                </div>","null","","","","","","","","","","","",""
"","","","","","html-button-response","45","108608","0.0-45.0","BE09D9CF9E874197AD689951633A045C","019cfa62-9feb-78aa-bbf6-8df558f2d5fd","019cfa3a-388e-72ab-ad58-bdeb258f96cd","","526","
                <div class=""stimulus-container"">
                    <img src=""images/semantic_sequence/exploring_nature_semantic/exploring_nature_semantic_4.png"" class=""exp-image"">
                    <div class=""question-area"">
                        <p style=""font-size: 20px; font-weight: bold; margin: 0;"">Is there a person in this image?</p>
                    </div>
                </div>","0","main_experiment_trial","4","exploring_nature_semantic","semantic_sequence","chronological","","","","","","",""
"","","","","","html-keyboard-response","46","109611","0.0-46.0","BE09D9CF9E874197AD689951633A045C","019cfa62-9feb-78aa-bbf6-8df558f2d5fd","019cfa3a-388e-72ab-ad58-bdeb258f96cd","","null","
                <div class=""stimulus-container"">
                    <img src=""images/semantic_sequence/exploring_nature_semantic/exploring_nature_semantic_5.png"" class=""exp-image"">
                    <div class=""question-area""></div> 
                </div>","null","","","","","","","","","","","",""
"","","","","","html-button-response","47","110094","0.0-47.0","BE09D9CF9E874197AD689951633A045C","019cfa62-9feb-78aa-bbf6-8df558f2d5fd","019cfa3a-388e-72ab-ad58-bdeb258f96cd","","482","
                <div class=""stimulus-container"">
                    <img src=""images/semantic_sequence/exploring_nature_semantic/exploring_nature_semantic_5.png"" class=""exp-image"">
                    <div class=""question-area"">
                        <p style=""font-size: 20px; font-weight: bold; margin: 0;"">Is there a person in this image?</p>
                    </div>
                </div>","0","main_experiment_trial","5","exploring_nature_semantic","semantic_sequence","chronological","","","","","","",""
"","","","","","html-keyboard-response","48","111096","0.0-48.0","BE09D9CF9E874197AD689951633A045C","019cfa62-9feb-78aa-bbf6-8df558f2d5fd","019cfa3a-388e-72ab-ad58-bdeb258f96cd","","null","
                <div class=""stimulus-container"">
                    <img src=""images/semantic_sequence/exploring_nature_semantic/exploring_nature_semantic_6.png"" class=""exp-image"">
                    <div class=""question-area""></div> 
                </div>","null","","","","","","","","","","","",""
"","","","","","html-button-response","49","111627","0.0-49.0","BE09D9CF9E874197AD689951633A045C","019cfa62-9feb-78aa-bbf6-8df558f2d5fd","019cfa3a-388e-72ab-ad58-bdeb258f96cd","","530","
                <div class=""stimulus-container"">
                    <img src=""images/semantic_sequence/exploring_nature_semantic/exploring_nature_semantic_6.png"" class=""exp-image"">
                    <div class=""question-area"">
                        <p style=""font-size: 20px; font-weight: bold; margin: 0;"">Is there a person in this image?</p>
                    </div>
                </div>","0","main_experiment_trial","6","exploring_nature_semantic","semantic_sequence","chronological","","","","","","",""
"","","","","","html-keyboard-response","50","112629","0.0-50.0","BE09D9CF9E874197AD689951633A045C","019cfa62-9feb-78aa-bbf6-8df558f2d5fd","019cfa3a-388e-72ab-ad58-bdeb258f96cd","","null","
                <div class=""stimulus-container"">
                    <img src=""images/semantic_sequence/exploring_nature_semantic/exploring_nature_semantic_7.png"" class=""exp-image"">
                    <div class=""question-area""></div> 
                </div>","null","","","","","","","","","","","",""
"","","","","","html-button-response","51","113163","0.0-51.0","BE09D9CF9E874197AD689951633A045C","019cfa62-9feb-78aa-bbf6-8df558f2d5fd","019cfa3a-388e-72ab-ad58-bdeb258f96cd","","532","
                <div class=""stimulus-container"">
                    <img src=""images/semantic_sequence/exploring_nature_semantic/exploring_nature_semantic_7.png"" class=""exp-image"">
                    <div class=""question-area"">
                        <p style=""font-size: 20px; font-weight: bold; margin: 0;"">Is there a person in this image?</p>
                    </div>
                </div>","0","main_experiment_trial","7","exploring_nature_semantic","semantic_sequence","chronological","","","","","","",""
"","","","","","html-keyboard-response","52","114166","0.0-52.0","BE09D9CF9E874197AD689951633A045C","019cfa62-9feb-78aa-bbf6-8df558f2d5fd","019cfa3a-388e-72ab-ad58-bdeb258f96cd","","null","
                <div class=""stimulus-container"">
                    <img src=""images/semantic_sequence/exploring_nature_semantic/exploring_nature_semantic_8.png"" class=""exp-image"">
                    <div class=""question-area""></div> 
                </div>","null","","","","","","","","","","","",""
"","","","","","html-button-response","53","114616","0.0-53.0","BE09D9CF9E874197AD689951633A045C","019cfa62-9feb-78aa-bbf6-8df558f2d5fd","019cfa3a-388e-72ab-ad58-bdeb258f96cd","","448","
                <div class=""stimulus-container"">
                    <img src=""images/semantic_sequence/exploring_nature_semantic/exploring_nature_semantic_8.png"" class=""exp-image"">
                    <div class=""question-area"">
                        <p style=""font-size: 20px; font-weight: bold; margin: 0;"">Is there a person in this image?</p>
                    </div>
                </div>","0","main_experiment_trial","8","exploring_nature_semantic","semantic_sequence","chronological","","","","","","",""
"","","","","","html-keyboard-response","54","115618","0.0-54.0","BE09D9CF9E874197AD689951633A045C","019cfa62-9feb-78aa-bbf6-8df558f2d5fd","019cfa3a-388e-72ab-ad58-bdeb258f96cd","","null","
                <div class=""stimulus-container"">
                    <img src=""images/semantic_sequence/exploring_nature_semantic/exploring_nature_semantic_9.png"" class=""exp-image"">
                    <div class=""question-area""></div> 
                </div>","null","","","","","","","","","","","",""
"","","","","","html-button-response","55","116084","0.0-55.0","BE09D9CF9E874197AD689951633A045C","019cfa62-9feb-78aa-bbf6-8df558f2d5fd","019cfa3a-388e-72ab-ad58-bdeb258f96cd","","464","
                <div class=""stimulus-container"">
                    <img src=""images/semantic_sequence/exploring_nature_semantic/exploring_nature_semantic_9.png"" class=""exp-image"">
                    <div class=""question-area"">
                        <p style=""font-size: 20px; font-weight: bold; margin: 0;"">Is there a person in this image?</p>
                    </div>
                </div>","0","main_experiment_trial","9","exploring_nature_semantic","semantic_sequence","chronological","","","","","","",""
"","","","","","html-keyboard-response","56","117086","0.0-56.0","BE09D9CF9E874197AD689951633A045C","019cfa62-9feb-78aa-bbf6-8df558f2d5fd","019cfa3a-388e-72ab-ad58-bdeb258f96cd","","null","
                <div class=""stimulus-container"">
                    <img src=""images/semantic_sequence/exploring_nature_semantic/exploring_nature_semantic_ten.png"" class=""exp-image"">
                    <div class=""question-area""></div> 
                </div>","null","","","","","","","","","","","",""
"","","","","","html-button-response","57","117602","0.0-57.0","BE09D9CF9E874197AD689951633A045C","019cfa62-9feb-78aa-bbf6-8df558f2d5fd","019cfa3a-388e-72ab-ad58-bdeb258f96cd","","514","
                <div class=""stimulus-container"">
                    <img src=""images/semantic_sequence/exploring_nature_semantic/exploring_nature_semantic_ten.png"" class=""exp-image"">
                    <div class=""question-area"">
                        <p style=""font-size: 20px; font-weight: bold; margin: 0;"">Is there a person in this image?</p>
                    </div>
                </div>","0","main_experiment_trial","ten","exploring_nature_semantic","semantic_sequence","chronological","","","","","","",""
"","","","","","html-keyboard-response","58","122604","0.0-58.0","BE09D9CF9E874197AD689951633A045C","019cfa62-9feb-78aa-bbf6-8df558f2d5fd","019cfa3a-388e-72ab-ad58-bdeb258f96cd","","null","<div style=""background-color: white; width: 100vw; height: 100vh;""></div>","null","","","","","","","","","","","",""
"","","","","","html-keyboard-response","59","123607","0.0-59.0","BE09D9CF9E874197AD689951633A045C","019cfa62-9feb-78aa-bbf6-8df558f2d5fd","019cfa3a-388e-72ab-ad58-bdeb258f96cd","","null","
                <div class=""stimulus-container"">
                    <img src=""images/causal_sequence/package_causal/package_causal_1.png"" class=""exp-image"">
                    <div class=""question-area""></div> 
                </div>","null","","","","","","","","","","","",""
"","","","","","html-button-response","60","124089","0.0-60.0","BE09D9CF9E874197AD689951633A045C","019cfa62-9feb-78aa-bbf6-8df558f2d5fd","019cfa3a-388e-72ab-ad58-bdeb258f96cd","","481","
                <div class=""stimulus-container"">
                    <img src=""images/causal_sequence/package_causal/package_causal_1.png"" class=""exp-image"">
                    <div class=""question-area"">
                        <p style=""font-size: 20px; font-weight: bold; margin: 0;"">Is there a person in this image?</p>
                    </div>
                </div>","0","main_experiment_trial","1","package_causal","causal_sequence","chronological","","","","","","",""
"","","","","","html-keyboard-response","61","125092","0.0-61.0","BE09D9CF9E874197AD689951633A045C","019cfa62-9feb-78aa-bbf6-8df558f2d5fd","019cfa3a-388e-72ab-ad58-bdeb258f96cd","","null","
                <div class=""stimulus-container"">
                    <img src=""images/causal_sequence/package_causal/package_causal_2.png"" class=""exp-image"">
                    <div class=""question-area""></div> 
                </div>","null","","","","","","","","","","","",""
"","","","","","html-button-response","62","126326","0.0-62.0","BE09D9CF9E874197AD689951633A045C","019cfa62-9feb-78aa-bbf6-8df558f2d5fd","019cfa3a-388e-72ab-ad58-bdeb258f96cd","","1233","
                <div class=""stimulus-container"">
                    <img src=""images/causal_sequence/package_causal/package_causal_2.png"" class=""exp-image"">
                    <div class=""question-area"">
                        <p style=""font-size: 20px; font-weight: bold; margin: 0;"">Is there a person in this image?</p>
                    </div>
                </div>","1","main_experiment_trial","2","package_causal","causal_sequence","chronological","","","","","","",""
"","","","","","html-keyboard-response","63","127328","0.0-63.0","BE09D9CF9E874197AD689951633A045C","019cfa62-9feb-78aa-bbf6-8df558f2d5fd","019cfa3a-388e-72ab-ad58-bdeb258f96cd","","null","
                <div class=""stimulus-container"">
                    <img src=""images/causal_sequence/package_causal/package_causal_3.png"" class=""exp-image"">
                    <div class=""question-area""></div> 
                </div>","null","","","","","","","","","","","",""
"","","","","","html-button-response","64","128858","0.0-64.0","BE09D9CF9E874197AD689951633A045C","019cfa62-9feb-78aa-bbf6-8df558f2d5fd","019cfa3a-388e-72ab-ad58-bdeb258f96cd","","1529","
                <div class=""stimulus-container"">
                    <img src=""images/causal_sequence/package_causal/package_causal_3.png"" class=""exp-image"">
                    <div class=""question-area"">
                        <p style=""font-size: 20px; font-weight: bold; margin: 0;"">Is there a person in this image?</p>
                    </div>
                </div>","0","main_experiment_trial","3","package_causal","causal_sequence","chronological","","","","","","",""
"","","","","","html-keyboard-response","65","129860","0.0-65.0","BE09D9CF9E874197AD689951633A045C","019cfa62-9feb-78aa-bbf6-8df558f2d5fd","019cfa3a-388e-72ab-ad58-bdeb258f96cd","","null","
                <div class=""stimulus-container"">
                    <img src=""images/causal_sequence/package_causal/package_causal_4.png"" class=""exp-image"">
                    <div class=""question-area""></div> 
                </div>","null","","","","","","","","","","","",""
"","","","","","html-button-response","66","130495","0.0-66.0","BE09D9CF9E874197AD689951633A045C","019cfa62-9feb-78aa-bbf6-8df558f2d5fd","019cfa3a-388e-72ab-ad58-bdeb258f96cd","","634","
                <div class=""stimulus-container"">
                    <img src=""images/causal_sequence/package_causal/package_causal_4.png"" class=""exp-image"">
                    <div class=""question-area"">
                        <p style=""font-size: 20px; font-weight: bold; margin: 0;"">Is there a person in this image?</p>
                    </div>
                </div>","1","main_experiment_trial","4","package_causal","causal_sequence","chronological","","","","","","",""
"","","","","","html-keyboard-response","67","131497","0.0-67.0","BE09D9CF9E874197AD689951633A045C","019cfa62-9feb-78aa-bbf6-8df558f2d5fd","019cfa3a-388e-72ab-ad58-bdeb258f96cd","","null","
                <div class=""stimulus-container"">
                    <img src=""images/causal_sequence/package_causal/package_causal_5.png"" class=""exp-image"">
                    <div class=""question-area""></div> 
                </div>","null","","","","","","","","","","","",""
"","","","","","html-button-response","68","131946","0.0-68.0","BE09D9CF9E874197AD689951633A045C","019cfa62-9feb-78aa-bbf6-8df558f2d5fd","019cfa3a-388e-72ab-ad58-bdeb258f96cd","","447","
                <div class=""stimulus-container"">
                    <img src=""images/causal_sequence/package_causal/package_causal_5.png"" class=""exp-image"">
                    <div class=""question-area"">
                        <p style=""font-size: 20px; font-weight: bold; margin: 0;"">Is there a person in this image?</p>
                    </div>
                </div>","0","main_experiment_trial","5","package_causal","causal_sequence","chronological","","","","","","",""
"","","","","","html-keyboard-response","69","132949","0.0-69.0","BE09D9CF9E874197AD689951633A045C","019cfa62-9feb-78aa-bbf6-8df558f2d5fd","019cfa3a-388e-72ab-ad58-bdeb258f96cd","","null","
                <div class=""stimulus-container"">
                    <img src=""images/causal_sequence/package_causal/package_causal_6.png"" class=""exp-image"">
                    <div class=""question-area""></div> 
                </div>","null","","","","","","","","","","","",""
"","","","","","html-button-response","70","133416","0.0-70.0","BE09D9CF9E874197AD689951633A045C","019cfa62-9feb-78aa-bbf6-8df558f2d5fd","019cfa3a-388e-72ab-ad58-bdeb258f96cd","","465","
                <div class=""stimulus-container"">
                    <img src=""images/causal_sequence/package_causal/package_causal_6.png"" class=""exp-image"">
                    <div class=""question-area"">
                        <p style=""font-size: 20px; font-weight: bold; margin: 0;"">Is there a person in this image?</p>
                    </div>
                </div>","0","main_experiment_trial","6","package_causal","causal_sequence","chronological","","","","","","",""
"","","","","","html-keyboard-response","71","134418","0.0-71.0","BE09D9CF9E874197AD689951633A045C","019cfa62-9feb-78aa-bbf6-8df558f2d5fd","019cfa3a-388e-72ab-ad58-bdeb258f96cd","","null","
                <div class=""stimulus-container"">
                    <img src=""images/causal_sequence/package_causal/package_causal_7.png"" class=""exp-image"">
                    <div class=""question-area""></div> 
                </div>","null","","","","","","","","","","","",""
"","","","","","html-button-response","72","134880","0.0-72.0","BE09D9CF9E874197AD689951633A045C","019cfa62-9feb-78aa-bbf6-8df558f2d5fd","019cfa3a-388e-72ab-ad58-bdeb258f96cd","","460","
                <div class=""stimulus-container"">
                    <img src=""images/causal_sequence/package_causal/package_causal_7.png"" class=""exp-image"">
                    <div class=""question-area"">
                        <p style=""font-size: 20px; font-weight: bold; margin: 0;"">Is there a person in this image?</p>
                    </div>
                </div>","0","main_experiment_trial","7","package_causal","causal_sequence","chronological","","","","","","",""
"","","","","","html-keyboard-response","73","135882","0.0-73.0","BE09D9CF9E874197AD689951633A045C","019cfa62-9feb-78aa-bbf6-8df558f2d5fd","019cfa3a-388e-72ab-ad58-bdeb258f96cd","","null","
                <div class=""stimulus-container"">
                    <img src=""images/causal_sequence/package_causal/package_causal_8.png"" class=""exp-image"">
                    <div class=""question-area""></div> 
                </div>","null","","","","","","","","","","","",""
"","","","","","html-button-response","74","136334","0.0-74.0","BE09D9CF9E874197AD689951633A045C","019cfa62-9feb-78aa-bbf6-8df558f2d5fd","019cfa3a-388e-72ab-ad58-bdeb258f96cd","","450","
                <div class=""stimulus-container"">
                    <img src=""images/causal_sequence/package_causal/package_causal_8.png"" class=""exp-image"">
                    <div class=""question-area"">
                        <p style=""font-size: 20px; font-weight: bold; margin: 0;"">Is there a person in this image?</p>
                    </div>
                </div>","0","main_experiment_trial","8","package_causal","causal_sequence","chronological","","","","","","",""
"","","","","","html-keyboard-response","75","137336","0.0-75.0","BE09D9CF9E874197AD689951633A045C","019cfa62-9feb-78aa-bbf6-8df558f2d5fd","019cfa3a-388e-72ab-ad58-bdeb258f96cd","","null","
                <div class=""stimulus-container"">
                    <img src=""images/causal_sequence/package_causal/package_causal_9.png"" class=""exp-image"">
                    <div class=""question-area""></div> 
                </div>","null","","","","","","","","","","","",""
"","","","","","html-button-response","76","137819","0.0-76.0","BE09D9CF9E874197AD689951633A045C","019cfa62-9feb-78aa-bbf6-8df558f2d5fd","019cfa3a-388e-72ab-ad58-bdeb258f96cd","","481","
                <div class=""stimulus-container"">
                    <img src=""images/causal_sequence/package_causal/package_causal_9.png"" class=""exp-image"">
                    <div class=""question-area"">
                        <p style=""font-size: 20px; font-weight: bold; margin: 0;"">Is there a person in this image?</p>
                    </div>
                </div>","0","main_experiment_trial","9","package_causal","causal_sequence","chronological","","","","","","",""
"","","","","","html-keyboard-response","77","138823","0.0-77.0","BE09D9CF9E874197AD689951633A045C","019cfa62-9feb-78aa-bbf6-8df558f2d5fd","019cfa3a-388e-72ab-ad58-bdeb258f96cd","","null","
                <div class=""stimulus-container"">
                    <img src=""images/causal_sequence/package_causal/package_causal_ten.png"" class=""exp-image"">
                    <div class=""question-area""></div> 
                </div>","null","","","","","","","","","","","",""
"","","","","","html-button-response","78","139352","0.0-78.0","BE09D9CF9E874197AD689951633A045C","019cfa62-9feb-78aa-bbf6-8df558f2d5fd","019cfa3a-388e-72ab-ad58-bdeb258f96cd","","527","
                <div class=""stimulus-container"">
                    <img src=""images/causal_sequence/package_causal/package_causal_ten.png"" class=""exp-image"">
                    <div class=""question-area"">
                        <p style=""font-size: 20px; font-weight: bold; margin: 0;"">Is there a person in this image?</p>
                    </div>
                </div>","0","main_experiment_trial","ten","package_causal","causal_sequence","chronological","","","","","","",""
"","","","","","html-keyboard-response","79","144354","0.0-79.0","BE09D9CF9E874197AD689951633A045C","019cfa62-9feb-78aa-bbf6-8df558f2d5fd","019cfa3a-388e-72ab-ad58-bdeb258f96cd","","null","<div style=""background-color: white; width: 100vw; height: 100vh;""></div>","null","","","","","","","","","","","",""
"","","","","","html-keyboard-response","80","145357","0.0-80.0","BE09D9CF9E874197AD689951633A045C","019cfa62-9feb-78aa-bbf6-8df558f2d5fd","019cfa3a-388e-72ab-ad58-bdeb258f96cd","","null","
                <div class=""stimulus-container"">
                    <img src=""images/causal_sequence/the_performance_causal/the_performance_causal_1.png"" class=""exp-image"">
                    <div class=""question-area""></div> 
                </div>","null","","","","","","","","","","","",""
"","","","","","html-button-response","81","146109","0.0-81.0","BE09D9CF9E874197AD689951633A045C","019cfa62-9feb-78aa-bbf6-8df558f2d5fd","019cfa3a-388e-72ab-ad58-bdeb258f96cd","","751","
                <div class=""stimulus-container"">
                    <img src=""images/causal_sequence/the_performance_causal/the_performance_causal_1.png"" class=""exp-image"">
                    <div class=""question-area"">
                        <p style=""font-size: 20px; font-weight: bold; margin: 0;"">Is there a person in this image?</p>
                    </div>
                </div>","0","main_experiment_trial","1","the_performance_causal","causal_sequence","chronological","","","","","","",""
"","","","","","html-keyboard-response","82","147111","0.0-82.0","BE09D9CF9E874197AD689951633A045C","019cfa62-9feb-78aa-bbf6-8df558f2d5fd","019cfa3a-388e-72ab-ad58-bdeb258f96cd","","null","
                <div class=""stimulus-container"">
                    <img src=""images/causal_sequence/the_performance_causal/the_performance_causal_2.png"" class=""exp-image"">
                    <div class=""question-area""></div> 
                </div>","null","","","","","","","","","","","",""
"","","","","","html-button-response","83","147744","0.0-83.0","BE09D9CF9E874197AD689951633A045C","019cfa62-9feb-78aa-bbf6-8df558f2d5fd","019cfa3a-388e-72ab-ad58-bdeb258f96cd","","631","
                <div class=""stimulus-container"">
                    <img src=""images/causal_sequence/the_performance_causal/the_performance_causal_2.png"" class=""exp-image"">
                    <div class=""question-area"">
                        <p style=""font-size: 20px; font-weight: bold; margin: 0;"">Is there a person in this image?</p>
                    </div>
                </div>","0","main_experiment_trial","2","the_performance_causal","causal_sequence","chronological","","","","","","",""
"","","","","","html-keyboard-response","84","148747","0.0-84.0","BE09D9CF9E874197AD689951633A045C","019cfa62-9feb-78aa-bbf6-8df558f2d5fd","019cfa3a-388e-72ab-ad58-bdeb258f96cd","","null","
                <div class=""stimulus-container"">
                    <img src=""images/causal_sequence/the_performance_causal/the_performance_causal_3.png"" class=""exp-image"">
                    <div class=""question-area""></div> 
                </div>","null","","","","","","","","","","","",""
"","","","","","html-button-response","85","149209","0.0-85.0","BE09D9CF9E874197AD689951633A045C","019cfa62-9feb-78aa-bbf6-8df558f2d5fd","019cfa3a-388e-72ab-ad58-bdeb258f96cd","","460","
                <div class=""stimulus-container"">
                    <img src=""images/causal_sequence/the_performance_causal/the_performance_causal_3.png"" class=""exp-image"">
                    <div class=""question-area"">
                        <p style=""font-size: 20px; font-weight: bold; margin: 0;"">Is there a person in this image?</p>
                    </div>
                </div>","0","main_experiment_trial","3","the_performance_causal","causal_sequence","chronological","","","","","","",""
"","","","","","html-keyboard-response","86","150211","0.0-86.0","BE09D9CF9E874197AD689951633A045C","019cfa62-9feb-78aa-bbf6-8df558f2d5fd","019cfa3a-388e-72ab-ad58-bdeb258f96cd","","null","
                <div class=""stimulus-container"">
                    <img src=""images/causal_sequence/the_performance_causal/the_performance_causal_4.png"" class=""exp-image"">
                    <div class=""question-area""></div> 
                </div>","null","","","","","","","","","","","",""
"","","","","","html-button-response","87","150765","0.0-87.0","BE09D9CF9E874197AD689951633A045C","019cfa62-9feb-78aa-bbf6-8df558f2d5fd","019cfa3a-388e-72ab-ad58-bdeb258f96cd","","552","
                <div class=""stimulus-container"">
                    <img src=""images/causal_sequence/the_performance_causal/the_performance_causal_4.png"" class=""exp-image"">
                    <div class=""question-area"">
                        <p style=""font-size: 20px; font-weight: bold; margin: 0;"">Is there a person in this image?</p>
                    </div>
                </div>","0","main_experiment_trial","4","the_performance_causal","causal_sequence","chronological","","","","","","",""
"","","","","","html-keyboard-response","88","151767","0.0-88.0","BE09D9CF9E874197AD689951633A045C","019cfa62-9feb-78aa-bbf6-8df558f2d5fd","019cfa3a-388e-72ab-ad58-bdeb258f96cd","","null","
                <div class=""stimulus-container"">
                    <img src=""images/causal_sequence/the_performance_causal/the_performance_causal_5.png"" class=""exp-image"">
                    <div class=""question-area""></div> 
                </div>","null","","","","","","","","","","","",""
"","","","","","html-button-response","89","152245","0.0-89.0","BE09D9CF9E874197AD689951633A045C","019cfa62-9feb-78aa-bbf6-8df558f2d5fd","019cfa3a-388e-72ab-ad58-bdeb258f96cd","","478","
                <div class=""stimulus-container"">
                    <img src=""images/causal_sequence/the_performance_causal/the_performance_causal_5.png"" class=""exp-image"">
                    <div class=""question-area"">
                        <p style=""font-size: 20px; font-weight: bold; margin: 0;"">Is there a person in this image?</p>
                    </div>
                </div>","0","main_experiment_trial","5","the_performance_causal","causal_sequence","chronological","","","","","","",""
"","","","","","html-keyboard-response","90","153248","0.0-90.0","BE09D9CF9E874197AD689951633A045C","019cfa62-9feb-78aa-bbf6-8df558f2d5fd","019cfa3a-388e-72ab-ad58-bdeb258f96cd","","null","
                <div class=""stimulus-container"">
                    <img src=""images/causal_sequence/the_performance_causal/the_performance_causal_6.png"" class=""exp-image"">
                    <div class=""question-area""></div> 
                </div>","null","","","","","","","","","","","",""
"","","","","","html-button-response","91","153883","0.0-91.0","BE09D9CF9E874197AD689951633A045C","019cfa62-9feb-78aa-bbf6-8df558f2d5fd","019cfa3a-388e-72ab-ad58-bdeb258f96cd","","633","
                <div class=""stimulus-container"">
                    <img src=""images/causal_sequence/the_performance_causal/the_performance_causal_6.png"" class=""exp-image"">
                    <div class=""question-area"">
                        <p style=""font-size: 20px; font-weight: bold; margin: 0;"">Is there a person in this image?</p>
                    </div>
                </div>","0","main_experiment_trial","6","the_performance_causal","causal_sequence","chronological","","","","","","",""
"","","","","","html-keyboard-response","92","154886","0.0-92.0","BE09D9CF9E874197AD689951633A045C","019cfa62-9feb-78aa-bbf6-8df558f2d5fd","019cfa3a-388e-72ab-ad58-bdeb258f96cd","","null","
                <div class=""stimulus-container"">
                    <img src=""images/causal_sequence/the_performance_causal/the_performance_causal_7.png"" class=""exp-image"">
                    <div class=""question-area""></div> 
                </div>","null","","","","","","","","","","","",""
"","","","","","html-button-response","93","155448","0.0-93.0","BE09D9CF9E874197AD689951633A045C","019cfa62-9feb-78aa-bbf6-8df558f2d5fd","019cfa3a-388e-72ab-ad58-bdeb258f96cd","","560","
                <div class=""stimulus-container"">
                    <img src=""images/causal_sequence/the_performance_causal/the_performance_causal_7.png"" class=""exp-image"">
                    <div class=""question-area"">
                        <p style=""font-size: 20px; font-weight: bold; margin: 0;"">Is there a person in this image?</p>
                    </div>
                </div>","0","main_experiment_trial","7","the_performance_causal","causal_sequence","chronological","","","","","","",""
"","","","","","html-keyboard-response","94","156451","0.0-94.0","BE09D9CF9E874197AD689951633A045C","019cfa62-9feb-78aa-bbf6-8df558f2d5fd","019cfa3a-388e-72ab-ad58-bdeb258f96cd","","null","
                <div class=""stimulus-container"">
                    <img src=""images/causal_sequence/the_performance_causal/the_performance_causal_8.png"" class=""exp-image"">
                    <div class=""question-area""></div> 
                </div>","null","","","","","","","","","","","",""
"","","","","","html-button-response","95","156936","0.0-95.0","BE09D9CF9E874197AD689951633A045C","019cfa62-9feb-78aa-bbf6-8df558f2d5fd","019cfa3a-388e-72ab-ad58-bdeb258f96cd","","483","
                <div class=""stimulus-container"">
                    <img src=""images/causal_sequence/the_performance_causal/the_performance_causal_8.png"" class=""exp-image"">
                    <div class=""question-area"">
                        <p style=""font-size: 20px; font-weight: bold; margin: 0;"">Is there a person in this image?</p>
                    </div>
                </div>","0","main_experiment_trial","8","the_performance_causal","causal_sequence","chronological","","","","","","",""
"","","","","","html-keyboard-response","96","157939","0.0-96.0","BE09D9CF9E874197AD689951633A045C","019cfa62-9feb-78aa-bbf6-8df558f2d5fd","019cfa3a-388e-72ab-ad58-bdeb258f96cd","","null","
                <div class=""stimulus-container"">
                    <img src=""images/causal_sequence/the_performance_causal/the_performance_causal_9.png"" class=""exp-image"">
                    <div class=""question-area""></div> 
                </div>","null","","","","","","","","","","","",""
"","","","","","html-button-response","97","158435","0.0-97.0","BE09D9CF9E874197AD689951633A045C","019cfa62-9feb-78aa-bbf6-8df558f2d5fd","019cfa3a-388e-72ab-ad58-bdeb258f96cd","","495","
                <div class=""stimulus-container"">
                    <img src=""images/causal_sequence/the_performance_causal/the_performance_causal_9.png"" class=""exp-image"">
                    <div class=""question-area"">
                        <p style=""font-size: 20px; font-weight: bold; margin: 0;"">Is there a person in this image?</p>
                    </div>
                </div>","0","main_experiment_trial","9","the_performance_causal","causal_sequence","chronological","","","","","","",""
"","","","","","html-keyboard-response","98","159437","0.0-98.0","BE09D9CF9E874197AD689951633A045C","019cfa62-9feb-78aa-bbf6-8df558f2d5fd","019cfa3a-388e-72ab-ad58-bdeb258f96cd","","null","
                <div class=""stimulus-container"">
                    <img src=""images/causal_sequence/the_performance_causal/the_performance_causal_ten.png"" class=""exp-image"">
                    <div class=""question-area""></div> 
                </div>","null","","","","","","","","","","","",""
"","","","","","html-button-response","99","159907","0.0-99.0","BE09D9CF9E874197AD689951633A045C","019cfa62-9feb-78aa-bbf6-8df558f2d5fd","019cfa3a-388e-72ab-ad58-bdeb258f96cd","","469","
                <div class=""stimulus-container"">
                    <img src=""images/causal_sequence/the_performance_causal/the_performance_causal_ten.png"" class=""exp-image"">
                    <div class=""question-area"">
                        <p style=""font-size: 20px; font-weight: bold; margin: 0;"">Is there a person in this image?</p>
                    </div>
                </div>","0","main_experiment_trial","ten","the_performance_causal","causal_sequence","chronological","","","","","","",""
"","","","","","html-keyboard-response","100","164910","0.0-100.0","BE09D9CF9E874197AD689951633A045C","019cfa62-9feb-78aa-bbf6-8df558f2d5fd","019cfa3a-388e-72ab-ad58-bdeb258f96cd","","null","<div style=""background-color: white; width: 100vw; height: 100vh;""></div>","null","","","","","","","","","","","",""
"","","","","","html-keyboard-response","101","165914","0.0-101.0","BE09D9CF9E874197AD689951633A045C","019cfa62-9feb-78aa-bbf6-8df558f2d5fd","019cfa3a-388e-72ab-ad58-bdeb258f96cd","","null","
                <div class=""stimulus-container"">
                    <img src=""images/causal_sequence/dog_causal/dog_causal_1.png"" class=""exp-image"">
                    <div class=""question-area""></div> 
                </div>","null","","","","","","","","","","","",""
"","","","","","html-button-response","102","166577","0.0-102.0","BE09D9CF9E874197AD689951633A045C","019cfa62-9feb-78aa-bbf6-8df558f2d5fd","019cfa3a-388e-72ab-ad58-bdeb258f96cd","","661","
                <div class=""stimulus-container"">
                    <img src=""images/causal_sequence/dog_causal/dog_causal_1.png"" class=""exp-image"">
                    <div class=""question-area"">
                        <p style=""font-size: 20px; font-weight: bold; margin: 0;"">Is there a person in this image?</p>
                    </div>
                </div>","0","main_experiment_trial","1","dog_causal","causal_sequence","chronological","","","","","","",""
"","","","","","html-keyboard-response","103","167579","0.0-103.0","BE09D9CF9E874197AD689951633A045C","019cfa62-9feb-78aa-bbf6-8df558f2d5fd","019cfa3a-388e-72ab-ad58-bdeb258f96cd","","null","
                <div class=""stimulus-container"">
                    <img src=""images/causal_sequence/dog_causal/dog_causal_2.png"" class=""exp-image"">
                    <div class=""question-area""></div> 
                </div>","null","","","","","","","","","","","",""
"","","","","","html-button-response","104","168079","0.0-104.0","BE09D9CF9E874197AD689951633A045C","019cfa62-9feb-78aa-bbf6-8df558f2d5fd","019cfa3a-388e-72ab-ad58-bdeb258f96cd","","497","
                <div class=""stimulus-container"">
                    <img src=""images/causal_sequence/dog_causal/dog_causal_2.png"" class=""exp-image"">
                    <div class=""question-area"">
                        <p style=""font-size: 20px; font-weight: bold; margin: 0;"">Is there a person in this image?</p>
                    </div>
                </div>","0","main_experiment_trial","2","dog_causal","causal_sequence","chronological","","","","","","",""
"","","","","","html-keyboard-response","105","169081","0.0-105.0","BE09D9CF9E874197AD689951633A045C","019cfa62-9feb-78aa-bbf6-8df558f2d5fd","019cfa3a-388e-72ab-ad58-bdeb258f96cd","","null","
                <div class=""stimulus-container"">
                    <img src=""images/causal_sequence/dog_causal/dog_causal_3.png"" class=""exp-image"">
                    <div class=""question-area""></div> 
                </div>","null","","","","","","","","","","","",""
"","","","","","html-button-response","106","169508","0.0-106.0","BE09D9CF9E874197AD689951633A045C","019cfa62-9feb-78aa-bbf6-8df558f2d5fd","019cfa3a-388e-72ab-ad58-bdeb258f96cd","","425","
                <div class=""stimulus-container"">
                    <img src=""images/causal_sequence/dog_causal/dog_causal_3.png"" class=""exp-image"">
                    <div class=""question-area"">
                        <p style=""font-size: 20px; font-weight: bold; margin: 0;"">Is there a person in this image?</p>
                    </div>
                </div>","0","main_experiment_trial","3","dog_causal","causal_sequence","chronological","","","","","","",""
"","","","","","html-keyboard-response","107","170510","0.0-107.0","BE09D9CF9E874197AD689951633A045C","019cfa62-9feb-78aa-bbf6-8df558f2d5fd","019cfa3a-388e-72ab-ad58-bdeb258f96cd","","null","
                <div class=""stimulus-container"">
                    <img src=""images/causal_sequence/dog_causal/dog_causal_4.png"" class=""exp-image"">
                    <div class=""question-area""></div> 
                </div>","null","","","","","","","","","","","",""
"","","","","","html-button-response","108","170930","0.0-108.0","BE09D9CF9E874197AD689951633A045C","019cfa62-9feb-78aa-bbf6-8df558f2d5fd","019cfa3a-388e-72ab-ad58-bdeb258f96cd","","419","
                <div class=""stimulus-container"">
                    <img src=""images/causal_sequence/dog_causal/dog_causal_4.png"" class=""exp-image"">
                    <div class=""question-area"">
                        <p style=""font-size: 20px; font-weight: bold; margin: 0;"">Is there a person in this image?</p>
                    </div>
                </div>","0","main_experiment_trial","4","dog_causal","causal_sequence","chronological","","","","","","",""
"","","","","","html-keyboard-response","109","171933","0.0-109.0","BE09D9CF9E874197AD689951633A045C","019cfa62-9feb-78aa-bbf6-8df558f2d5fd","019cfa3a-388e-72ab-ad58-bdeb258f96cd","","null","
                <div class=""stimulus-container"">
                    <img src=""images/causal_sequence/dog_causal/dog_causal_5.png"" class=""exp-image"">
                    <div class=""question-area""></div> 
                </div>","null","","","","","","","","","","","",""
"","","","","","html-button-response","110","172315","0.0-110.0","BE09D9CF9E874197AD689951633A045C","019cfa62-9feb-78aa-bbf6-8df558f2d5fd","019cfa3a-388e-72ab-ad58-bdeb258f96cd","","380","
                <div class=""stimulus-container"">
                    <img src=""images/causal_sequence/dog_causal/dog_causal_5.png"" class=""exp-image"">
                    <div class=""question-area"">
                        <p style=""font-size: 20px; font-weight: bold; margin: 0;"">Is there a person in this image?</p>
                    </div>
                </div>","0","main_experiment_trial","5","dog_causal","causal_sequence","chronological","","","","","","",""
"","","","","","html-keyboard-response","111","173318","0.0-111.0","BE09D9CF9E874197AD689951633A045C","019cfa62-9feb-78aa-bbf6-8df558f2d5fd","019cfa3a-388e-72ab-ad58-bdeb258f96cd","","null","
                <div class=""stimulus-container"">
                    <img src=""images/causal_sequence/dog_causal/dog_causal_6.png"" class=""exp-image"">
                    <div class=""question-area""></div> 
                </div>","null","","","","","","","","","","","",""
"","","","","","html-button-response","112","173715","0.0-112.0","BE09D9CF9E874197AD689951633A045C","019cfa62-9feb-78aa-bbf6-8df558f2d5fd","019cfa3a-388e-72ab-ad58-bdeb258f96cd","","396","
                <div class=""stimulus-container"">
                    <img src=""images/causal_sequence/dog_causal/dog_causal_6.png"" class=""exp-image"">
                    <div class=""question-area"">
                        <p style=""font-size: 20px; font-weight: bold; margin: 0;"">Is there a person in this image?</p>
                    </div>
                </div>","0","main_experiment_trial","6","dog_causal","causal_sequence","chronological","","","","","","",""
"","","","","","html-keyboard-response","113","174718","0.0-113.0","BE09D9CF9E874197AD689951633A045C","019cfa62-9feb-78aa-bbf6-8df558f2d5fd","019cfa3a-388e-72ab-ad58-bdeb258f96cd","","null","
                <div class=""stimulus-container"">
                    <img src=""images/causal_sequence/dog_causal/dog_causal_7.png"" class=""exp-image"">
                    <div class=""question-area""></div> 
                </div>","null","","","","","","","","","","","",""
"","","","","","html-button-response","114","175168","0.0-114.0","BE09D9CF9E874197AD689951633A045C","019cfa62-9feb-78aa-bbf6-8df558f2d5fd","019cfa3a-388e-72ab-ad58-bdeb258f96cd","","448","
                <div class=""stimulus-container"">
                    <img src=""images/causal_sequence/dog_causal/dog_causal_7.png"" class=""exp-image"">
                    <div class=""question-area"">
                        <p style=""font-size: 20px; font-weight: bold; margin: 0;"">Is there a person in this image?</p>
                    </div>
                </div>","0","main_experiment_trial","7","dog_causal","causal_sequence","chronological","","","","","","",""
"","","","","","html-keyboard-response","115","176170","0.0-115.0","BE09D9CF9E874197AD689951633A045C","019cfa62-9feb-78aa-bbf6-8df558f2d5fd","019cfa3a-388e-72ab-ad58-bdeb258f96cd","","null","
                <div class=""stimulus-container"">
                    <img src=""images/causal_sequence/dog_causal/dog_causal_8.png"" class=""exp-image"">
                    <div class=""question-area""></div> 
                </div>","null","","","","","","","","","","","",""
"","","","","","html-button-response","116","176665","0.0-116.0","BE09D9CF9E874197AD689951633A045C","019cfa62-9feb-78aa-bbf6-8df558f2d5fd","019cfa3a-388e-72ab-ad58-bdeb258f96cd","","493","
                <div class=""stimulus-container"">
                    <img src=""images/causal_sequence/dog_causal/dog_causal_8.png"" class=""exp-image"">
                    <div class=""question-area"">
                        <p style=""font-size: 20px; font-weight: bold; margin: 0;"">Is there a person in this image?</p>
                    </div>
                </div>","0","main_experiment_trial","8","dog_causal","causal_sequence","chronological","","","","","","",""
"","","","","","html-keyboard-response","117","177667","0.0-117.0","BE09D9CF9E874197AD689951633A045C","019cfa62-9feb-78aa-bbf6-8df558f2d5fd","019cfa3a-388e-72ab-ad58-bdeb258f96cd","","null","
                <div class=""stimulus-container"">
                    <img src=""images/causal_sequence/dog_causal/dog_causal_9.png"" class=""exp-image"">
                    <div class=""question-area""></div> 
                </div>","null","","","","","","","","","","","",""
"","","","","","html-button-response","118","178070","0.0-118.0","BE09D9CF9E874197AD689951633A045C","019cfa62-9feb-78aa-bbf6-8df558f2d5fd","019cfa3a-388e-72ab-ad58-bdeb258f96cd","","401","
                <div class=""stimulus-container"">
                    <img src=""images/causal_sequence/dog_causal/dog_causal_9.png"" class=""exp-image"">
                    <div class=""question-area"">
                        <p style=""font-size: 20px; font-weight: bold; margin: 0;"">Is there a person in this image?</p>
                    </div>
                </div>","0","main_experiment_trial","9","dog_causal","causal_sequence","chronological","","","","","","",""
"","","","","","html-keyboard-response","119","179072","0.0-119.0","BE09D9CF9E874197AD689951633A045C","019cfa62-9feb-78aa-bbf6-8df558f2d5fd","019cfa3a-388e-72ab-ad58-bdeb258f96cd","","null","
                <div class=""stimulus-container"">
                    <img src=""images/causal_sequence/dog_causal/dog_causal_ten.png"" class=""exp-image"">
                    <div class=""question-area""></div> 
                </div>","null","","","","","","","","","","","",""
"","","","","","html-button-response","120","179469","0.0-120.0","BE09D9CF9E874197AD689951633A045C","019cfa62-9feb-78aa-bbf6-8df558f2d5fd","019cfa3a-388e-72ab-ad58-bdeb258f96cd","","396","
                <div class=""stimulus-container"">
                    <img src=""images/causal_sequence/dog_causal/dog_causal_ten.png"" class=""exp-image"">
                    <div class=""question-area"">
                        <p style=""font-size: 20px; font-weight: bold; margin: 0;"">Is there a person in this image?</p>
                    </div>
                </div>","0","main_experiment_trial","ten","dog_causal","causal_sequence","chronological","","","","","","",""
"","","","","","html-keyboard-response","121","184472","0.0-121.0","BE09D9CF9E874197AD689951633A045C","019cfa62-9feb-78aa-bbf6-8df558f2d5fd","019cfa3a-388e-72ab-ad58-bdeb258f96cd","","null","<div style=""background-color: white; width: 100vw; height: 100vh;""></div>","null","","","","","","","","","","","",""
"","","","","","html-keyboard-response","122","185475","0.0-122.0","BE09D9CF9E874197AD689951633A045C","019cfa62-9feb-78aa-bbf6-8df558f2d5fd","019cfa3a-388e-72ab-ad58-bdeb258f96cd","","null","
                <div class=""stimulus-container"">
                    <img src=""images/semantic_sequence/redecorating_a_house_semantic/redecorating_a_house_semantic_1.png"" class=""exp-image"">
                    <div class=""question-area""></div> 
                </div>","null","","","","","","","","","","","",""
"","","","","","html-button-response","123","186174","0.0-123.0","BE09D9CF9E874197AD689951633A045C","019cfa62-9feb-78aa-bbf6-8df558f2d5fd","019cfa3a-388e-72ab-ad58-bdeb258f96cd","","698","
                <div class=""stimulus-container"">
                    <img src=""images/semantic_sequence/redecorating_a_house_semantic/redecorating_a_house_semantic_1.png"" class=""exp-image"">
                    <div class=""question-area"">
                        <p style=""font-size: 20px; font-weight: bold; margin: 0;"">Is there a person in this image?</p>
                    </div>
                </div>","0","main_experiment_trial","1","redecorating_a_house_semantic","semantic_sequence","chronological","","","","","","",""
"","","","","","html-keyboard-response","124","187176","0.0-124.0","BE09D9CF9E874197AD689951633A045C","019cfa62-9feb-78aa-bbf6-8df558f2d5fd","019cfa3a-388e-72ab-ad58-bdeb258f96cd","","null","
                <div class=""stimulus-container"">
                    <img src=""images/semantic_sequence/redecorating_a_house_semantic/redecorating_a_house_semantic_2.png"" class=""exp-image"">
                    <div class=""question-area""></div> 
                </div>","null","","","","","","","","","","","",""
"","","","","","html-button-response","125","187625","0.0-125.0","BE09D9CF9E874197AD689951633A045C","019cfa62-9feb-78aa-bbf6-8df558f2d5fd","019cfa3a-388e-72ab-ad58-bdeb258f96cd","","446","
                <div class=""stimulus-container"">
                    <img src=""images/semantic_sequence/redecorating_a_house_semantic/redecorating_a_house_semantic_2.png"" class=""exp-image"">
                    <div class=""question-area"">
                        <p style=""font-size: 20px; font-weight: bold; margin: 0;"">Is there a person in this image?</p>
                    </div>
                </div>","0","main_experiment_trial","2","redecorating_a_house_semantic","semantic_sequence","chronological","","","","","","",""
"","","","","","html-keyboard-response","126","188627","0.0-126.0","BE09D9CF9E874197AD689951633A045C","019cfa62-9feb-78aa-bbf6-8df558f2d5fd","019cfa3a-388e-72ab-ad58-bdeb258f96cd","","null","
                <div class=""stimulus-container"">
                    <img src=""images/semantic_sequence/redecorating_a_house_semantic/redecorating_a_house_semantic_3.png"" class=""exp-image"">
                    <div class=""question-area""></div> 
                </div>","null","","","","","","","","","","","",""
"","","","","","html-button-response","127","189081","0.0-127.0","BE09D9CF9E874197AD689951633A045C","019cfa62-9feb-78aa-bbf6-8df558f2d5fd","019cfa3a-388e-72ab-ad58-bdeb258f96cd","","452","
                <div class=""stimulus-container"">
                    <img src=""images/semantic_sequence/redecorating_a_house_semantic/redecorating_a_house_semantic_3.png"" class=""exp-image"">
                    <div class=""question-area"">
                        <p style=""font-size: 20px; font-weight: bold; margin: 0;"">Is there a person in this image?</p>
                    </div>
                </div>","0","main_experiment_trial","3","redecorating_a_house_semantic","semantic_sequence","chronological","","","","","","",""
"","","","","","html-keyboard-response","128","190083","0.0-128.0","BE09D9CF9E874197AD689951633A045C","019cfa62-9feb-78aa-bbf6-8df558f2d5fd","019cfa3a-388e-72ab-ad58-bdeb258f96cd","","null","
                <div class=""stimulus-container"">
                    <img src=""images/semantic_sequence/redecorating_a_house_semantic/redecorating_a_house_semantic_4.png"" class=""exp-image"">
                    <div class=""question-area""></div> 
                </div>","null","","","","","","","","","","","",""
"","","","","","html-button-response","129","190578","0.0-129.0","BE09D9CF9E874197AD689951633A045C","019cfa62-9feb-78aa-bbf6-8df558f2d5fd","019cfa3a-388e-72ab-ad58-bdeb258f96cd","","494","
                <div class=""stimulus-container"">
                    <img src=""images/semantic_sequence/redecorating_a_house_semantic/redecorating_a_house_semantic_4.png"" class=""exp-image"">
                    <div class=""question-area"">
                        <p style=""font-size: 20px; font-weight: bold; margin: 0;"">Is there a person in this image?</p>
                    </div>
                </div>","0","main_experiment_trial","4","redecorating_a_house_semantic","semantic_sequence","chronological","","","","","","",""
"","","","","","html-keyboard-response","130","191581","0.0-130.0","BE09D9CF9E874197AD689951633A045C","019cfa62-9feb-78aa-bbf6-8df558f2d5fd","019cfa3a-388e-72ab-ad58-bdeb258f96cd","","null","
                <div class=""stimulus-container"">
                    <img src=""images/semantic_sequence/redecorating_a_house_semantic/redecorating_a_house_semantic_5.png"" class=""exp-image"">
                    <div class=""question-area""></div> 
                </div>","null","","","","","","","","","","","",""
"","","","","","html-button-response","131","192015","0.0-131.0","BE09D9CF9E874197AD689951633A045C","019cfa62-9feb-78aa-bbf6-8df558f2d5fd","019cfa3a-388e-72ab-ad58-bdeb258f96cd","","432","
                <div class=""stimulus-container"">
                    <img src=""images/semantic_sequence/redecorating_a_house_semantic/redecorating_a_house_semantic_5.png"" class=""exp-image"">
                    <div class=""question-area"">
                        <p style=""font-size: 20px; font-weight: bold; margin: 0;"">Is there a person in this image?</p>
                    </div>
                </div>","0","main_experiment_trial","5","redecorating_a_house_semantic","semantic_sequence","chronological","","","","","","",""
"","","","","","html-keyboard-response","132","193017","0.0-132.0","BE09D9CF9E874197AD689951633A045C","019cfa62-9feb-78aa-bbf6-8df558f2d5fd","019cfa3a-388e-72ab-ad58-bdeb258f96cd","","null","
                <div class=""stimulus-container"">
                    <img src=""images/semantic_sequence/redecorating_a_house_semantic/redecorating_a_house_semantic_6.png"" class=""exp-image"">
                    <div class=""question-area""></div> 
                </div>","null","","","","","","","","","","","",""
"","","","","","html-button-response","133","193415","0.0-133.0","BE09D9CF9E874197AD689951633A045C","019cfa62-9feb-78aa-bbf6-8df558f2d5fd","019cfa3a-388e-72ab-ad58-bdeb258f96cd","","396","
                <div class=""stimulus-container"">
                    <img src=""images/semantic_sequence/redecorating_a_house_semantic/redecorating_a_house_semantic_6.png"" class=""exp-image"">
                    <div class=""question-area"">
                        <p style=""font-size: 20px; font-weight: bold; margin: 0;"">Is there a person in this image?</p>
                    </div>
                </div>","0","main_experiment_trial","6","redecorating_a_house_semantic","semantic_sequence","chronological","","","","","","",""
"","","","","","html-keyboard-response","134","194418","0.0-134.0","BE09D9CF9E874197AD689951633A045C","019cfa62-9feb-78aa-bbf6-8df558f2d5fd","019cfa3a-388e-72ab-ad58-bdeb258f96cd","","null","
                <div class=""stimulus-container"">
                    <img src=""images/semantic_sequence/redecorating_a_house_semantic/redecorating_a_house_semantic_7.png"" class=""exp-image"">
                    <div class=""question-area""></div> 
                </div>","null","","","","","","","","","","","",""
"","","","","","html-button-response","135","194931","0.0-135.0","BE09D9CF9E874197AD689951633A045C","019cfa62-9feb-78aa-bbf6-8df558f2d5fd","019cfa3a-388e-72ab-ad58-bdeb258f96cd","","511","
                <div class=""stimulus-container"">
                    <img src=""images/semantic_sequence/redecorating_a_house_semantic/redecorating_a_house_semantic_7.png"" class=""exp-image"">
                    <div class=""question-area"">
                        <p style=""font-size: 20px; font-weight: bold; margin: 0;"">Is there a person in this image?</p>
                    </div>
                </div>","0","main_experiment_trial","7","redecorating_a_house_semantic","semantic_sequence","chronological","","","","","","",""
"","","","","","html-keyboard-response","136","195934","0.0-136.0","BE09D9CF9E874197AD689951633A045C","019cfa62-9feb-78aa-bbf6-8df558f2d5fd","019cfa3a-388e-72ab-ad58-bdeb258f96cd","","null","
                <div class=""stimulus-container"">
                    <img src=""images/semantic_sequence/redecorating_a_house_semantic/redecorating_a_house_semantic_8.png"" class=""exp-image"">
                    <div class=""question-area""></div> 
                </div>","null","","","","","","","","","","","",""
"","","","","","html-button-response","137","196351","0.0-137.0","BE09D9CF9E874197AD689951633A045C","019cfa62-9feb-78aa-bbf6-8df558f2d5fd","019cfa3a-388e-72ab-ad58-bdeb258f96cd","","416","
                <div class=""stimulus-container"">
                    <img src=""images/semantic_sequence/redecorating_a_house_semantic/redecorating_a_house_semantic_8.png"" class=""exp-image"">
                    <div class=""question-area"">
                        <p style=""font-size: 20px; font-weight: bold; margin: 0;"">Is there a person in this image?</p>
                    </div>
                </div>","0","main_experiment_trial","8","redecorating_a_house_semantic","semantic_sequence","chronological","","","","","","",""
"","","","","","html-keyboard-response","138","197354","0.0-138.0","BE09D9CF9E874197AD689951633A045C","019cfa62-9feb-78aa-bbf6-8df558f2d5fd","019cfa3a-388e-72ab-ad58-bdeb258f96cd","","null","
                <div class=""stimulus-container"">
                    <img src=""images/semantic_sequence/redecorating_a_house_semantic/redecorating_a_house_semantic_9.png"" class=""exp-image"">
                    <div class=""question-area""></div> 
                </div>","null","","","","","","","","","","","",""
"","","","","","html-button-response","139","197834","0.0-139.0","BE09D9CF9E874197AD689951633A045C","019cfa62-9feb-78aa-bbf6-8df558f2d5fd","019cfa3a-388e-72ab-ad58-bdeb258f96cd","","478","
                <div class=""stimulus-container"">
                    <img src=""images/semantic_sequence/redecorating_a_house_semantic/redecorating_a_house_semantic_9.png"" class=""exp-image"">
                    <div class=""question-area"">
                        <p style=""font-size: 20px; font-weight: bold; margin: 0;"">Is there a person in this image?</p>
                    </div>
                </div>","0","main_experiment_trial","9","redecorating_a_house_semantic","semantic_sequence","chronological","","","","","","",""
"","","","","","html-keyboard-response","140","198837","0.0-140.0","BE09D9CF9E874197AD689951633A045C","019cfa62-9feb-78aa-bbf6-8df558f2d5fd","019cfa3a-388e-72ab-ad58-bdeb258f96cd","","null","
                <div class=""stimulus-container"">
                    <img src=""images/semantic_sequence/redecorating_a_house_semantic/redecorating_a_house_semantic_ten.png"" class=""exp-image"">
                    <div class=""question-area""></div> 
                </div>","null","","","","","","","","","","","",""
"","","","","","html-button-response","141","199335","0.0-141.0","BE09D9CF9E874197AD689951633A045C","019cfa62-9feb-78aa-bbf6-8df558f2d5fd","019cfa3a-388e-72ab-ad58-bdeb258f96cd","","496","
                <div class=""stimulus-container"">
                    <img src=""images/semantic_sequence/redecorating_a_house_semantic/redecorating_a_house_semantic_ten.png"" class=""exp-image"">
                    <div class=""question-area"">
                        <p style=""font-size: 20px; font-weight: bold; margin: 0;"">Is there a person in this image?</p>
                    </div>
                </div>","0","main_experiment_trial","ten","redecorating_a_house_semantic","semantic_sequence","chronological","","","","","","",""
"","","","","","html-keyboard-response","142","204337","0.0-142.0","BE09D9CF9E874197AD689951633A045C","019cfa62-9feb-78aa-bbf6-8df558f2d5fd","019cfa3a-388e-72ab-ad58-bdeb258f96cd","","null","<div style=""background-color: white; width: 100vw; height: 100vh;""></div>","null","","","","","","","","","","","",""
"","","","","","html-keyboard-response","143","205340","0.0-143.0","BE09D9CF9E874197AD689951633A045C","019cfa62-9feb-78aa-bbf6-8df558f2d5fd","019cfa3a-388e-72ab-ad58-bdeb258f96cd","","null","
                <div class=""stimulus-container"">
                    <img src=""images/semantic_sequence/kitchen_operations_semantic/kitchen_operations_semantic_1.png"" class=""exp-image"">
                    <div class=""question-area""></div> 
                </div>","null","","","","","","","","","","","",""
"","","","","","html-button-response","144","206247","0.0-144.0","BE09D9CF9E874197AD689951633A045C","019cfa62-9feb-78aa-bbf6-8df558f2d5fd","019cfa3a-388e-72ab-ad58-bdeb258f96cd","","905","
                <div class=""stimulus-container"">
                    <img src=""images/semantic_sequence/kitchen_operations_semantic/kitchen_operations_semantic_1.png"" class=""exp-image"">
                    <div class=""question-area"">
                        <p style=""font-size: 20px; font-weight: bold; margin: 0;"">Is there a person in this image?</p>
                    </div>
                </div>","0","main_experiment_trial","1","kitchen_operations_semantic","semantic_sequence","chronological","","","","","","",""
"","","","","","html-keyboard-response","145","207249","0.0-145.0","BE09D9CF9E874197AD689951633A045C","019cfa62-9feb-78aa-bbf6-8df558f2d5fd","019cfa3a-388e-72ab-ad58-bdeb258f96cd","","null","
                <div class=""stimulus-container"">
                    <img src=""images/semantic_sequence/kitchen_operations_semantic/kitchen_operations_semantic_2.png"" class=""exp-image"">
                    <div class=""question-area""></div> 
                </div>","null","","","","","","","","","","","",""
"","","","","","html-button-response","146","207777","0.0-146.0","BE09D9CF9E874197AD689951633A045C","019cfa62-9feb-78aa-bbf6-8df558f2d5fd","019cfa3a-388e-72ab-ad58-bdeb258f96cd","","526","
                <div class=""stimulus-container"">
                    <img src=""images/semantic_sequence/kitchen_operations_semantic/kitchen_operations_semantic_2.png"" class=""exp-image"">
                    <div class=""question-area"">
                        <p style=""font-size: 20px; font-weight: bold; margin: 0;"">Is there a person in this image?</p>
                    </div>
                </div>","0","main_experiment_trial","2","kitchen_operations_semantic","semantic_sequence","chronological","","","","","","",""
"","","","","","html-keyboard-response","147","208780","0.0-147.0","BE09D9CF9E874197AD689951633A045C","019cfa62-9feb-78aa-bbf6-8df558f2d5fd","019cfa3a-388e-72ab-ad58-bdeb258f96cd","","null","
                <div class=""stimulus-container"">
                    <img src=""images/semantic_sequence/kitchen_operations_semantic/kitchen_operations_semantic_3.png"" class=""exp-image"">
                    <div class=""question-area""></div> 
                </div>","null","","","","","","","","","","","",""
"","","","","","html-button-response","148","209230","0.0-148.0","BE09D9CF9E874197AD689951633A045C","019cfa62-9feb-78aa-bbf6-8df558f2d5fd","019cfa3a-388e-72ab-ad58-bdeb258f96cd","","448","
                <div class=""stimulus-container"">
                    <img src=""images/semantic_sequence/kitchen_operations_semantic/kitchen_operations_semantic_3.png"" class=""exp-image"">
                    <div class=""question-area"">
                        <p style=""font-size: 20px; font-weight: bold; margin: 0;"">Is there a person in this image?</p>
                    </div>
                </div>","0","main_experiment_trial","3","kitchen_operations_semantic","semantic_sequence","chronological","","","","","","",""
"","","","","","html-keyboard-response","149","210233","0.0-149.0","BE09D9CF9E874197AD689951633A045C","019cfa62-9feb-78aa-bbf6-8df558f2d5fd","019cfa3a-388e-72ab-ad58-bdeb258f96cd","","null","
                <div class=""stimulus-container"">
                    <img src=""images/semantic_sequence/kitchen_operations_semantic/kitchen_operations_semantic_4.png"" class=""exp-image"">
                    <div class=""question-area""></div> 
                </div>","null","","","","","","","","","","","",""
"","","","","","html-button-response","150","210760","0.0-150.0","BE09D9CF9E874197AD689951633A045C","019cfa62-9feb-78aa-bbf6-8df558f2d5fd","019cfa3a-388e-72ab-ad58-bdeb258f96cd","","525","
                <div class=""stimulus-container"">
                    <img src=""images/semantic_sequence/kitchen_operations_semantic/kitchen_operations_semantic_4.png"" class=""exp-image"">
                    <div class=""question-area"">
                        <p style=""font-size: 20px; font-weight: bold; margin: 0;"">Is there a person in this image?</p>
                    </div>
                </div>","0","main_experiment_trial","4","kitchen_operations_semantic","semantic_sequence","chronological","","","","","","",""
"","","","","","html-keyboard-response","151","211762","0.0-151.0","BE09D9CF9E874197AD689951633A045C","019cfa62-9feb-78aa-bbf6-8df558f2d5fd","019cfa3a-388e-72ab-ad58-bdeb258f96cd","","null","
                <div class=""stimulus-container"">
                    <img src=""images/semantic_sequence/kitchen_operations_semantic/kitchen_operations_semantic_5.png"" class=""exp-image"">
                    <div class=""question-area""></div> 
                </div>","null","","","","","","","","","","","",""
"","","","","","html-button-response","152","212377","0.0-152.0","BE09D9CF9E874197AD689951633A045C","019cfa62-9feb-78aa-bbf6-8df558f2d5fd","019cfa3a-388e-72ab-ad58-bdeb258f96cd","","614","
                <div class=""stimulus-container"">
                    <img src=""images/semantic_sequence/kitchen_operations_semantic/kitchen_operations_semantic_5.png"" class=""exp-image"">
                    <div class=""question-area"">
                        <p style=""font-size: 20px; font-weight: bold; margin: 0;"">Is there a person in this image?</p>
                    </div>
                </div>","0","main_experiment_trial","5","kitchen_operations_semantic","semantic_sequence","chronological","","","","","","",""
"","","","","","html-keyboard-response","153","213378","0.0-153.0","BE09D9CF9E874197AD689951633A045C","019cfa62-9feb-78aa-bbf6-8df558f2d5fd","019cfa3a-388e-72ab-ad58-bdeb258f96cd","","null","
                <div class=""stimulus-container"">
                    <img src=""images/semantic_sequence/kitchen_operations_semantic/kitchen_operations_semantic_6.png"" class=""exp-image"">
                    <div class=""question-area""></div> 
                </div>","null","","","","","","","","","","","",""
"","","","","","html-button-response","154","213868","0.0-154.0","BE09D9CF9E874197AD689951633A045C","019cfa62-9feb-78aa-bbf6-8df558f2d5fd","019cfa3a-388e-72ab-ad58-bdeb258f96cd","","489","
                <div class=""stimulus-container"">
                    <img src=""images/semantic_sequence/kitchen_operations_semantic/kitchen_operations_semantic_6.png"" class=""exp-image"">
                    <div class=""question-area"">
                        <p style=""font-size: 20px; font-weight: bold; margin: 0;"">Is there a person in this image?</p>
                    </div>
                </div>","0","main_experiment_trial","6","kitchen_operations_semantic","semantic_sequence","chronological","","","","","","",""
"","","","","","html-keyboard-response","155","214870","0.0-155.0","BE09D9CF9E874197AD689951633A045C","019cfa62-9feb-78aa-bbf6-8df558f2d5fd","019cfa3a-388e-72ab-ad58-bdeb258f96cd","","null","
                <div class=""stimulus-container"">
                    <img src=""images/semantic_sequence/kitchen_operations_semantic/kitchen_operations_semantic_7.png"" class=""exp-image"">
                    <div class=""question-area""></div> 
                </div>","null","","","","","","","","","","","",""
"","","","","","html-button-response","156","215435","0.0-156.0","BE09D9CF9E874197AD689951633A045C","019cfa62-9feb-78aa-bbf6-8df558f2d5fd","019cfa3a-388e-72ab-ad58-bdeb258f96cd","","563","
                <div class=""stimulus-container"">
                    <img src=""images/semantic_sequence/kitchen_operations_semantic/kitchen_operations_semantic_7.png"" class=""exp-image"">
                    <div class=""question-area"">
                        <p style=""font-size: 20px; font-weight: bold; margin: 0;"">Is there a person in this image?</p>
                    </div>
                </div>","0","main_experiment_trial","7","kitchen_operations_semantic","semantic_sequence","chronological","","","","","","",""
"","","","","","html-keyboard-response","157","216437","0.0-157.0","BE09D9CF9E874197AD689951633A045C","019cfa62-9feb-78aa-bbf6-8df558f2d5fd","019cfa3a-388e-72ab-ad58-bdeb258f96cd","","null","
                <div class=""stimulus-container"">
                    <img src=""images/semantic_sequence/kitchen_operations_semantic/kitchen_operations_semantic_8.png"" class=""exp-image"">
                    <div class=""question-area""></div> 
                </div>","null","","","","","","","","","","","",""
"","","","","","html-button-response","158","216982","0.0-158.0","BE09D9CF9E874197AD689951633A045C","019cfa62-9feb-78aa-bbf6-8df558f2d5fd","019cfa3a-388e-72ab-ad58-bdeb258f96cd","","544","
                <div class=""stimulus-container"">
                    <img src=""images/semantic_sequence/kitchen_operations_semantic/kitchen_operations_semantic_8.png"" class=""exp-image"">
                    <div class=""question-area"">
                        <p style=""font-size: 20px; font-weight: bold; margin: 0;"">Is there a person in this image?</p>
                    </div>
                </div>","0","main_experiment_trial","8","kitchen_operations_semantic","semantic_sequence","chronological","","","","","","",""
"","","","","","html-keyboard-response","159","217986","0.0-159.0","BE09D9CF9E874197AD689951633A045C","019cfa62-9feb-78aa-bbf6-8df558f2d5fd","019cfa3a-388e-72ab-ad58-bdeb258f96cd","","null","
                <div class=""stimulus-container"">
                    <img src=""images/semantic_sequence/kitchen_operations_semantic/kitchen_operations_semantic_9.png"" class=""exp-image"">
                    <div class=""question-area""></div> 
                </div>","null","","","","","","","","","","","",""
"","","","","","html-button-response","160","218468","0.0-160.0","BE09D9CF9E874197AD689951633A045C","019cfa62-9feb-78aa-bbf6-8df558f2d5fd","019cfa3a-388e-72ab-ad58-bdeb258f96cd","","480","
                <div class=""stimulus-container"">
                    <img src=""images/semantic_sequence/kitchen_operations_semantic/kitchen_operations_semantic_9.png"" class=""exp-image"">
                    <div class=""question-area"">
                        <p style=""font-size: 20px; font-weight: bold; margin: 0;"">Is there a person in this image?</p>
                    </div>
                </div>","0","main_experiment_trial","9","kitchen_operations_semantic","semantic_sequence","chronological","","","","","","",""
"","","","","","html-keyboard-response","161","219470","0.0-161.0","BE09D9CF9E874197AD689951633A045C","019cfa62-9feb-78aa-bbf6-8df558f2d5fd","019cfa3a-388e-72ab-ad58-bdeb258f96cd","","null","
                <div class=""stimulus-container"">
                    <img src=""images/semantic_sequence/kitchen_operations_semantic/kitchen_operations_semantic_ten.png"" class=""exp-image"">
                    <div class=""question-area""></div> 
                </div>","null","","","","","","","","","","","",""
"","","","","","html-button-response","162","219921","0.0-162.0","BE09D9CF9E874197AD689951633A045C","019cfa62-9feb-78aa-bbf6-8df558f2d5fd","019cfa3a-388e-72ab-ad58-bdeb258f96cd","","449","
                <div class=""stimulus-container"">
                    <img src=""images/semantic_sequence/kitchen_operations_semantic/kitchen_operations_semantic_ten.png"" class=""exp-image"">
                    <div class=""question-area"">
                        <p style=""font-size: 20px; font-weight: bold; margin: 0;"">Is there a person in this image?</p>
                    </div>
                </div>","0","main_experiment_trial","ten","kitchen_operations_semantic","semantic_sequence","chronological","","","","","","",""
"","","","","","html-keyboard-response","163","224924","0.0-163.0","BE09D9CF9E874197AD689951633A045C","019cfa62-9feb-78aa-bbf6-8df558f2d5fd","019cfa3a-388e-72ab-ad58-bdeb258f96cd","","null","<div style=""background-color: white; width: 100vw; height: 100vh;""></div>","null","","","","","","","","","","","",""
"","","","","","html-keyboard-response","164","225926","0.0-164.0","BE09D9CF9E874197AD689951633A045C","019cfa62-9feb-78aa-bbf6-8df558f2d5fd","019cfa3a-388e-72ab-ad58-bdeb258f96cd","","null","
                <div class=""stimulus-container"">
                    <img src=""images/causal_sequence/saving_a_cat_causal/saving_a_cat_causal_1.png"" class=""exp-image"">
                    <div class=""question-area""></div> 
                </div>","null","","","","","","","","","","","",""
"","","","","","html-button-response","165","226411","0.0-165.0","BE09D9CF9E874197AD689951633A045C","019cfa62-9feb-78aa-bbf6-8df558f2d5fd","019cfa3a-388e-72ab-ad58-bdeb258f96cd","","483","
                <div class=""stimulus-container"">
                    <img src=""images/causal_sequence/saving_a_cat_causal/saving_a_cat_causal_1.png"" class=""exp-image"">
                    <div class=""question-area"">
                        <p style=""font-size: 20px; font-weight: bold; margin: 0;"">Is there a person in this image?</p>
                    </div>
                </div>","0","main_experiment_trial","1","saving_a_cat_causal","causal_sequence","chronological","","","","","","",""
"","","","","","html-keyboard-response","166","227414","0.0-166.0","BE09D9CF9E874197AD689951633A045C","019cfa62-9feb-78aa-bbf6-8df558f2d5fd","019cfa3a-388e-72ab-ad58-bdeb258f96cd","","null","
                <div class=""stimulus-container"">
                    <img src=""images/causal_sequence/saving_a_cat_causal/saving_a_cat_causal_2.png"" class=""exp-image"">
                    <div class=""question-area""></div> 
                </div>","null","","","","","","","","","","","",""
"","","","","","html-button-response","167","227859","0.0-167.0","BE09D9CF9E874197AD689951633A045C","019cfa62-9feb-78aa-bbf6-8df558f2d5fd","019cfa3a-388e-72ab-ad58-bdeb258f96cd","","443","
                <div class=""stimulus-container"">
                    <img src=""images/causal_sequence/saving_a_cat_causal/saving_a_cat_causal_2.png"" class=""exp-image"">
                    <div class=""question-area"">
                        <p style=""font-size: 20px; font-weight: bold; margin: 0;"">Is there a person in this image?</p>
                    </div>
                </div>","0","main_experiment_trial","2","saving_a_cat_causal","causal_sequence","chronological","","","","","","",""
"","","","","","html-keyboard-response","168","228860","0.0-168.0","BE09D9CF9E874197AD689951633A045C","019cfa62-9feb-78aa-bbf6-8df558f2d5fd","019cfa3a-388e-72ab-ad58-bdeb258f96cd","","null","
                <div class=""stimulus-container"">
                    <img src=""images/causal_sequence/saving_a_cat_causal/saving_a_cat_causal_3.png"" class=""exp-image"">
                    <div class=""question-area""></div> 
                </div>","null","","","","","","","","","","","",""
"","","","","","html-button-response","169","229459","0.0-169.0","BE09D9CF9E874197AD689951633A045C","019cfa62-9feb-78aa-bbf6-8df558f2d5fd","019cfa3a-388e-72ab-ad58-bdeb258f96cd","","597","
                <div class=""stimulus-container"">
                    <img src=""images/causal_sequence/saving_a_cat_causal/saving_a_cat_causal_3.png"" class=""exp-image"">
                    <div class=""question-area"">
                        <p style=""font-size: 20px; font-weight: bold; margin: 0;"">Is there a person in this image?</p>
                    </div>
                </div>","1","main_experiment_trial","3","saving_a_cat_causal","causal_sequence","chronological","","","","","","",""
"","","","","","html-keyboard-response","170","230460","0.0-170.0","BE09D9CF9E874197AD689951633A045C","019cfa62-9feb-78aa-bbf6-8df558f2d5fd","019cfa3a-388e-72ab-ad58-bdeb258f96cd","","null","
                <div class=""stimulus-container"">
                    <img src=""images/causal_sequence/saving_a_cat_causal/saving_a_cat_causal_4.png"" class=""exp-image"">
                    <div class=""question-area""></div> 
                </div>","null","","","","","","","","","","","",""
"","","","","","html-button-response","171","231594","0.0-171.0","BE09D9CF9E874197AD689951633A045C","019cfa62-9feb-78aa-bbf6-8df558f2d5fd","019cfa3a-388e-72ab-ad58-bdeb258f96cd","","1134","
                <div class=""stimulus-container"">
                    <img src=""images/causal_sequence/saving_a_cat_causal/saving_a_cat_causal_4.png"" class=""exp-image"">
                    <div class=""question-area"">
                        <p style=""font-size: 20px; font-weight: bold; margin: 0;"">Is there a person in this image?</p>
                    </div>
                </div>","0","main_experiment_trial","4","saving_a_cat_causal","causal_sequence","chronological","","","","","","",""
"","","","","","html-keyboard-response","172","232596","0.0-172.0","BE09D9CF9E874197AD689951633A045C","019cfa62-9feb-78aa-bbf6-8df558f2d5fd","019cfa3a-388e-72ab-ad58-bdeb258f96cd","","null","
                <div class=""stimulus-container"">
                    <img src=""images/causal_sequence/saving_a_cat_causal/saving_a_cat_causal_5.png"" class=""exp-image"">
                    <div class=""question-area""></div> 
                </div>","null","","","","","","","","","","","",""
"","","","","","html-button-response","173","233016","0.0-173.0","BE09D9CF9E874197AD689951633A045C","019cfa62-9feb-78aa-bbf6-8df558f2d5fd","019cfa3a-388e-72ab-ad58-bdeb258f96cd","","418","
                <div class=""stimulus-container"">
                    <img src=""images/causal_sequence/saving_a_cat_causal/saving_a_cat_causal_5.png"" class=""exp-image"">
                    <div class=""question-area"">
                        <p style=""font-size: 20px; font-weight: bold; margin: 0;"">Is there a person in this image?</p>
                    </div>
                </div>","0","main_experiment_trial","5","saving_a_cat_causal","causal_sequence","chronological","","","","","","",""
"","","","","","html-keyboard-response","174","234019","0.0-174.0","BE09D9CF9E874197AD689951633A045C","019cfa62-9feb-78aa-bbf6-8df558f2d5fd","019cfa3a-388e-72ab-ad58-bdeb258f96cd","","null","
                <div class=""stimulus-container"">
                    <img src=""images/causal_sequence/saving_a_cat_causal/saving_a_cat_causal_6.png"" class=""exp-image"">
                    <div class=""question-area""></div> 
                </div>","null","","","","","","","","","","","",""
"","","","","","html-button-response","175","234568","0.0-175.0","BE09D9CF9E874197AD689951633A045C","019cfa62-9feb-78aa-bbf6-8df558f2d5fd","019cfa3a-388e-72ab-ad58-bdeb258f96cd","","548","
                <div class=""stimulus-container"">
                    <img src=""images/causal_sequence/saving_a_cat_causal/saving_a_cat_causal_6.png"" class=""exp-image"">
                    <div class=""question-area"">
                        <p style=""font-size: 20px; font-weight: bold; margin: 0;"">Is there a person in this image?</p>
                    </div>
                </div>","0","main_experiment_trial","6","saving_a_cat_causal","causal_sequence","chronological","","","","","","",""
"","","","","","html-keyboard-response","176","235569","0.0-176.0","BE09D9CF9E874197AD689951633A045C","019cfa62-9feb-78aa-bbf6-8df558f2d5fd","019cfa3a-388e-72ab-ad58-bdeb258f96cd","","null","
                <div class=""stimulus-container"">
                    <img src=""images/causal_sequence/saving_a_cat_causal/saving_a_cat_causal_7.png"" class=""exp-image"">
                    <div class=""question-area""></div> 
