"success","timeout","failed_images","failed_audio","failed_video","trial_type","trial_index","time_elapsed","internal_node_id","subject_id","study_id","session_id","view_history","rt","stimulus","response","task","image_index","folder","sequence_type","valuable_image_index","reward_type","chosen_image_index","correct_choice"
"true","false","[]","[]","[]","preload","0","7764","0.0-0.0","E51ED157ECBD4EB7AE43B2D66B60D7B8","019cefa1-d6ca-7c55-b8a2-34ac7b1cbcdd","019cef87-c56d-7b55-9135-c5814367ec25","","","","","","","","","","","",""
"","","","","","instructions","1","170984","0.0-1.0","E51ED157ECBD4EB7AE43B2D66B60D7B8","019cefa1-d6ca-7c55-b8a2-34ac7b1cbcdd","019cef87-c56d-7b55-9135-c5814367ec25","[{""page_index"":0,""viewing_time"":163219}]","163219","","","","","","","","","",""
"","","","","","instructions","2","174352","0.0-2.0","E51ED157ECBD4EB7AE43B2D66B60D7B8","019cefa1-d6ca-7c55-b8a2-34ac7b1cbcdd","019cef87-c56d-7b55-9135-c5814367ec25","[{""page_index"":0,""viewing_time"":3367}]","3368","","","","","","","","","",""
"true","","","","","fullscreen","3","609506","0.0-3.0","E51ED157ECBD4EB7AE43B2D66B60D7B8","019cefa1-d6ca-7c55-b8a2-34ac7b1cbcdd","019cef87-c56d-7b55-9135-c5814367ec25","","434152","","","","","","","","","",""
"","","","","","instructions","4","653105","0.0-4.0","E51ED157ECBD4EB7AE43B2D66B60D7B8","019cefa1-d6ca-7c55-b8a2-34ac7b1cbcdd","019cef87-c56d-7b55-9135-c5814367ec25","[{""page_index"":0,""viewing_time"":43598}]","43599","","","","","","","","","",""
"","","","","","instructions","5","658500","0.0-5.0","E51ED157ECBD4EB7AE43B2D66B60D7B8","019cefa1-d6ca-7c55-b8a2-34ac7b1cbcdd","019cef87-c56d-7b55-9135-c5814367ec25","[{""page_index"":0,""viewing_time"":5395}]","5395","","","","","","","","","",""
"","","","","","html-keyboard-response","6","662503","0.0-6.0","E51ED157ECBD4EB7AE43B2D66B60D7B8","019cefa1-d6ca-7c55-b8a2-34ac7b1cbcdd","019cef87-c56d-7b55-9135-c5814367ec25","","null","
                <div class=""stimulus-container"">
                    <img src=""images/instructions/movie_1.png"" class=""exp-image"">
                    <div class=""question-area""></div> 
                </div>","null","","","","","","","",""
"","","","","","html-button-response","7","665141","0.0-7.0","E51ED157ECBD4EB7AE43B2D66B60D7B8","019cefa1-d6ca-7c55-b8a2-34ac7b1cbcdd","019cef87-c56d-7b55-9135-c5814367ec25","","2637","
                <div class=""stimulus-container"">
                    <img src=""images/instructions/movie_1.png"" class=""exp-image"">
                    <div class=""question-area"">
                        <p style=""font-size: 20px; font-weight: bold; margin: 0;"">Was there a person in this image?</p>
                    </div>
                </div>","0","example_question","1","","","","","",""
"","","","","","html-keyboard-response","8","669156","0.0-8.0","E51ED157ECBD4EB7AE43B2D66B60D7B8","019cefa1-d6ca-7c55-b8a2-34ac7b1cbcdd","019cef87-c56d-7b55-9135-c5814367ec25","","null","
                <div class=""stimulus-container"">
                    <img src=""images/instructions/movie_2.png"" class=""exp-image"">
                    <div class=""question-area""></div> 
                </div>","null","","","","","","","",""
"","","","","","html-button-response","9","670637","0.0-9.0","E51ED157ECBD4EB7AE43B2D66B60D7B8","019cefa1-d6ca-7c55-b8a2-34ac7b1cbcdd","019cef87-c56d-7b55-9135-c5814367ec25","","1480","
                <div class=""stimulus-container"">
                    <img src=""images/instructions/movie_2.png"" class=""exp-image"">
                    <div class=""question-area"">
                        <p style=""font-size: 20px; font-weight: bold; margin: 0;"">Was there a person in this image?</p>
                    </div>
                </div>","0","example_question","2","","","","","",""
"","","","","","html-keyboard-response","10","674638","0.0-10.0","E51ED157ECBD4EB7AE43B2D66B60D7B8","019cefa1-d6ca-7c55-b8a2-34ac7b1cbcdd","019cef87-c56d-7b55-9135-c5814367ec25","","null","
                <div class=""stimulus-container"">
                    <img src=""images/instructions/movie_3.png"" class=""exp-image"">
                    <div class=""question-area""></div> 
                </div>","null","","","","","","","",""
"","","","","","html-button-response","11","675405","0.0-11.0","E51ED157ECBD4EB7AE43B2D66B60D7B8","019cefa1-d6ca-7c55-b8a2-34ac7b1cbcdd","019cef87-c56d-7b55-9135-c5814367ec25","","766","
                <div class=""stimulus-container"">
                    <img src=""images/instructions/movie_3.png"" class=""exp-image"">
                    <div class=""question-area"">
                        <p style=""font-size: 20px; font-weight: bold; margin: 0;"">Was there a person in this image?</p>
                    </div>
                </div>","0","example_question","3","","","","","",""
"","","","","","html-keyboard-response","12","679420","0.0-12.0","E51ED157ECBD4EB7AE43B2D66B60D7B8","019cefa1-d6ca-7c55-b8a2-34ac7b1cbcdd","019cef87-c56d-7b55-9135-c5814367ec25","","null","
                <div class=""stimulus-container"">
                    <img src=""images/instructions/movie_4.png"" class=""exp-image"">
                    <div class=""question-area""></div> 
                </div>","null","","","","","","","",""
"","","","","","html-button-response","13","680257","0.0-13.0","E51ED157ECBD4EB7AE43B2D66B60D7B8","019cefa1-d6ca-7c55-b8a2-34ac7b1cbcdd","019cef87-c56d-7b55-9135-c5814367ec25","","836","
                <div class=""stimulus-container"">
                    <img src=""images/instructions/movie_4.png"" class=""exp-image"">
                    <div class=""question-area"">
                        <p style=""font-size: 20px; font-weight: bold; margin: 0;"">Was there a person in this image?</p>
                    </div>
                </div>","0","example_question","4","","","","","",""
"","","","","","instructions","14","681768","0.0-14.0","E51ED157ECBD4EB7AE43B2D66B60D7B8","019cefa1-d6ca-7c55-b8a2-34ac7b1cbcdd","019cef87-c56d-7b55-9135-c5814367ec25","[{""page_index"":0,""viewing_time"":1511}]","1511","","","","","","","","","",""
"","","","","","instructions","15","686240","0.0-15.0","E51ED157ECBD4EB7AE43B2D66B60D7B8","019cefa1-d6ca-7c55-b8a2-34ac7b1cbcdd","019cef87-c56d-7b55-9135-c5814367ec25","[{""page_index"":0,""viewing_time"":4472}]","4472","","","","","","","","","",""
"","","","","","html-keyboard-response","16","687241","0.0-16.0","E51ED157ECBD4EB7AE43B2D66B60D7B8","019cefa1-d6ca-7c55-b8a2-34ac7b1cbcdd","019cef87-c56d-7b55-9135-c5814367ec25","","null","<div style=""background-color: white; width: 100vw; height: 100vh;""></div>","null","","","","","","","",""
"","","","","","html-keyboard-response","17","692257","0.0-17.0","E51ED157ECBD4EB7AE43B2D66B60D7B8","019cefa1-d6ca-7c55-b8a2-34ac7b1cbcdd","019cef87-c56d-7b55-9135-c5814367ec25","","null","
                <div class=""stimulus-container"">
                    <img src=""images/schematic_sequence/restaurant_scheme/restaurant_scheme_1.png"" class=""exp-image"">
                    <div class=""question-area""></div> 
                </div>","null","","","","","","","",""
"","","","","","html-button-response","18","693373","0.0-18.0","E51ED157ECBD4EB7AE43B2D66B60D7B8","019cefa1-d6ca-7c55-b8a2-34ac7b1cbcdd","019cef87-c56d-7b55-9135-c5814367ec25","","1115","
                <div class=""stimulus-container"">
                    <img src=""images/schematic_sequence/restaurant_scheme/restaurant_scheme_1.png"" class=""exp-image"">
                    <div class=""question-area"">
                        <p style=""font-size: 20px; font-weight: bold; margin: 0;"">Is there a person in this image?</p>
                    </div>
                </div>","0","main_experiment_trial","1","restaurant_scheme","schematic_sequence","","","",""
"","","","","","html-keyboard-response","19","698373","0.0-19.0","E51ED157ECBD4EB7AE43B2D66B60D7B8","019cefa1-d6ca-7c55-b8a2-34ac7b1cbcdd","019cef87-c56d-7b55-9135-c5814367ec25","","null","
                <div class=""stimulus-container"">
                    <img src=""images/schematic_sequence/restaurant_scheme/restaurant_scheme_2.png"" class=""exp-image"">
                    <div class=""question-area""></div> 
                </div>","null","","","","","","","",""
"","","","","","html-button-response","20","701389","0.0-20.0","E51ED157ECBD4EB7AE43B2D66B60D7B8","019cefa1-d6ca-7c55-b8a2-34ac7b1cbcdd","019cef87-c56d-7b55-9135-c5814367ec25","","null","
                <div class=""stimulus-container"">
                    <img src=""images/schematic_sequence/restaurant_scheme/restaurant_scheme_2.png"" class=""exp-image"">
                    <div class=""question-area"">
                        <p style=""font-size: 20px; font-weight: bold; margin: 0;"">Is there a person in this image?</p>
                    </div>
                </div>","null","main_experiment_trial","2","restaurant_scheme","schematic_sequence","","","",""
"","","","","","html-keyboard-response","21","706389","0.0-21.0","E51ED157ECBD4EB7AE43B2D66B60D7B8","019cefa1-d6ca-7c55-b8a2-34ac7b1cbcdd","019cef87-c56d-7b55-9135-c5814367ec25","","null","
                <div class=""stimulus-container"">
                    <img src=""images/schematic_sequence/restaurant_scheme/restaurant_scheme_3.png"" class=""exp-image"">
                    <div class=""question-area""></div> 
                </div>","null","","","","","","","",""
"","","","","","html-button-response","22","707169","0.0-22.0","E51ED157ECBD4EB7AE43B2D66B60D7B8","019cefa1-d6ca-7c55-b8a2-34ac7b1cbcdd","019cef87-c56d-7b55-9135-c5814367ec25","","779","
                <div class=""stimulus-container"">
                    <img src=""images/schematic_sequence/restaurant_scheme/restaurant_scheme_3.png"" class=""exp-image"">
                    <div class=""question-area"">
                        <p style=""font-size: 20px; font-weight: bold; margin: 0;"">Is there a person in this image?</p>
                    </div>
                </div>","1","main_experiment_trial","3","restaurant_scheme","schematic_sequence","","","",""
"","","","","","html-keyboard-response","23","712170","0.0-23.0","E51ED157ECBD4EB7AE43B2D66B60D7B8","019cefa1-d6ca-7c55-b8a2-34ac7b1cbcdd","019cef87-c56d-7b55-9135-c5814367ec25","","null","
                <div class=""stimulus-container"">
                    <img src=""images/schematic_sequence/restaurant_scheme/restaurant_scheme_4.png"" class=""exp-image"">
                    <div class=""question-area""></div> 
                </div>","null","","","","","","","",""
"","","","","","html-button-response","24","712681","0.0-24.0","E51ED157ECBD4EB7AE43B2D66B60D7B8","019cefa1-d6ca-7c55-b8a2-34ac7b1cbcdd","019cef87-c56d-7b55-9135-c5814367ec25","","510","
                <div class=""stimulus-container"">
                    <img src=""images/schematic_sequence/restaurant_scheme/restaurant_scheme_4.png"" class=""exp-image"">
                    <div class=""question-area"">
                        <p style=""font-size: 20px; font-weight: bold; margin: 0;"">Is there a person in this image?</p>
                    </div>
                </div>","0","main_experiment_trial","4","restaurant_scheme","schematic_sequence","","","",""
"","","","","","html-keyboard-response","25","717686","0.0-25.0","E51ED157ECBD4EB7AE43B2D66B60D7B8","019cefa1-d6ca-7c55-b8a2-34ac7b1cbcdd","019cef87-c56d-7b55-9135-c5814367ec25","","null","
                <div class=""stimulus-container"">
                    <img src=""images/schematic_sequence/restaurant_scheme/restaurant_scheme_5.png"" class=""exp-image"">
                    <div class=""question-area""></div> 
                </div>","null","","","","","","","",""
"","","","","","html-button-response","26","718652","0.0-26.0","E51ED157ECBD4EB7AE43B2D66B60D7B8","019cefa1-d6ca-7c55-b8a2-34ac7b1cbcdd","019cef87-c56d-7b55-9135-c5814367ec25","","966","
                <div class=""stimulus-container"">
                    <img src=""images/schematic_sequence/restaurant_scheme/restaurant_scheme_5.png"" class=""exp-image"">
                    <div class=""question-area"">
                        <p style=""font-size: 20px; font-weight: bold; margin: 0;"">Is there a person in this image?</p>
                    </div>
                </div>","0","main_experiment_trial","5","restaurant_scheme","schematic_sequence","","","",""
"","","","","","html-keyboard-response","27","723656","0.0-27.0","E51ED157ECBD4EB7AE43B2D66B60D7B8","019cefa1-d6ca-7c55-b8a2-34ac7b1cbcdd","019cef87-c56d-7b55-9135-c5814367ec25","","null","
                <div class=""stimulus-container"">
                    <img src=""images/schematic_sequence/restaurant_scheme/restaurant_scheme_6.png"" class=""exp-image"">
                    <div class=""question-area""></div> 
                </div>","null","","","","","","","",""
"","","","","","html-button-response","28","724113","0.0-28.0","E51ED157ECBD4EB7AE43B2D66B60D7B8","019cefa1-d6ca-7c55-b8a2-34ac7b1cbcdd","019cef87-c56d-7b55-9135-c5814367ec25","","456","
                <div class=""stimulus-container"">
                    <img src=""images/schematic_sequence/restaurant_scheme/restaurant_scheme_6.png"" class=""exp-image"">
                    <div class=""question-area"">
                        <p style=""font-size: 20px; font-weight: bold; margin: 0;"">Is there a person in this image?</p>
                    </div>
                </div>","1","main_experiment_trial","6","restaurant_scheme","schematic_sequence","","","",""
"","","","","","html-keyboard-response","29","729117","0.0-29.0","E51ED157ECBD4EB7AE43B2D66B60D7B8","019cefa1-d6ca-7c55-b8a2-34ac7b1cbcdd","019cef87-c56d-7b55-9135-c5814367ec25","","null","
                <div class=""stimulus-container"">
                    <img src=""images/schematic_sequence/restaurant_scheme/restaurant_scheme_7.png"" class=""exp-image"">
                    <div class=""question-area""></div> 
                </div>","null","","","","","","","",""
"","","","","","html-button-response","30","730024","0.0-30.0","E51ED157ECBD4EB7AE43B2D66B60D7B8","019cefa1-d6ca-7c55-b8a2-34ac7b1cbcdd","019cef87-c56d-7b55-9135-c5814367ec25","","907","
                <div class=""stimulus-container"">
                    <img src=""images/schematic_sequence/restaurant_scheme/restaurant_scheme_7.png"" class=""exp-image"">
                    <div class=""question-area"">
                        <p style=""font-size: 20px; font-weight: bold; margin: 0;"">Is there a person in this image?</p>
                    </div>
                </div>","1","main_experiment_trial","7","restaurant_scheme","schematic_sequence","","","",""
"","","","","","html-keyboard-response","31","735038","0.0-31.0","E51ED157ECBD4EB7AE43B2D66B60D7B8","019cefa1-d6ca-7c55-b8a2-34ac7b1cbcdd","019cef87-c56d-7b55-9135-c5814367ec25","","null","
                <div class=""stimulus-container"">
                    <img src=""images/schematic_sequence/restaurant_scheme/restaurant_scheme_8.png"" class=""exp-image"">
                    <div class=""question-area""></div> 
                </div>","null","","","","","","","",""
"","","","","","html-button-response","32","735985","0.0-32.0","E51ED157ECBD4EB7AE43B2D66B60D7B8","019cefa1-d6ca-7c55-b8a2-34ac7b1cbcdd","019cef87-c56d-7b55-9135-c5814367ec25","","946","
                <div class=""stimulus-container"">
                    <img src=""images/schematic_sequence/restaurant_scheme/restaurant_scheme_8.png"" class=""exp-image"">
                    <div class=""question-area"">
                        <p style=""font-size: 20px; font-weight: bold; margin: 0;"">Is there a person in this image?</p>
                    </div>
                </div>","1","main_experiment_trial","8","restaurant_scheme","schematic_sequence","","","",""
"","","","","","html-keyboard-response","33","740990","0.0-33.0","E51ED157ECBD4EB7AE43B2D66B60D7B8","019cefa1-d6ca-7c55-b8a2-34ac7b1cbcdd","019cef87-c56d-7b55-9135-c5814367ec25","","null","
                <div class=""stimulus-container"">
                    <img src=""images/schematic_sequence/restaurant_scheme/restaurant_scheme_9.png"" class=""exp-image"">
                    <div class=""question-area""></div> 
                </div>","null","","","","","","","",""
"","","","","","html-button-response","34","741476","0.0-34.0","E51ED157ECBD4EB7AE43B2D66B60D7B8","019cefa1-d6ca-7c55-b8a2-34ac7b1cbcdd","019cef87-c56d-7b55-9135-c5814367ec25","","486","
                <div class=""stimulus-container"">
                    <img src=""images/schematic_sequence/restaurant_scheme/restaurant_scheme_9.png"" class=""exp-image"">
                    <div class=""question-area"">
                        <p style=""font-size: 20px; font-weight: bold; margin: 0;"">Is there a person in this image?</p>
                    </div>
                </div>","0","main_experiment_trial","9","restaurant_scheme","schematic_sequence","","","",""
"","","","","","html-keyboard-response","35","746491","0.0-35.0","E51ED157ECBD4EB7AE43B2D66B60D7B8","019cefa1-d6ca-7c55-b8a2-34ac7b1cbcdd","019cef87-c56d-7b55-9135-c5814367ec25","","null","
                <div class=""stimulus-container"">
                    <img src=""images/schematic_sequence/restaurant_scheme/restaurant_scheme_ten.png"" class=""exp-image"">
                    <div class=""question-area""></div> 
                </div>","null","","","","","","","",""
"","","","","","html-button-response","36","747021","0.0-36.0","E51ED157ECBD4EB7AE43B2D66B60D7B8","019cefa1-d6ca-7c55-b8a2-34ac7b1cbcdd","019cef87-c56d-7b55-9135-c5814367ec25","","529","
                <div class=""stimulus-container"">
                    <img src=""images/schematic_sequence/restaurant_scheme/restaurant_scheme_ten.png"" class=""exp-image"">
                    <div class=""question-area"">
                        <p style=""font-size: 20px; font-weight: bold; margin: 0;"">Is there a person in this image?</p>
                    </div>
                </div>","0","main_experiment_trial","ten","restaurant_scheme","schematic_sequence","","","",""
"","","","","","html-keyboard-response","37","748025","0.0-37.0","E51ED157ECBD4EB7AE43B2D66B60D7B8","019cefa1-d6ca-7c55-b8a2-34ac7b1cbcdd","019cef87-c56d-7b55-9135-c5814367ec25","","null","<div style=""background-color: white; width: 100vw; height: 100vh;""></div>","null","","","","","","","",""
"","","","","","html-keyboard-response","38","753026","0.0-38.0","E51ED157ECBD4EB7AE43B2D66B60D7B8","019cefa1-d6ca-7c55-b8a2-34ac7b1cbcdd","019cef87-c56d-7b55-9135-c5814367ec25","","null","
                <div class=""stimulus-container"">
                    <img src=""images/causal_sequence/the_performance_causal/the_performance_causal_1.png"" class=""exp-image"">
                    <div class=""question-area""></div> 
                </div>","null","","","","","","","",""
"","","","","","html-button-response","39","753505","0.0-39.0","E51ED157ECBD4EB7AE43B2D66B60D7B8","019cefa1-d6ca-7c55-b8a2-34ac7b1cbcdd","019cef87-c56d-7b55-9135-c5814367ec25","","478","
                <div class=""stimulus-container"">
                    <img src=""images/causal_sequence/the_performance_causal/the_performance_causal_1.png"" class=""exp-image"">
                    <div class=""question-area"">
                        <p style=""font-size: 20px; font-weight: bold; margin: 0;"">Is there a person in this image?</p>
                    </div>
                </div>","0","main_experiment_trial","1","the_performance_causal","causal_sequence","","","",""
"","","","","","html-keyboard-response","40","758506","0.0-40.0","E51ED157ECBD4EB7AE43B2D66B60D7B8","019cefa1-d6ca-7c55-b8a2-34ac7b1cbcdd","019cef87-c56d-7b55-9135-c5814367ec25","","null","
                <div class=""stimulus-container"">
                    <img src=""images/causal_sequence/the_performance_causal/the_performance_causal_2.png"" class=""exp-image"">
                    <div class=""question-area""></div> 
                </div>","null","","","","","","","",""
"","","","","","html-button-response","41","759317","0.0-41.0","E51ED157ECBD4EB7AE43B2D66B60D7B8","019cefa1-d6ca-7c55-b8a2-34ac7b1cbcdd","019cef87-c56d-7b55-9135-c5814367ec25","","810","
                <div class=""stimulus-container"">
                    <img src=""images/causal_sequence/the_performance_causal/the_performance_causal_2.png"" class=""exp-image"">
                    <div class=""question-area"">
                        <p style=""font-size: 20px; font-weight: bold; margin: 0;"">Is there a person in this image?</p>
                    </div>
                </div>","0","main_experiment_trial","2","the_performance_causal","causal_sequence","","","",""
"","","","","","html-keyboard-response","42","764326","0.0-42.0","E51ED157ECBD4EB7AE43B2D66B60D7B8","019cefa1-d6ca-7c55-b8a2-34ac7b1cbcdd","019cef87-c56d-7b55-9135-c5814367ec25","","null","
                <div class=""stimulus-container"">
                    <img src=""images/causal_sequence/the_performance_causal/the_performance_causal_3.png"" class=""exp-image"">
                    <div class=""question-area""></div> 
                </div>","null","","","","","","","",""
"","","","","","html-button-response","43","764944","0.0-43.0","E51ED157ECBD4EB7AE43B2D66B60D7B8","019cefa1-d6ca-7c55-b8a2-34ac7b1cbcdd","019cef87-c56d-7b55-9135-c5814367ec25","","618","
                <div class=""stimulus-container"">
                    <img src=""images/causal_sequence/the_performance_causal/the_performance_causal_3.png"" class=""exp-image"">
                    <div class=""question-area"">
                        <p style=""font-size: 20px; font-weight: bold; margin: 0;"">Is there a person in this image?</p>
                    </div>
                </div>","0","main_experiment_trial","3","the_performance_causal","causal_sequence","","","",""
"","","","","","html-keyboard-response","44","769957","0.0-44.0","E51ED157ECBD4EB7AE43B2D66B60D7B8","019cefa1-d6ca-7c55-b8a2-34ac7b1cbcdd","019cef87-c56d-7b55-9135-c5814367ec25","","null","
                <div class=""stimulus-container"">
                    <img src=""images/causal_sequence/the_performance_causal/the_performance_causal_4.png"" class=""exp-image"">
                    <div class=""question-area""></div> 
                </div>","null","","","","","","","",""
"","","","","","html-button-response","45","770549","0.0-45.0","E51ED157ECBD4EB7AE43B2D66B60D7B8","019cefa1-d6ca-7c55-b8a2-34ac7b1cbcdd","019cef87-c56d-7b55-9135-c5814367ec25","","591","
                <div class=""stimulus-container"">
                    <img src=""images/causal_sequence/the_performance_causal/the_performance_causal_4.png"" class=""exp-image"">
                    <div class=""question-area"">
                        <p style=""font-size: 20px; font-weight: bold; margin: 0;"">Is there a person in this image?</p>
                    </div>
                </div>","0","main_experiment_trial","4","the_performance_causal","causal_sequence","","","",""
"","","","","","html-keyboard-response","46","775550","0.0-46.0","E51ED157ECBD4EB7AE43B2D66B60D7B8","019cefa1-d6ca-7c55-b8a2-34ac7b1cbcdd","019cef87-c56d-7b55-9135-c5814367ec25","","null","
                <div class=""stimulus-container"">
                    <img src=""images/causal_sequence/the_performance_causal/the_performance_causal_5.png"" class=""exp-image"">
                    <div class=""question-area""></div> 
                </div>","null","","","","","","","",""
"","","","","","html-button-response","47","775992","0.0-47.0","E51ED157ECBD4EB7AE43B2D66B60D7B8","019cefa1-d6ca-7c55-b8a2-34ac7b1cbcdd","019cef87-c56d-7b55-9135-c5814367ec25","","441","
                <div class=""stimulus-container"">
                    <img src=""images/causal_sequence/the_performance_causal/the_performance_causal_5.png"" class=""exp-image"">
                    <div class=""question-area"">
                        <p style=""font-size: 20px; font-weight: bold; margin: 0;"">Is there a person in this image?</p>
                    </div>
                </div>","0","main_experiment_trial","5","the_performance_causal","causal_sequence","","","",""
"","","","","","html-keyboard-response","48","781009","0.0-48.0","E51ED157ECBD4EB7AE43B2D66B60D7B8","019cefa1-d6ca-7c55-b8a2-34ac7b1cbcdd","019cef87-c56d-7b55-9135-c5814367ec25","","null","
                <div class=""stimulus-container"">
                    <img src=""images/causal_sequence/the_performance_causal/the_performance_causal_6.png"" class=""exp-image"">
                    <div class=""question-area""></div> 
                </div>","null","","","","","","","",""
"","","","","","html-button-response","49","781433","0.0-49.0","E51ED157ECBD4EB7AE43B2D66B60D7B8","019cefa1-d6ca-7c55-b8a2-34ac7b1cbcdd","019cef87-c56d-7b55-9135-c5814367ec25","","423","
                <div class=""stimulus-container"">
                    <img src=""images/causal_sequence/the_performance_causal/the_performance_causal_6.png"" class=""exp-image"">
                    <div class=""question-area"">
                        <p style=""font-size: 20px; font-weight: bold; margin: 0;"">Is there a person in this image?</p>
                    </div>
                </div>","0","main_experiment_trial","6","the_performance_causal","causal_sequence","","","",""
"","","","","","html-keyboard-response","50","786443","0.0-50.0","E51ED157ECBD4EB7AE43B2D66B60D7B8","019cefa1-d6ca-7c55-b8a2-34ac7b1cbcdd","019cef87-c56d-7b55-9135-c5814367ec25","","null","
                <div class=""stimulus-container"">
                    <img src=""images/causal_sequence/the_performance_causal/the_performance_causal_7.png"" class=""exp-image"">
                    <div class=""question-area""></div> 
                </div>","null","","","","","","","",""
"","","","","","html-button-response","51","787020","0.0-51.0","E51ED157ECBD4EB7AE43B2D66B60D7B8","019cefa1-d6ca-7c55-b8a2-34ac7b1cbcdd","019cef87-c56d-7b55-9135-c5814367ec25","","577","
                <div class=""stimulus-container"">
                    <img src=""images/causal_sequence/the_performance_causal/the_performance_causal_7.png"" class=""exp-image"">
                    <div class=""question-area"">
                        <p style=""font-size: 20px; font-weight: bold; margin: 0;"">Is there a person in this image?</p>
                    </div>
                </div>","0","main_experiment_trial","7","the_performance_causal","causal_sequence","","","",""
"","","","","","html-keyboard-response","52","792021","0.0-52.0","E51ED157ECBD4EB7AE43B2D66B60D7B8","019cefa1-d6ca-7c55-b8a2-34ac7b1cbcdd","019cef87-c56d-7b55-9135-c5814367ec25","","null","
                <div class=""stimulus-container"">
                    <img src=""images/causal_sequence/the_performance_causal/the_performance_causal_8.png"" class=""exp-image"">
                    <div class=""question-area""></div> 
                </div>","null","","","","","","","",""
"","","","","","html-button-response","53","792521","0.0-53.0","E51ED157ECBD4EB7AE43B2D66B60D7B8","019cefa1-d6ca-7c55-b8a2-34ac7b1cbcdd","019cef87-c56d-7b55-9135-c5814367ec25","","499","
                <div class=""stimulus-container"">
                    <img src=""images/causal_sequence/the_performance_causal/the_performance_causal_8.png"" class=""exp-image"">
                    <div class=""question-area"">
                        <p style=""font-size: 20px; font-weight: bold; margin: 0;"">Is there a person in this image?</p>
                    </div>
                </div>","0","main_experiment_trial","8","the_performance_causal","causal_sequence","","","",""
"","","","","","html-keyboard-response","54","797523","0.0-54.0","E51ED157ECBD4EB7AE43B2D66B60D7B8","019cefa1-d6ca-7c55-b8a2-34ac7b1cbcdd","019cef87-c56d-7b55-9135-c5814367ec25","","null","
                <div class=""stimulus-container"">
                    <img src=""images/causal_sequence/the_performance_causal/the_performance_causal_9.png"" class=""exp-image"">
                    <div class=""question-area""></div> 
                </div>","null","","","","","","","",""
"","","","","","html-button-response","55","798449","0.0-55.0","E51ED157ECBD4EB7AE43B2D66B60D7B8","019cefa1-d6ca-7c55-b8a2-34ac7b1cbcdd","019cef87-c56d-7b55-9135-c5814367ec25","","925","
                <div class=""stimulus-container"">
                    <img src=""images/causal_sequence/the_performance_causal/the_performance_causal_9.png"" class=""exp-image"">
                    <div class=""question-area"">
                        <p style=""font-size: 20px; font-weight: bold; margin: 0;"">Is there a person in this image?</p>
                    </div>
                </div>","0","main_experiment_trial","9","the_performance_causal","causal_sequence","","","",""
"","","","","","html-keyboard-response","56","803450","0.0-56.0","E51ED157ECBD4EB7AE43B2D66B60D7B8","019cefa1-d6ca-7c55-b8a2-34ac7b1cbcdd","019cef87-c56d-7b55-9135-c5814367ec25","","null","
                <div class=""stimulus-container"">
                    <img src=""images/causal_sequence/the_performance_causal/the_performance_causal_ten.png"" class=""exp-image"">
                    <div class=""question-area""></div> 
                </div>","null","","","","","","","",""
"","","","","","html-button-response","57","803952","0.0-57.0","E51ED157ECBD4EB7AE43B2D66B60D7B8","019cefa1-d6ca-7c55-b8a2-34ac7b1cbcdd","019cef87-c56d-7b55-9135-c5814367ec25","","502","
                <div class=""stimulus-container"">
                    <img src=""images/causal_sequence/the_performance_causal/the_performance_causal_ten.png"" class=""exp-image"">
                    <div class=""question-area"">
                        <p style=""font-size: 20px; font-weight: bold; margin: 0;"">Is there a person in this image?</p>
                    </div>
                </div>","0","main_experiment_trial","ten","the_performance_causal","causal_sequence","","","",""
"","","","","","html-keyboard-response","58","804958","0.0-58.0","E51ED157ECBD4EB7AE43B2D66B60D7B8","019cefa1-d6ca-7c55-b8a2-34ac7b1cbcdd","019cef87-c56d-7b55-9135-c5814367ec25","","null","<div style=""background-color: white; width: 100vw; height: 100vh;""></div>","null","","","","","","","",""
"","","","","","html-keyboard-response","59","809973","0.0-59.0","E51ED157ECBD4EB7AE43B2D66B60D7B8","019cefa1-d6ca-7c55-b8a2-34ac7b1cbcdd","019cef87-c56d-7b55-9135-c5814367ec25","","null","
                <div class=""stimulus-container"">
                    <img src=""images/schematic_sequence/interview_scheme/interview_scheme_1.png"" class=""exp-image"">
                    <div class=""question-area""></div> 
                </div>","null","","","","","","","",""
"","","","","","html-button-response","60","810744","0.0-60.0","E51ED157ECBD4EB7AE43B2D66B60D7B8","019cefa1-d6ca-7c55-b8a2-34ac7b1cbcdd","019cef87-c56d-7b55-9135-c5814367ec25","","771","
                <div class=""stimulus-container"">
                    <img src=""images/schematic_sequence/interview_scheme/interview_scheme_1.png"" class=""exp-image"">
                    <div class=""question-area"">
                        <p style=""font-size: 20px; font-weight: bold; margin: 0;"">Is there a person in this image?</p>
                    </div>
                </div>","1","main_experiment_trial","1","interview_scheme","schematic_sequence","","","",""
"","","","","","html-keyboard-response","61","815760","0.0-61.0","E51ED157ECBD4EB7AE43B2D66B60D7B8","019cefa1-d6ca-7c55-b8a2-34ac7b1cbcdd","019cef87-c56d-7b55-9135-c5814367ec25","","null","
                <div class=""stimulus-container"">
                    <img src=""images/schematic_sequence/interview_scheme/interview_scheme_2.png"" class=""exp-image"">
                    <div class=""question-area""></div> 
                </div>","null","","","","","","","",""
"","","","","","html-button-response","62","816198","0.0-62.0","E51ED157ECBD4EB7AE43B2D66B60D7B8","019cefa1-d6ca-7c55-b8a2-34ac7b1cbcdd","019cef87-c56d-7b55-9135-c5814367ec25","","437","
                <div class=""stimulus-container"">
                    <img src=""images/schematic_sequence/interview_scheme/interview_scheme_2.png"" class=""exp-image"">
                    <div class=""question-area"">
                        <p style=""font-size: 20px; font-weight: bold; margin: 0;"">Is there a person in this image?</p>
                    </div>
                </div>","1","main_experiment_trial","2","interview_scheme","schematic_sequence","","","",""
"","","","","","html-keyboard-response","63","821210","0.0-63.0","E51ED157ECBD4EB7AE43B2D66B60D7B8","019cefa1-d6ca-7c55-b8a2-34ac7b1cbcdd","019cef87-c56d-7b55-9135-c5814367ec25","","null","
                <div class=""stimulus-container"">
                    <img src=""images/schematic_sequence/interview_scheme/interview_scheme_3.png"" class=""exp-image"">
                    <div class=""question-area""></div> 
                </div>","null","","","","","","","",""
"","","","","","html-button-response","64","822160","0.0-64.0","E51ED157ECBD4EB7AE43B2D66B60D7B8","019cefa1-d6ca-7c55-b8a2-34ac7b1cbcdd","019cef87-c56d-7b55-9135-c5814367ec25","","949","
                <div class=""stimulus-container"">
                    <img src=""images/schematic_sequence/interview_scheme/interview_scheme_3.png"" class=""exp-image"">
                    <div class=""question-area"">
                        <p style=""font-size: 20px; font-weight: bold; margin: 0;"">Is there a person in this image?</p>
                    </div>
                </div>","1","main_experiment_trial","3","interview_scheme","schematic_sequence","","","",""
"","","","","","html-keyboard-response","65","827175","0.0-65.0","E51ED157ECBD4EB7AE43B2D66B60D7B8","019cefa1-d6ca-7c55-b8a2-34ac7b1cbcdd","019cef87-c56d-7b55-9135-c5814367ec25","","null","
                <div class=""stimulus-container"">
                    <img src=""images/schematic_sequence/interview_scheme/interview_scheme_4.png"" class=""exp-image"">
                    <div class=""question-area""></div> 
                </div>","null","","","","","","","",""
"","","","","","html-button-response","66","827728","0.0-66.0","E51ED157ECBD4EB7AE43B2D66B60D7B8","019cefa1-d6ca-7c55-b8a2-34ac7b1cbcdd","019cef87-c56d-7b55-9135-c5814367ec25","","552","
                <div class=""stimulus-container"">
                    <img src=""images/schematic_sequence/interview_scheme/interview_scheme_4.png"" class=""exp-image"">
                    <div class=""question-area"">
                        <p style=""font-size: 20px; font-weight: bold; margin: 0;"">Is there a person in this image?</p>
                    </div>
                </div>","1","main_experiment_trial","4","interview_scheme","schematic_sequence","","","",""
"","","","","","html-keyboard-response","67","832741","0.0-67.0","E51ED157ECBD4EB7AE43B2D66B60D7B8","019cefa1-d6ca-7c55-b8a2-34ac7b1cbcdd","019cef87-c56d-7b55-9135-c5814367ec25","","null","
                <div class=""stimulus-container"">
                    <img src=""images/schematic_sequence/interview_scheme/interview_scheme_5.png"" class=""exp-image"">
                    <div class=""question-area""></div> 
                </div>","null","","","","","","","",""
"","","","","","html-button-response","68","833249","0.0-68.0","E51ED157ECBD4EB7AE43B2D66B60D7B8","019cefa1-d6ca-7c55-b8a2-34ac7b1cbcdd","019cef87-c56d-7b55-9135-c5814367ec25","","507","
                <div class=""stimulus-container"">
                    <img src=""images/schematic_sequence/interview_scheme/interview_scheme_5.png"" class=""exp-image"">
                    <div class=""question-area"">
                        <p style=""font-size: 20px; font-weight: bold; margin: 0;"">Is there a person in this image?</p>
                    </div>
                </div>","0","main_experiment_trial","5","interview_scheme","schematic_sequence","","","",""
"","","","","","html-keyboard-response","69","838260","0.0-69.0","E51ED157ECBD4EB7AE43B2D66B60D7B8","019cefa1-d6ca-7c55-b8a2-34ac7b1cbcdd","019cef87-c56d-7b55-9135-c5814367ec25","","null","
                <div class=""stimulus-container"">
                    <img src=""images/schematic_sequence/interview_scheme/interview_scheme_6.png"" class=""exp-image"">
                    <div class=""question-area""></div> 
                </div>","null","","","","","","","",""
"","","","","","html-button-response","70","839045","0.0-70.0","E51ED157ECBD4EB7AE43B2D66B60D7B8","019cefa1-d6ca-7c55-b8a2-34ac7b1cbcdd","019cef87-c56d-7b55-9135-c5814367ec25","","785","
                <div class=""stimulus-container"">
                    <img src=""images/schematic_sequence/interview_scheme/interview_scheme_6.png"" class=""exp-image"">
                    <div class=""question-area"">
                        <p style=""font-size: 20px; font-weight: bold; margin: 0;"">Is there a person in this image?</p>
                    </div>
                </div>","0","main_experiment_trial","6","interview_scheme","schematic_sequence","","","",""
"","","","","","html-keyboard-response","71","844060","0.0-71.0","E51ED157ECBD4EB7AE43B2D66B60D7B8","019cefa1-d6ca-7c55-b8a2-34ac7b1cbcdd","019cef87-c56d-7b55-9135-c5814367ec25","","null","
                <div class=""stimulus-container"">
                    <img src=""images/schematic_sequence/interview_scheme/interview_scheme_7.png"" class=""exp-image"">
                    <div class=""question-area""></div> 
                </div>","null","","","","","","","",""
"","","","","","html-button-response","72","844553","0.0-72.0","E51ED157ECBD4EB7AE43B2D66B60D7B8","019cefa1-d6ca-7c55-b8a2-34ac7b1cbcdd","019cef87-c56d-7b55-9135-c5814367ec25","","492","
                <div class=""stimulus-container"">
                    <img src=""images/schematic_sequence/interview_scheme/interview_scheme_7.png"" class=""exp-image"">
                    <div class=""question-area"">
                        <p style=""font-size: 20px; font-weight: bold; margin: 0;"">Is there a person in this image?</p>
                    </div>
                </div>","0","main_experiment_trial","7","interview_scheme","schematic_sequence","","","",""
"","","","","","html-keyboard-response","73","849560","0.0-73.0","E51ED157ECBD4EB7AE43B2D66B60D7B8","019cefa1-d6ca-7c55-b8a2-34ac7b1cbcdd","019cef87-c56d-7b55-9135-c5814367ec25","","null","
                <div class=""stimulus-container"">
                    <img src=""images/schematic_sequence/interview_scheme/interview_scheme_8.png"" class=""exp-image"">
                    <div class=""question-area""></div> 
                </div>","null","","","","","","","",""
"","","","","","html-button-response","74","850172","0.0-74.0","E51ED157ECBD4EB7AE43B2D66B60D7B8","019cefa1-d6ca-7c55-b8a2-34ac7b1cbcdd","019cef87-c56d-7b55-9135-c5814367ec25","","612","
                <div class=""stimulus-container"">
                    <img src=""images/schematic_sequence/interview_scheme/interview_scheme_8.png"" class=""exp-image"">
                    <div class=""question-area"">
                        <p style=""font-size: 20px; font-weight: bold; margin: 0;"">Is there a person in this image?</p>
                    </div>
                </div>","0","main_experiment_trial","8","interview_scheme","schematic_sequence","","","",""
"","","","","","html-keyboard-response","75","855179","0.0-75.0","E51ED157ECBD4EB7AE43B2D66B60D7B8","019cefa1-d6ca-7c55-b8a2-34ac7b1cbcdd","019cef87-c56d-7b55-9135-c5814367ec25","","null","
                <div class=""stimulus-container"">
                    <img src=""images/schematic_sequence/interview_scheme/interview_scheme_9.png"" class=""exp-image"">
                    <div class=""question-area""></div> 
                </div>","null","","","","","","","",""
"","","","","","html-button-response","76","855741","0.0-76.0","E51ED157ECBD4EB7AE43B2D66B60D7B8","019cefa1-d6ca-7c55-b8a2-34ac7b1cbcdd","019cef87-c56d-7b55-9135-c5814367ec25","","561","
                <div class=""stimulus-container"">
                    <img src=""images/schematic_sequence/interview_scheme/interview_scheme_9.png"" class=""exp-image"">
                    <div class=""question-area"">
                        <p style=""font-size: 20px; font-weight: bold; margin: 0;"">Is there a person in this image?</p>
                    </div>
                </div>","0","main_experiment_trial","9","interview_scheme","schematic_sequence","","","",""
"","","","","","html-keyboard-response","77","860742","0.0-77.0","E51ED157ECBD4EB7AE43B2D66B60D7B8","019cefa1-d6ca-7c55-b8a2-34ac7b1cbcdd","019cef87-c56d-7b55-9135-c5814367ec25","","null","
                <div class=""stimulus-container"">
                    <img src=""images/schematic_sequence/interview_scheme/interview_scheme_ten.png"" class=""exp-image"">
                    <div class=""question-area""></div> 
                </div>","null","","","","","","","",""
"","","","","","html-button-response","78","861257","0.0-78.0","E51ED157ECBD4EB7AE43B2D66B60D7B8","019cefa1-d6ca-7c55-b8a2-34ac7b1cbcdd","019cef87-c56d-7b55-9135-c5814367ec25","","514","
                <div class=""stimulus-container"">
                    <img src=""images/schematic_sequence/interview_scheme/interview_scheme_ten.png"" class=""exp-image"">
                    <div class=""question-area"">
                        <p style=""font-size: 20px; font-weight: bold; margin: 0;"">Is there a person in this image?</p>
                    </div>
                </div>","0","main_experiment_trial","ten","interview_scheme","schematic_sequence","","","",""
"","","","","","html-keyboard-response","79","862258","0.0-79.0","E51ED157ECBD4EB7AE43B2D66B60D7B8","019cefa1-d6ca-7c55-b8a2-34ac7b1cbcdd","019cef87-c56d-7b55-9135-c5814367ec25","","null","<div style=""background-color: white; width: 100vw; height: 100vh;""></div>","null","","","","","","","",""
"","","","","","html-keyboard-response","80","867263","0.0-80.0","E51ED157ECBD4EB7AE43B2D66B60D7B8","019cefa1-d6ca-7c55-b8a2-34ac7b1cbcdd","019cef87-c56d-7b55-9135-c5814367ec25","","null","
                <div class=""stimulus-container"">
                    <img src=""images/causal_sequence/coin_causal/coin_causal_1.png"" class=""exp-image"">
                    <div class=""question-area""></div> 
                </div>","null","","","","","","","",""
"","","","","","html-button-response","81","868017","0.0-81.0","E51ED157ECBD4EB7AE43B2D66B60D7B8","019cefa1-d6ca-7c55-b8a2-34ac7b1cbcdd","019cef87-c56d-7b55-9135-c5814367ec25","","754","
                <div class=""stimulus-container"">
                    <img src=""images/causal_sequence/coin_causal/coin_causal_1.png"" class=""exp-image"">
                    <div class=""question-area"">
                        <p style=""font-size: 20px; font-weight: bold; margin: 0;"">Is there a person in this image?</p>
                    </div>
                </div>","0","main_experiment_trial","1","coin_causal","causal_sequence","","","",""
"","","","","","html-keyboard-response","82","873023","0.0-82.0","E51ED157ECBD4EB7AE43B2D66B60D7B8","019cefa1-d6ca-7c55-b8a2-34ac7b1cbcdd","019cef87-c56d-7b55-9135-c5814367ec25","","null","
                <div class=""stimulus-container"">
                    <img src=""images/causal_sequence/coin_causal/coin_causal_2.png"" class=""exp-image"">
                    <div class=""question-area""></div> 
                </div>","null","","","","","","","",""
"","","","","","html-button-response","83","873553","0.0-83.0","E51ED157ECBD4EB7AE43B2D66B60D7B8","019cefa1-d6ca-7c55-b8a2-34ac7b1cbcdd","019cef87-c56d-7b55-9135-c5814367ec25","","529","
                <div class=""stimulus-container"">
                    <img src=""images/causal_sequence/coin_causal/coin_causal_2.png"" class=""exp-image"">
                    <div class=""question-area"">
                        <p style=""font-size: 20px; font-weight: bold; margin: 0;"">Is there a person in this image?</p>
                    </div>
                </div>","0","main_experiment_trial","2","coin_causal","causal_sequence","","","",""
"","","","","","html-keyboard-response","84","878561","0.0-84.0","E51ED157ECBD4EB7AE43B2D66B60D7B8","019cefa1-d6ca-7c55-b8a2-34ac7b1cbcdd","019cef87-c56d-7b55-9135-c5814367ec25","","null","
                <div class=""stimulus-container"">
                    <img src=""images/causal_sequence/coin_causal/coin_causal_3.png"" class=""exp-image"">
                    <div class=""question-area""></div> 
                </div>","null","","","","","","","",""
"","","","","","html-button-response","85","879196","0.0-85.0","E51ED157ECBD4EB7AE43B2D66B60D7B8","019cefa1-d6ca-7c55-b8a2-34ac7b1cbcdd","019cef87-c56d-7b55-9135-c5814367ec25","","635","
                <div class=""stimulus-container"">
                    <img src=""images/causal_sequence/coin_causal/coin_causal_3.png"" class=""exp-image"">
                    <div class=""question-area"">
                        <p style=""font-size: 20px; font-weight: bold; margin: 0;"">Is there a person in this image?</p>
                    </div>
                </div>","0","main_experiment_trial","3","coin_causal","causal_sequence","","","",""
"","","","","","html-keyboard-response","86","884212","0.0-86.0","E51ED157ECBD4EB7AE43B2D66B60D7B8","019cefa1-d6ca-7c55-b8a2-34ac7b1cbcdd","019cef87-c56d-7b55-9135-c5814367ec25","","null","
                <div class=""stimulus-container"">
                    <img src=""images/causal_sequence/coin_causal/coin_causal_4.png"" class=""exp-image"">
                    <div class=""question-area""></div> 
                </div>","null","","","","","","","",""
"","","","","","html-button-response","87","884737","0.0-87.0","E51ED157ECBD4EB7AE43B2D66B60D7B8","019cefa1-d6ca-7c55-b8a2-34ac7b1cbcdd","019cef87-c56d-7b55-9135-c5814367ec25","","524","
                <div class=""stimulus-container"">
                    <img src=""images/causal_sequence/coin_causal/coin_causal_4.png"" class=""exp-image"">
                    <div class=""question-area"">
                        <p style=""font-size: 20px; font-weight: bold; margin: 0;"">Is there a person in this image?</p>
                    </div>
                </div>","0","main_experiment_trial","4","coin_causal","causal_sequence","","","",""
"","","","","","html-keyboard-response","88","889742","0.0-88.0","E51ED157ECBD4EB7AE43B2D66B60D7B8","019cefa1-d6ca-7c55-b8a2-34ac7b1cbcdd","019cef87-c56d-7b55-9135-c5814367ec25","","null","
                <div class=""stimulus-container"">
                    <img src=""images/causal_sequence/coin_causal/coin_causal_5.png"" class=""exp-image"">
                    <div class=""question-area""></div> 
                </div>","null","","","","","","","",""
"","","","","","html-button-response","89","890328","0.0-89.0","E51ED157ECBD4EB7AE43B2D66B60D7B8","019cefa1-d6ca-7c55-b8a2-34ac7b1cbcdd","019cef87-c56d-7b55-9135-c5814367ec25","","585","
                <div class=""stimulus-container"">
                    <img src=""images/causal_sequence/coin_causal/coin_causal_5.png"" class=""exp-image"">
                    <div class=""question-area"">
                        <p style=""font-size: 20px; font-weight: bold; margin: 0;"">Is there a person in this image?</p>
                    </div>
                </div>","0","main_experiment_trial","5","coin_causal","causal_sequence","","","",""
"","","","","","html-keyboard-response","90","895330","0.0-90.0","E51ED157ECBD4EB7AE43B2D66B60D7B8","019cefa1-d6ca-7c55-b8a2-34ac7b1cbcdd","019cef87-c56d-7b55-9135-c5814367ec25","","null","
                <div class=""stimulus-container"">
                    <img src=""images/causal_sequence/coin_causal/coin_causal_6.png"" class=""exp-image"">
                    <div class=""question-area""></div> 
                </div>","null","","","","","","","",""
"","","","","","html-button-response","91","896013","0.0-91.0","E51ED157ECBD4EB7AE43B2D66B60D7B8","019cefa1-d6ca-7c55-b8a2-34ac7b1cbcdd","019cef87-c56d-7b55-9135-c5814367ec25","","682","
                <div class=""stimulus-container"">
                    <img src=""images/causal_sequence/coin_causal/coin_causal_6.png"" class=""exp-image"">
                    <div class=""question-area"">
                        <p style=""font-size: 20px; font-weight: bold; margin: 0;"">Is there a person in this image?</p>
                    </div>
                </div>","0","main_experiment_trial","6","coin_causal","causal_sequence","","","",""
"","","","","","html-keyboard-response","92","901014","0.0-92.0","E51ED157ECBD4EB7AE43B2D66B60D7B8","019cefa1-d6ca-7c55-b8a2-34ac7b1cbcdd","019cef87-c56d-7b55-9135-c5814367ec25","","null","
                <div class=""stimulus-container"">
                    <img src=""images/causal_sequence/coin_causal/coin_causal_7.png"" class=""exp-image"">
                    <div class=""question-area""></div> 
                </div>","null","","","","","","","",""
"","","","","","html-button-response","93","901473","0.0-93.0","E51ED157ECBD4EB7AE43B2D66B60D7B8","019cefa1-d6ca-7c55-b8a2-34ac7b1cbcdd","019cef87-c56d-7b55-9135-c5814367ec25","","459","
                <div class=""stimulus-container"">
                    <img src=""images/causal_sequence/coin_causal/coin_causal_7.png"" class=""exp-image"">
                    <div class=""question-area"">
                        <p style=""font-size: 20px; font-weight: bold; margin: 0;"">Is there a person in this image?</p>
                    </div>
                </div>","0","main_experiment_trial","7","coin_causal","causal_sequence","","","",""
"","","","","","html-keyboard-response","94","906474","0.0-94.0","E51ED157ECBD4EB7AE43B2D66B60D7B8","019cefa1-d6ca-7c55-b8a2-34ac7b1cbcdd","019cef87-c56d-7b55-9135-c5814367ec25","","null","
                <div class=""stimulus-container"">
                    <img src=""images/causal_sequence/coin_causal/coin_causal_8.png"" class=""exp-image"">
                    <div class=""question-area""></div> 
                </div>","null","","","","","","","",""
"","","","","","html-button-response","95","906961","0.0-95.0","E51ED157ECBD4EB7AE43B2D66B60D7B8","019cefa1-d6ca-7c55-b8a2-34ac7b1cbcdd","019cef87-c56d-7b55-9135-c5814367ec25","","486","
                <div class=""stimulus-container"">
                    <img src=""images/causal_sequence/coin_causal/coin_causal_8.png"" class=""exp-image"">
                    <div class=""question-area"">
                        <p style=""font-size: 20px; font-weight: bold; margin: 0;"">Is there a person in this image?</p>
                    </div>
                </div>","0","main_experiment_trial","8","coin_causal","causal_sequence","","","",""
"","","","","","html-keyboard-response","96","911963","0.0-96.0","E51ED157ECBD4EB7AE43B2D66B60D7B8","019cefa1-d6ca-7c55-b8a2-34ac7b1cbcdd","019cef87-c56d-7b55-9135-c5814367ec25","","null","
                <div class=""stimulus-container"">
                    <img src=""images/causal_sequence/coin_causal/coin_causal_9.png"" class=""exp-image"">
                    <div class=""question-area""></div> 
                </div>","null","","","","","","","",""
"","","","","","html-button-response","97","913225","0.0-97.0","E51ED157ECBD4EB7AE43B2D66B60D7B8","019cefa1-d6ca-7c55-b8a2-34ac7b1cbcdd","019cef87-c56d-7b55-9135-c5814367ec25","","1262","
                <div class=""stimulus-container"">
                    <img src=""images/causal_sequence/coin_causal/coin_causal_9.png"" class=""exp-image"">
                    <div class=""question-area"">
                        <p style=""font-size: 20px; font-weight: bold; margin: 0;"">Is there a person in this image?</p>
                    </div>
                </div>","0","main_experiment_trial","9","coin_causal","causal_sequence","","","",""
"","","","","","html-keyboard-response","98","918229","0.0-98.0","E51ED157ECBD4EB7AE43B2D66B60D7B8","019cefa1-d6ca-7c55-b8a2-34ac7b1cbcdd","019cef87-c56d-7b55-9135-c5814367ec25","","null","
                <div class=""stimulus-container"">
                    <img src=""images/causal_sequence/coin_causal/coin_causal_ten.png"" class=""exp-image"">
                    <div class=""question-area""></div> 
                </div>","null","","","","","","","",""
"","","","","","html-button-response","99","918973","0.0-99.0","E51ED157ECBD4EB7AE43B2D66B60D7B8","019cefa1-d6ca-7c55-b8a2-34ac7b1cbcdd","019cef87-c56d-7b55-9135-c5814367ec25","","744","
                <div class=""stimulus-container"">
                    <img src=""images/causal_sequence/coin_causal/coin_causal_ten.png"" class=""exp-image"">
                    <div class=""question-area"">
                        <p style=""font-size: 20px; font-weight: bold; margin: 0;"">Is there a person in this image?</p>
                    </div>
                </div>","0","main_experiment_trial","ten","coin_causal","causal_sequence","","","",""
"","","","","","html-keyboard-response","100","919974","0.0-100.0","E51ED157ECBD4EB7AE43B2D66B60D7B8","019cefa1-d6ca-7c55-b8a2-34ac7b1cbcdd","019cef87-c56d-7b55-9135-c5814367ec25","","null","<div style=""background-color: white; width: 100vw; height: 100vh;""></div>","null","","","","","","","",""
"","","","","","html-keyboard-response","101","924975","0.0-101.0","E51ED157ECBD4EB7AE43B2D66B60D7B8","019cefa1-d6ca-7c55-b8a2-34ac7b1cbcdd","019cef87-c56d-7b55-9135-c5814367ec25","","null","
                <div class=""stimulus-container"">
                    <img src=""images/schematic_sequence/flight_scheme/flight_scheme_1.png"" class=""exp-image"">
                    <div class=""question-area""></div> 
                </div>","null","","","","","","","",""
"","","","","","html-button-response","102","925881","0.0-102.0","E51ED157ECBD4EB7AE43B2D66B60D7B8","019cefa1-d6ca-7c55-b8a2-34ac7b1cbcdd","019cef87-c56d-7b55-9135-c5814367ec25","","906","
                <div class=""stimulus-container"">
                    <img src=""images/schematic_sequence/flight_scheme/flight_scheme_1.png"" class=""exp-image"">
                    <div class=""question-area"">
                        <p style=""font-size: 20px; font-weight: bold; margin: 0;"">Is there a person in this image?</p>
                    </div>
                </div>","0","main_experiment_trial","1","flight_scheme","schematic_sequence","","","",""
"","","","","","html-keyboard-response","103","930881","0.0-103.0","E51ED157ECBD4EB7AE43B2D66B60D7B8","019cefa1-d6ca-7c55-b8a2-34ac7b1cbcdd","019cef87-c56d-7b55-9135-c5814367ec25","","null","
                <div class=""stimulus-container"">
                    <img src=""images/schematic_sequence/flight_scheme/flight_scheme_2.png"" class=""exp-image"">
                    <div class=""question-area""></div> 
                </div>","null","","","","","","","",""
"","","","","","html-button-response","104","931921","0.0-104.0","E51ED157ECBD4EB7AE43B2D66B60D7B8","019cefa1-d6ca-7c55-b8a2-34ac7b1cbcdd","019cef87-c56d-7b55-9135-c5814367ec25","","1040","
                <div class=""stimulus-container"">
                    <img src=""images/schematic_sequence/flight_scheme/flight_scheme_2.png"" class=""exp-image"">
                    <div class=""question-area"">
                        <p style=""font-size: 20px; font-weight: bold; margin: 0;"">Is there a person in this image?</p>
                    </div>
                </div>","1","main_experiment_trial","2","flight_scheme","schematic_sequence","","","",""
"","","","","","html-keyboard-response","105","936929","0.0-105.0","E51ED157ECBD4EB7AE43B2D66B60D7B8","019cefa1-d6ca-7c55-b8a2-34ac7b1cbcdd","019cef87-c56d-7b55-9135-c5814367ec25","","null","
                <div class=""stimulus-container"">
                    <img src=""images/schematic_sequence/flight_scheme/flight_scheme_3.png"" class=""exp-image"">
                    <div class=""question-area""></div> 
                </div>","null","","","","","","","",""
"","","","","","html-button-response","106","937516","0.0-106.0","E51ED157ECBD4EB7AE43B2D66B60D7B8","019cefa1-d6ca-7c55-b8a2-34ac7b1cbcdd","019cef87-c56d-7b55-9135-c5814367ec25","","587","
                <div class=""stimulus-container"">
                    <img src=""images/schematic_sequence/flight_scheme/flight_scheme_3.png"" class=""exp-image"">
                    <div class=""question-area"">
                        <p style=""font-size: 20px; font-weight: bold; margin: 0;"">Is there a person in this image?</p>
                    </div>
                </div>","0","main_experiment_trial","3","flight_scheme","schematic_sequence","","","",""
"","","","","","html-keyboard-response","107","942528","0.0-107.0","E51ED157ECBD4EB7AE43B2D66B60D7B8","019cefa1-d6ca-7c55-b8a2-34ac7b1cbcdd","019cef87-c56d-7b55-9135-c5814367ec25","","null","
                <div class=""stimulus-container"">
                    <img src=""images/schematic_sequence/flight_scheme/flight_scheme_4.png"" class=""exp-image"">
                    <div class=""question-area""></div> 
                </div>","null","","","","","","","",""
"","","","","","html-button-response","108","943304","0.0-108.0","E51ED157ECBD4EB7AE43B2D66B60D7B8","019cefa1-d6ca-7c55-b8a2-34ac7b1cbcdd","019cef87-c56d-7b55-9135-c5814367ec25","","775","
                <div class=""stimulus-container"">
                    <img src=""images/schematic_sequence/flight_scheme/flight_scheme_4.png"" class=""exp-image"">
                    <div class=""question-area"">
                        <p style=""font-size: 20px; font-weight: bold; margin: 0;"">Is there a person in this image?</p>
                    </div>
                </div>","0","main_experiment_trial","4","flight_scheme","schematic_sequence","","","",""
"","","","","","html-keyboard-response","109","948313","0.0-109.0","E51ED157ECBD4EB7AE43B2D66B60D7B8","019cefa1-d6ca-7c55-b8a2-34ac7b1cbcdd","019cef87-c56d-7b55-9135-c5814367ec25","","null","
                <div class=""stimulus-container"">
                    <img src=""images/schematic_sequence/flight_scheme/flight_scheme_5.png"" class=""exp-image"">
                    <div class=""question-area""></div> 
                </div>","null","","","","","","","",""
"","","","","","html-button-response","110","949361","0.0-110.0","E51ED157ECBD4EB7AE43B2D66B60D7B8","019cefa1-d6ca-7c55-b8a2-34ac7b1cbcdd","019cef87-c56d-7b55-9135-c5814367ec25","","1047","
                <div class=""stimulus-container"">
                    <img src=""images/schematic_sequence/flight_scheme/flight_scheme_5.png"" class=""exp-image"">
                    <div class=""question-area"">
                        <p style=""font-size: 20px; font-weight: bold; margin: 0;"">Is there a person in this image?</p>
                    </div>
                </div>","0","main_experiment_trial","5","flight_scheme","schematic_sequence","","","",""
"","","","","","html-keyboard-response","111","954363","0.0-111.0","E51ED157ECBD4EB7AE43B2D66B60D7B8","019cefa1-d6ca-7c55-b8a2-34ac7b1cbcdd","019cef87-c56d-7b55-9135-c5814367ec25","","null","
                <div class=""stimulus-container"">
                    <img src=""images/schematic_sequence/flight_scheme/flight_scheme_6.png"" class=""exp-image"">
                    <div class=""question-area""></div> 
                </div>","null","","","","","","","",""
"","","","","","html-button-response","112","955209","0.0-112.0","E51ED157ECBD4EB7AE43B2D66B60D7B8","019cefa1-d6ca-7c55-b8a2-34ac7b1cbcdd","019cef87-c56d-7b55-9135-c5814367ec25","","846","
                <div class=""stimulus-container"">
                    <img src=""images/schematic_sequence/flight_scheme/flight_scheme_6.png"" class=""exp-image"">
                    <div class=""question-area"">
                        <p style=""font-size: 20px; font-weight: bold; margin: 0;"">Is there a person in this image?</p>
                    </div>
                </div>","1","main_experiment_trial","6","flight_scheme","schematic_sequence","","","",""
"","","","","","html-keyboard-response","113","960211","0.0-113.0","E51ED157ECBD4EB7AE43B2D66B60D7B8","019cefa1-d6ca-7c55-b8a2-34ac7b1cbcdd","019cef87-c56d-7b55-9135-c5814367ec25","","null","
                <div class=""stimulus-container"">
                    <img src=""images/schematic_sequence/flight_scheme/flight_scheme_7.png"" class=""exp-image"">
                    <div class=""question-area""></div> 
                </div>","null","","","","","","","",""
"","","","","","html-button-response","114","961145","0.0-114.0","E51ED157ECBD4EB7AE43B2D66B60D7B8","019cefa1-d6ca-7c55-b8a2-34ac7b1cbcdd","019cef87-c56d-7b55-9135-c5814367ec25","","934","
                <div class=""stimulus-container"">
                    <img src=""images/schematic_sequence/flight_scheme/flight_scheme_7.png"" class=""exp-image"">
                    <div class=""question-area"">
                        <p style=""font-size: 20px; font-weight: bold; margin: 0;"">Is there a person in this image?</p>
                    </div>
                </div>","1","main_experiment_trial","7","flight_scheme","schematic_sequence","","","",""
"","","","","","html-keyboard-response","115","966146","0.0-115.0","E51ED157ECBD4EB7AE43B2D66B60D7B8","019cefa1-d6ca-7c55-b8a2-34ac7b1cbcdd","019cef87-c56d-7b55-9135-c5814367ec25","","null","
                <div class=""stimulus-container"">
                    <img src=""images/schematic_sequence/flight_scheme/flight_scheme_8.png"" class=""exp-image"">
                    <div class=""question-area""></div> 
                </div>","null","","","","","","","",""
"","","","","","html-button-response","116","967193","0.0-116.0","E51ED157ECBD4EB7AE43B2D66B60D7B8","019cefa1-d6ca-7c55-b8a2-34ac7b1cbcdd","019cef87-c56d-7b55-9135-c5814367ec25","","1046","
                <div class=""stimulus-container"">
                    <img src=""images/schematic_sequence/flight_scheme/flight_scheme_8.png"" class=""exp-image"">
                    <div class=""question-area"">
                        <p style=""font-size: 20px; font-weight: bold; margin: 0;"">Is there a person in this image?</p>
                    </div>
                </div>","1","main_experiment_trial","8","flight_scheme","schematic_sequence","","","",""
"","","","","","html-keyboard-response","117","972194","0.0-117.0","E51ED157ECBD4EB7AE43B2D66B60D7B8","019cefa1-d6ca-7c55-b8a2-34ac7b1cbcdd","019cef87-c56d-7b55-9135-c5814367ec25","","null","
                <div class=""stimulus-container"">
                    <img src=""images/schematic_sequence/flight_scheme/flight_scheme_9.png"" class=""exp-image"">
                    <div class=""question-area""></div> 
                </div>","null","","","","","","","",""
"","","","","","html-button-response","118","972757","0.0-118.0","E51ED157ECBD4EB7AE43B2D66B60D7B8","019cefa1-d6ca-7c55-b8a2-34ac7b1cbcdd","019cef87-c56d-7b55-9135-c5814367ec25","","562","
                <div class=""stimulus-container"">
                    <img src=""images/schematic_sequence/flight_scheme/flight_scheme_9.png"" class=""exp-image"">
                    <div class=""question-area"">
                        <p style=""font-size: 20px; font-weight: bold; margin: 0;"">Is there a person in this image?</p>
                    </div>
                </div>","0","main_experiment_trial","9","flight_scheme","schematic_sequence","","","",""
"","","","","","html-keyboard-response","119","978681","0.0-119.0","E51ED157ECBD4EB7AE43B2D66B60D7B8","019cefa1-d6ca-7c55-b8a2-34ac7b1cbcdd","019cef87-c56d-7b55-9135-c5814367ec25","","null","
                <div class=""stimulus-container"">
                    <img src=""images/schematic_sequence/flight_scheme/flight_scheme_ten.png"" class=""exp-image"">
                    <div class=""question-area""></div> 
                </div>","null","","","","","","","",""
"","","","","","html-button-response","120","980373","0.0-120.0","E51ED157ECBD4EB7AE43B2D66B60D7B8","019cefa1-d6ca-7c55-b8a2-34ac7b1cbcdd","019cef87-c56d-7b55-9135-c5814367ec25","","1692","
                <div class=""stimulus-container"">
                    <img src=""images/schematic_sequence/flight_scheme/flight_scheme_ten.png"" class=""exp-image"">
                    <div class=""question-area"">
                        <p style=""font-size: 20px; font-weight: bold; margin: 0;"">Is there a person in this image?</p>
                    </div>
                </div>","0","main_experiment_trial","ten","flight_scheme","schematic_sequence","","","",""
"","","","","","html-keyboard-response","121","981381","0.0-121.0","E51ED157ECBD4EB7AE43B2D66B60D7B8","019cefa1-d6ca-7c55-b8a2-34ac7b1cbcdd","019cef87-c56d-7b55-9135-c5814367ec25","","null","<div style=""background-color: white; width: 100vw; height: 100vh;""></div>","null","","","","","","","",""
"","","","","","html-keyboard-response","122","986382","0.0-122.0","E51ED157ECBD4EB7AE43B2D66B60D7B8","019cefa1-d6ca-7c55-b8a2-34ac7b1cbcdd","019cef87-c56d-7b55-9135-c5814367ec25","","null","
                <div class=""stimulus-container"">
                    <img src=""images/schematic_sequence/dinner_party_scheme/dinner_party_scheme_1.png"" class=""exp-image"">
                    <div class=""question-area""></div> 
                </div>","null","","","","","","","",""
"","","","","","html-button-response","123","986953","0.0-123.0","E51ED157ECBD4EB7AE43B2D66B60D7B8","019cefa1-d6ca-7c55-b8a2-34ac7b1cbcdd","019cef87-c56d-7b55-9135-c5814367ec25","","571","
                <div class=""stimulus-container"">
                    <img src=""images/schematic_sequence/dinner_party_scheme/dinner_party_scheme_1.png"" class=""exp-image"">
                    <div class=""question-area"">
                        <p style=""font-size: 20px; font-weight: bold; margin: 0;"">Is there a person in this image?</p>
                    </div>
                </div>","0","main_experiment_trial","1","dinner_party_scheme","schematic_sequence","","","",""
"","","","","","html-keyboard-response","124","991966","0.0-124.0","E51ED157ECBD4EB7AE43B2D66B60D7B8","019cefa1-d6ca-7c55-b8a2-34ac7b1cbcdd","019cef87-c56d-7b55-9135-c5814367ec25","","null","
                <div class=""stimulus-container"">
                    <img src=""images/schematic_sequence/dinner_party_scheme/dinner_party_scheme_2.png"" class=""exp-image"">
                    <div class=""question-area""></div> 
                </div>","null","","","","","","","",""
"","","","","","html-button-response","125","992352","0.0-125.0","E51ED157ECBD4EB7AE43B2D66B60D7B8","019cefa1-d6ca-7c55-b8a2-34ac7b1cbcdd","019cef87-c56d-7b55-9135-c5814367ec25","","385","
                <div class=""stimulus-container"">
                    <img src=""images/schematic_sequence/dinner_party_scheme/dinner_party_scheme_2.png"" class=""exp-image"">
                    <div class=""question-area"">
                        <p style=""font-size: 20px; font-weight: bold; margin: 0;"">Is there a person in this image?</p>
                    </div>
                </div>","0","main_experiment_trial","2","dinner_party_scheme","schematic_sequence","","","",""
"","","","","","html-keyboard-response","126","997365","0.0-126.0","E51ED157ECBD4EB7AE43B2D66B60D7B8","019cefa1-d6ca-7c55-b8a2-34ac7b1cbcdd","019cef87-c56d-7b55-9135-c5814367ec25","","null","
                <div class=""stimulus-container"">
                    <img src=""images/schematic_sequence/dinner_party_scheme/dinner_party_scheme_3.png"" class=""exp-image"">
                    <div class=""question-area""></div> 
                </div>","null","","","","","","","",""
"","","","","","html-button-response","127","998161","0.0-127.0","E51ED157ECBD4EB7AE43B2D66B60D7B8","019cefa1-d6ca-7c55-b8a2-34ac7b1cbcdd","019cef87-c56d-7b55-9135-c5814367ec25","","796","
                <div class=""stimulus-container"">
                    <img src=""images/schematic_sequence/dinner_party_scheme/dinner_party_scheme_3.png"" class=""exp-image"">
                    <div class=""question-area"">
                        <p style=""font-size: 20px; font-weight: bold; margin: 0;"">Is there a person in this image?</p>
                    </div>
                </div>","0","main_experiment_trial","3","dinner_party_scheme","schematic_sequence","","","",""
"","","","","","html-keyboard-response","128","1003163","0.0-128.0","E51ED157ECBD4EB7AE43B2D66B60D7B8","019cefa1-d6ca-7c55-b8a2-34ac7b1cbcdd","019cef87-c56d-7b55-9135-c5814367ec25","","null","
                <div class=""stimulus-container"">
                    <img src=""images/schematic_sequence/dinner_party_scheme/dinner_party_scheme_4.png"" class=""exp-image"">
                    <div class=""question-area""></div> 
                </div>","null","","","","","","","",""
"","","","","","html-button-response","129","1003688","0.0-129.0","E51ED157ECBD4EB7AE43B2D66B60D7B8","019cefa1-d6ca-7c55-b8a2-34ac7b1cbcdd","019cef87-c56d-7b55-9135-c5814367ec25","","525","
                <div class=""stimulus-container"">
                    <img src=""images/schematic_sequence/dinner_party_scheme/dinner_party_scheme_4.png"" class=""exp-image"">
                    <div class=""question-area"">
                        <p style=""font-size: 20px; font-weight: bold; margin: 0;"">Is there a person in this image?</p>
                    </div>
                </div>","0","main_experiment_trial","4","dinner_party_scheme","schematic_sequence","","","",""
"","","","","","html-keyboard-response","130","1008697","0.0-130.0","E51ED157ECBD4EB7AE43B2D66B60D7B8","019cefa1-d6ca-7c55-b8a2-34ac7b1cbcdd","019cef87-c56d-7b55-9135-c5814367ec25","","null","
                <div class=""stimulus-container"">
                    <img src=""images/schematic_sequence/dinner_party_scheme/dinner_party_scheme_5.png"" class=""exp-image"">
                    <div class=""question-area""></div> 
                </div>","null","","","","","","","",""
"","","","","","html-button-response","131","1009384","0.0-131.0","E51ED157ECBD4EB7AE43B2D66B60D7B8","019cefa1-d6ca-7c55-b8a2-34ac7b1cbcdd","019cef87-c56d-7b55-9135-c5814367ec25","","687","
                <div class=""stimulus-container"">
                    <img src=""images/schematic_sequence/dinner_party_scheme/dinner_party_scheme_5.png"" class=""exp-image"">
                    <div class=""question-area"">
                        <p style=""font-size: 20px; font-weight: bold; margin: 0;"">Is there a person in this image?</p>
                    </div>
                </div>","0","main_experiment_trial","5","dinner_party_scheme","schematic_sequence","","","",""
"","","","","","html-keyboard-response","132","1014396","0.0-132.0","E51ED157ECBD4EB7AE43B2D66B60D7B8","019cefa1-d6ca-7c55-b8a2-34ac7b1cbcdd","019cef87-c56d-7b55-9135-c5814367ec25","","null","
                <div class=""stimulus-container"">
                    <img src=""images/schematic_sequence/dinner_party_scheme/dinner_party_scheme_6.png"" class=""exp-image"">
                    <div class=""question-area""></div> 
                </div>","null","","","","","","","",""
"","","","","","html-button-response","133","1014908","0.0-133.0","E51ED157ECBD4EB7AE43B2D66B60D7B8","019cefa1-d6ca-7c55-b8a2-34ac7b1cbcdd","019cef87-c56d-7b55-9135-c5814367ec25","","512","
                <div class=""stimulus-container"">
                    <img src=""images/schematic_sequence/dinner_party_scheme/dinner_party_scheme_6.png"" class=""exp-image"">
                    <div class=""question-area"">
                        <p style=""font-size: 20px; font-weight: bold; margin: 0;"">Is there a person in this image?</p>
                    </div>
                </div>","0","main_experiment_trial","6","dinner_party_scheme","schematic_sequence","","","",""
"","","","","","html-keyboard-response","134","1019914","0.0-134.0","E51ED157ECBD4EB7AE43B2D66B60D7B8","019cefa1-d6ca-7c55-b8a2-34ac7b1cbcdd","019cef87-c56d-7b55-9135-c5814367ec25","","null","
                <div class=""stimulus-container"">
                    <img src=""images/schematic_sequence/dinner_party_scheme/dinner_party_scheme_7.png"" class=""exp-image"">
                    <div class=""question-area""></div> 
                </div>","null","","","","","","","",""
"","","","","","html-button-response","135","1020333","0.0-135.0","E51ED157ECBD4EB7AE43B2D66B60D7B8","019cefa1-d6ca-7c55-b8a2-34ac7b1cbcdd","019cef87-c56d-7b55-9135-c5814367ec25","","418","
                <div class=""stimulus-container"">
                    <img src=""images/schematic_sequence/dinner_party_scheme/dinner_party_scheme_7.png"" class=""exp-image"">
                    <div class=""question-area"">
                        <p style=""font-size: 20px; font-weight: bold; margin: 0;"">Is there a person in this image?</p>
                    </div>
                </div>","0","main_experiment_trial","7","dinner_party_scheme","schematic_sequence","","","",""
"","","","","","html-keyboard-response","136","1025349","0.0-136.0","E51ED157ECBD4EB7AE43B2D66B60D7B8","019cefa1-d6ca-7c55-b8a2-34ac7b1cbcdd","019cef87-c56d-7b55-9135-c5814367ec25","","null","
                <div class=""stimulus-container"">
                    <img src=""images/schematic_sequence/dinner_party_scheme/dinner_party_scheme_8.png"" class=""exp-image"">
                    <div class=""question-area""></div> 
                </div>","null","","","","","","","",""
"","","","","","html-button-response","137","1025897","0.0-137.0","E51ED157ECBD4EB7AE43B2D66B60D7B8","019cefa1-d6ca-7c55-b8a2-34ac7b1cbcdd","019cef87-c56d-7b55-9135-c5814367ec25","","547","
                <div class=""stimulus-container"">
                    <img src=""images/schematic_sequence/dinner_party_scheme/dinner_party_scheme_8.png"" class=""exp-image"">
                    <div class=""question-area"">
                        <p style=""font-size: 20px; font-weight: bold; margin: 0;"">Is there a person in this image?</p>
                    </div>
                </div>","0","main_experiment_trial","8","dinner_party_scheme","schematic_sequence","","","",""
"","","","","","html-keyboard-response","138","1030908","0.0-138.0","E51ED157ECBD4EB7AE43B2D66B60D7B8","019cefa1-d6ca-7c55-b8a2-34ac7b1cbcdd","019cef87-c56d-7b55-9135-c5814367ec25","","null","
                <div class=""stimulus-container"">
                    <img src=""images/schematic_sequence/dinner_party_scheme/dinner_party_scheme_9.png"" class=""exp-image"">
                    <div class=""question-area""></div> 
                </div>","null","","","","","","","",""
"","","","","","html-button-response","139","1031869","0.0-139.0","E51ED157ECBD4EB7AE43B2D66B60D7B8","019cefa1-d6ca-7c55-b8a2-34ac7b1cbcdd","019cef87-c56d-7b55-9135-c5814367ec25","","961","
                <div class=""stimulus-container"">
                    <img src=""images/schematic_sequence/dinner_party_scheme/dinner_party_scheme_9.png"" class=""exp-image"">
                    <div class=""question-area"">
                        <p style=""font-size: 20px; font-weight: bold; margin: 0;"">Is there a person in this image?</p>
                    </div>
                </div>","0","main_experiment_trial","9","dinner_party_scheme","schematic_sequence","","","",""
"","","","","","html-keyboard-response","140","1036881","0.0-140.0","E51ED157ECBD4EB7AE43B2D66B60D7B8","019cefa1-d6ca-7c55-b8a2-34ac7b1cbcdd","019cef87-c56d-7b55-9135-c5814367ec25","","null","
                <div class=""stimulus-container"">
                    <img src=""images/schematic_sequence/dinner_party_scheme/dinner_party_scheme_ten.png"" class=""exp-image"">
                    <div class=""question-area""></div> 
                </div>","null","","","","","","","",""
"","","","","","html-button-response","141","1038401","0.0-141.0","E51ED157ECBD4EB7AE43B2D66B60D7B8","019cefa1-d6ca-7c55-b8a2-34ac7b1cbcdd","019cef87-c56d-7b55-9135-c5814367ec25","","1520","
                <div class=""stimulus-container"">
                    <img src=""images/schematic_sequence/dinner_party_scheme/dinner_party_scheme_ten.png"" class=""exp-image"">
                    <div class=""question-area"">
                        <p style=""font-size: 20px; font-weight: bold; margin: 0;"">Is there a person in this image?</p>
                    </div>
                </div>","0","main_experiment_trial","ten","dinner_party_scheme","schematic_sequence","","","",""
"","","","","","html-keyboard-response","142","1039415","0.0-142.0","E51ED157ECBD4EB7AE43B2D66B60D7B8","019cefa1-d6ca-7c55-b8a2-34ac7b1cbcdd","019cef87-c56d-7b55-9135-c5814367ec25","","null","<div style=""background-color: white; width: 100vw; height: 100vh;""></div>","null","","","","","","","",""
"","","","","","html-keyboard-response","143","1044432","0.0-143.0","E51ED157ECBD4EB7AE43B2D66B60D7B8","019cefa1-d6ca-7c55-b8a2-34ac7b1cbcdd","019cef87-c56d-7b55-9135-c5814367ec25","","null","
                <div class=""stimulus-container"">
                    <img src=""images/schematic_sequence/supermarket_scheme/supermarket_scheme_1.png"" class=""exp-image"">
                    <div class=""question-area""></div> 
                </div>","null","","","","","","","",""
"","","","","","html-button-response","144","1045045","0.0-144.0","E51ED157ECBD4EB7AE43B2D66B60D7B8","019cefa1-d6ca-7c55-b8a2-34ac7b1cbcdd","019cef87-c56d-7b55-9135-c5814367ec25","","613","
                <div class=""stimulus-container"">
                    <img src=""images/schematic_sequence/supermarket_scheme/supermarket_scheme_1.png"" class=""exp-image"">
                    <div class=""question-area"">
                        <p style=""font-size: 20px; font-weight: bold; margin: 0;"">Is there a person in this image?</p>
                    </div>
                </div>","1","main_experiment_trial","1","supermarket_scheme","schematic_sequence","","","",""
"","","","","","html-keyboard-response","145","1050062","0.0-145.0","E51ED157ECBD4EB7AE43B2D66B60D7B8","019cefa1-d6ca-7c55-b8a2-34ac7b1cbcdd","019cef87-c56d-7b55-9135-c5814367ec25","","null","
                <div class=""stimulus-container"">
                    <img src=""images/schematic_sequence/supermarket_scheme/supermarket_scheme_2.png"" class=""exp-image"">
                    <div class=""question-area""></div> 
                </div>","null","","","","","","","",""
"","","","","","html-button-response","146","1050561","0.0-146.0","E51ED157ECBD4EB7AE43B2D66B60D7B8","019cefa1-d6ca-7c55-b8a2-34ac7b1cbcdd","019cef87-c56d-7b55-9135-c5814367ec25","","498","
                <div class=""stimulus-container"">
                    <img src=""images/schematic_sequence/supermarket_scheme/supermarket_scheme_2.png"" class=""exp-image"">
                    <div class=""question-area"">
                        <p style=""font-size: 20px; font-weight: bold; margin: 0;"">Is there a person in this image?</p>
                    </div>
                </div>","1","main_experiment_trial","2","supermarket_scheme","schematic_sequence","","","",""
"","","","","","html-keyboard-response","147","1055562","0.0-147.0","E51ED157ECBD4EB7AE43B2D66B60D7B8","019cefa1-d6ca-7c55-b8a2-34ac7b1cbcdd","019cef87-c56d-7b55-9135-c5814367ec25","","null","
                <div class=""stimulus-container"">
                    <img src=""images/schematic_sequence/supermarket_scheme/supermarket_scheme_3.png"" class=""exp-image"">
                    <div class=""question-area""></div> 
                </div>","null","","","","","","","",""
"","","","","","html-button-response","148","1056881","0.0-148.0","E51ED157ECBD4EB7AE43B2D66B60D7B8","019cefa1-d6ca-7c55-b8a2-34ac7b1cbcdd","019cef87-c56d-7b55-9135-c5814367ec25","","1319","
                <div class=""stimulus-container"">
                    <img src=""images/schematic_sequence/supermarket_scheme/supermarket_scheme_3.png"" class=""exp-image"">
                    <div class=""question-area"">
                        <p style=""font-size: 20px; font-weight: bold; margin: 0;"">Is there a person in this image?</p>
                    </div>
                </div>","1","main_experiment_trial","3","supermarket_scheme","schematic_sequence","","","",""
"","","","","","html-keyboard-response","149","1061882","0.0-149.0","E51ED157ECBD4EB7AE43B2D66B60D7B8","019cefa1-d6ca-7c55-b8a2-34ac7b1cbcdd","019cef87-c56d-7b55-9135-c5814367ec25","","null","
                <div class=""stimulus-container"">
                    <img src=""images/schematic_sequence/supermarket_scheme/supermarket_scheme_4.png"" class=""exp-image"">
                    <div class=""question-area""></div> 
                </div>","null","","","","","","","",""
"","","","","","html-button-response","150","1062593","0.0-150.0","E51ED157ECBD4EB7AE43B2D66B60D7B8","019cefa1-d6ca-7c55-b8a2-34ac7b1cbcdd","019cef87-c56d-7b55-9135-c5814367ec25","","710","
                <div class=""stimulus-container"">
                    <img src=""images/schematic_sequence/supermarket_scheme/supermarket_scheme_4.png"" class=""exp-image"">
                    <div class=""question-area"">
                        <p style=""font-size: 20px; font-weight: bold; margin: 0;"">Is there a person in this image?</p>
                    </div>
                </div>","0","main_experiment_trial","4","supermarket_scheme","schematic_sequence","","","",""
"","","","","","html-keyboard-response","151","1067598","0.0-151.0","E51ED157ECBD4EB7AE43B2D66B60D7B8","019cefa1-d6ca-7c55-b8a2-34ac7b1cbcdd","019cef87-c56d-7b55-9135-c5814367ec25","","null","
                <div class=""stimulus-container"">
                    <img src=""images/schematic_sequence/supermarket_scheme/supermarket_scheme_5.png"" class=""exp-image"">
                    <div class=""question-area""></div> 
                </div>","null","","","","","","","",""
"","","","","","html-button-response","152","1068053","0.0-152.0","E51ED157ECBD4EB7AE43B2D66B60D7B8","019cefa1-d6ca-7c55-b8a2-34ac7b1cbcdd","019cef87-c56d-7b55-9135-c5814367ec25","","454","
                <div class=""stimulus-container"">
                    <img src=""images/schematic_sequence/supermarket_scheme/supermarket_scheme_5.png"" class=""exp-image"">
                    <div class=""question-area"">
                        <p style=""font-size: 20px; font-weight: bold; margin: 0;"">Is there a person in this image?</p>
                    </div>
                </div>","1","main_experiment_trial","5","supermarket_scheme","schematic_sequence","","","",""
"","","","","","html-keyboard-response","153","1073064","0.0-153.0","E51ED157ECBD4EB7AE43B2D66B60D7B8","019cefa1-d6ca-7c55-b8a2-34ac7b1cbcdd","019cef87-c56d-7b55-9135-c5814367ec25","","null","
                <div class=""stimulus-container"">
                    <img src=""images/schematic_sequence/supermarket_scheme/supermarket_scheme_6.png"" class=""exp-image"">
                    <div class=""question-area""></div> 
                </div>","null","","","","","","","",""
"","","","","","html-button-response","154","1073516","0.0-154.0","E51ED157ECBD4EB7AE43B2D66B60D7B8","019cefa1-d6ca-7c55-b8a2-34ac7b1cbcdd","019cef87-c56d-7b55-9135-c5814367ec25","","452","
                <div class=""stimulus-container"">
                    <img src=""images/schematic_sequence/supermarket_scheme/supermarket_scheme_6.png"" class=""exp-image"">
                    <div class=""question-area"">
                        <p style=""font-size: 20px; font-weight: bold; margin: 0;"">Is there a person in this image?</p>
                    </div>
                </div>","0","main_experiment_trial","6","supermarket_scheme","schematic_sequence","","","",""
"","","","","","html-keyboard-response","155","1078532","0.0-155.0","E51ED157ECBD4EB7AE43B2D66B60D7B8","019cefa1-d6ca-7c55-b8a2-34ac7b1cbcdd","019cef87-c56d-7b55-9135-c5814367ec25","","null","
                <div class=""stimulus-container"">
                    <img src=""images/schematic_sequence/supermarket_scheme/supermarket_scheme_7.png"" class=""exp-image"">
                    <div class=""question-area""></div> 
                </div>","null","","","","","","","",""
"","","","","","html-button-response","156","1079045","0.0-156.0","E51ED157ECBD4EB7AE43B2D66B60D7B8","019cefa1-d6ca-7c55-b8a2-34ac7b1cbcdd","019cef87-c56d-7b55-9135-c5814367ec25","","513","
                <div class=""stimulus-container"">
                    <img src=""images/schematic_sequence/supermarket_scheme/supermarket_scheme_7.png"" class=""exp-image"">
                    <div class=""question-area"">
                        <p style=""font-size: 20px; font-weight: bold; margin: 0;"">Is there a person in this image?</p>
                    </div>
                </div>","0","main_experiment_trial","7","supermarket_scheme","schematic_sequence","","","",""
"","","","","","html-keyboard-response","157","1084047","0.0-157.0","E51ED157ECBD4EB7AE43B2D66B60D7B8","019cefa1-d6ca-7c55-b8a2-34ac7b1cbcdd","019cef87-c56d-7b55-9135-c5814367ec25","","null","
                <div class=""stimulus-container"">
                    <img src=""images/schematic_sequence/supermarket_scheme/supermarket_scheme_8.png"" class=""exp-image"">
                    <div class=""question-area""></div> 
                </div>","null","","","","","","","",""
"","","","","","html-button-response","158","1084509","0.0-158.0","E51ED157ECBD4EB7AE43B2D66B60D7B8","019cefa1-d6ca-7c55-b8a2-34ac7b1cbcdd","019cef87-c56d-7b55-9135-c5814367ec25","","462","
                <div class=""stimulus-container"">
                    <img src=""images/schematic_sequence/supermarket_scheme/supermarket_scheme_8.png"" class=""exp-image"">
                    <div class=""question-area"">
                        <p style=""font-size: 20px; font-weight: bold; margin: 0;"">Is there a person in this image?</p>
                    </div>
                </div>","0","main_experiment_trial","8","supermarket_scheme","schematic_sequence","","","",""
"","","","","","html-keyboard-response","159","1089525","0.0-159.0","E51ED157ECBD4EB7AE43B2D66B60D7B8","019cefa1-d6ca-7c55-b8a2-34ac7b1cbcdd","019cef87-c56d-7b55-9135-c5814367ec25","","null","
                <div class=""stimulus-container"">
                    <img src=""images/schematic_sequence/supermarket_scheme/supermarket_scheme_9.png"" class=""exp-image"">
                    <div class=""question-area""></div> 
                </div>","null","","","","","","","",""
"","","","","","html-button-response","160","1090233","0.0-160.0","E51ED157ECBD4EB7AE43B2D66B60D7B8","019cefa1-d6ca-7c55-b8a2-34ac7b1cbcdd","019cef87-c56d-7b55-9135-c5814367ec25","","707","
                <div class=""stimulus-container"">
                    <img src=""images/schematic_sequence/supermarket_scheme/supermarket_scheme_9.png"" class=""exp-image"">
                    <div class=""question-area"">
                        <p style=""font-size: 20px; font-weight: bold; margin: 0;"">Is there a person in this image?</p>
                    </div>
                </div>","0","main_experiment_trial","9","supermarket_scheme","schematic_sequence","","","",""
"","","","","","html-keyboard-response","161","1095245","0.0-161.0","E51ED157ECBD4EB7AE43B2D66B60D7B8","019cefa1-d6ca-7c55-b8a2-34ac7b1cbcdd","019cef87-c56d-7b55-9135-c5814367ec25","","null","
                <div class=""stimulus-container"">
                    <img src=""images/schematic_sequence/supermarket_scheme/supermarket_scheme_ten.png"" class=""exp-image"">
                    <div class=""question-area""></div> 
                </div>","null","","","","","","","",""
"","","","","","html-button-response","162","1095797","0.0-162.0","E51ED157ECBD4EB7AE43B2D66B60D7B8","019cefa1-d6ca-7c55-b8a2-34ac7b1cbcdd","019cef87-c56d-7b55-9135-c5814367ec25","","551","
                <div class=""stimulus-container"">
                    <img src=""images/schematic_sequence/supermarket_scheme/supermarket_scheme_ten.png"" class=""exp-image"">
                    <div class=""question-area"">
                        <p style=""font-size: 20px; font-weight: bold; margin: 0;"">Is there a person in this image?</p>
                    </div>
                </div>","1","main_experiment_trial","ten","supermarket_scheme","schematic_sequence","","","",""
"","","","","","html-keyboard-response","163","1096798","0.0-163.0","E51ED157ECBD4EB7AE43B2D66B60D7B8","019cefa1-d6ca-7c55-b8a2-34ac7b1cbcdd","019cef87-c56d-7b55-9135-c5814367ec25","","null","<div style=""background-color: white; width: 100vw; height: 100vh;""></div>","null","","","","","","","",""
"","","","","","html-keyboard-response","164","1101801","0.0-164.0","E51ED157ECBD4EB7AE43B2D66B60D7B8","019cefa1-d6ca-7c55-b8a2-34ac7b1cbcdd","019cef87-c56d-7b55-9135-c5814367ec25","","null","
                <div class=""stimulus-container"">
                    <img src=""images/causal_sequence/museum_causal/museum_causal_1.png"" class=""exp-image"">
                    <div class=""question-area""></div> 
                </div>","null","","","","","","","",""
"","","","","","html-button-response","165","1102557","0.0-165.0","E51ED157ECBD4EB7AE43B2D66B60D7B8","019cefa1-d6ca-7c55-b8a2-34ac7b1cbcdd","019cef87-c56d-7b55-9135-c5814367ec25","","756","
                <div class=""stimulus-container"">
                    <img src=""images/causal_sequence/museum_causal/museum_causal_1.png"" class=""exp-image"">
                    <div class=""question-area"">
                        <p style=""font-size: 20px; font-weight: bold; margin: 0;"">Is there a person in this image?</p>
                    </div>
                </div>","0","main_experiment_trial","1","museum_causal","causal_sequence","","","",""
"","","","","","html-keyboard-response","166","1107558","0.0-166.0","E51ED157ECBD4EB7AE43B2D66B60D7B8","019cefa1-d6ca-7c55-b8a2-34ac7b1cbcdd","019cef87-c56d-7b55-9135-c5814367ec25","","null","
                <div class=""stimulus-container"">
                    <img src=""images/causal_sequence/museum_causal/museum_causal_2.png"" class=""exp-image"">
                    <div class=""question-area""></div> 
                </div>","null","","","","","","","",""
"","","","","","html-button-response","167","1107997","0.0-167.0","E51ED157ECBD4EB7AE43B2D66B60D7B8","019cefa1-d6ca-7c55-b8a2-34ac7b1cbcdd","019cef87-c56d-7b55-9135-c5814367ec25","","439","
                <div class=""stimulus-container"">
                    <img src=""images/causal_sequence/museum_causal/museum_causal_2.png"" class=""exp-image"">
                    <div class=""question-area"">
                        <p style=""font-size: 20px; font-weight: bold; margin: 0;"">Is there a person in this image?</p>
                    </div>
                </div>","0","main_experiment_trial","2","museum_causal","causal_sequence","","","",""
"","","","","","html-keyboard-response","168","1112998","0.0-168.0","E51ED157ECBD4EB7AE43B2D66B60D7B8","019cefa1-d6ca-7c55-b8a2-34ac7b1cbcdd","019cef87-c56d-7b55-9135-c5814367ec25","","null","
                <div class=""stimulus-container"">
                    <img src=""images/causal_sequence/museum_causal/museum_causal_3.png"" class=""exp-image"">
                    <div class=""question-area""></div> 
                </div>","null","","","","","","","",""
"","","","","","html-button-response","169","1113897","0.0-169.0","E51ED157ECBD4EB7AE43B2D66B60D7B8","019cefa1-d6ca-7c55-b8a2-34ac7b1cbcdd","019cef87-c56d-7b55-9135-c5814367ec25","","899","
                <div class=""stimulus-container"">
                    <img src=""images/causal_sequence/museum_causal/museum_causal_3.png"" class=""exp-image"">
                    <div class=""question-area"">
                        <p style=""font-size: 20px; font-weight: bold; margin: 0;"">Is there a person in this image?</p>
                    </div>
                </div>","0","main_experiment_trial","3","museum_causal","causal_sequence","","","",""
"","","","","","html-keyboard-response","170","1118899","0.0-170.0","E51ED157ECBD4EB7AE43B2D66B60D7B8","019cefa1-d6ca-7c55-b8a2-34ac7b1cbcdd","019cef87-c56d-7b55-9135-c5814367ec25","","null","
                <div class=""stimulus-container"">
                    <img src=""images/causal_sequence/museum_causal/museum_causal_4.png"" class=""exp-image"">
                    <div class=""question-area""></div> 
                </div>","null","","","","","","","",""
"","","","","","html-button-response","171","1119501","0.0-171.0","E51ED157ECBD4EB7AE43B2D66B60D7B8","019cefa1-d6ca-7c55-b8a2-34ac7b1cbcdd","019cef87-c56d-7b55-9135-c5814367ec25","","601","
                <div class=""stimulus-container"">
                    <img src=""images/causal_sequence/museum_causal/museum_causal_4.png"" class=""exp-image"">
                    <div class=""question-area"">
                        <p style=""font-size: 20px; font-weight: bold; margin: 0;"">Is there a person in this image?</p>
                    </div>
                </div>","1","main_experiment_trial","4","museum_causal","causal_sequence","","","",""
"","","","","","html-keyboard-response","172","1124515","0.0-172.0","E51ED157ECBD4EB7AE43B2D66B60D7B8","019cefa1-d6ca-7c55-b8a2-34ac7b1cbcdd","019cef87-c56d-7b55-9135-c5814367ec25","","null","
                <div class=""stimulus-container"">
                    <img src=""images/causal_sequence/museum_causal/museum_causal_5.png"" class=""exp-image"">
                    <div class=""question-area""></div> 
                </div>","null","","","","","","","",""
"","","","","","html-button-response","173","1125125","0.0-173.0","E51ED157ECBD4EB7AE43B2D66B60D7B8","019cefa1-d6ca-7c55-b8a2-34ac7b1cbcdd","019cef87-c56d-7b55-9135-c5814367ec25","","609","
                <div class=""stimulus-container"">
                    <img src=""images/causal_sequence/museum_causal/museum_causal_5.png"" class=""exp-image"">
                    <div class=""question-area"">
                        <p style=""font-size: 20px; font-weight: bold; margin: 0;"">Is there a person in this image?</p>
                    </div>
                </div>","0","main_experiment_trial","5","museum_causal","causal_sequence","","","",""
"","","","","","html-keyboard-response","174","1130134","0.0-174.0","E51ED157ECBD4EB7AE43B2D66B60D7B8","019cefa1-d6ca-7c55-b8a2-34ac7b1cbcdd","019cef87-c56d-7b55-9135-c5814367ec25","","null","
                <div class=""stimulus-container"">
                    <img src=""images/causal_sequence/museum_causal/museum_causal_6.png"" class=""exp-image"">
                    <div class=""question-area""></div> 
                </div>","null","","","","","","","",""
"","","","","","html-button-response","175","1130825","0.0-175.0","E51ED157ECBD4EB7AE43B2D66B60D7B8","019cefa1-d6ca-7c55-b8a2-34ac7b1cbcdd","019cef87-c56d-7b55-9135-c5814367ec25","","690","
                <div class=""stimulus-container"">
                    <img src=""images/causal_sequence/museum_causal/museum_causal_6.png"" class=""exp-image"">
                    <div class=""question-area"">
                        <p style=""font-size: 20px; font-weight: bold; margin: 0;"">Is there a person in this image?</p>
                    </div>
                </div>","0","main_experiment_trial","6","museum_causal","causal_sequence","","","",""
"","","","","","html-keyboard-response","176","1135826","0.0-176.0","E51ED157ECBD4EB7AE43B2D66B60D7B8","019cefa1-d6ca-7c55-b8a2-34ac7b1cbcdd","019cef87-c56d-7b55-9135-c5814367ec25","","null","
                <div class=""stimulus-container"">
                    <img src=""images/causal_sequence/museum_causal/museum_causal_7.png"" class=""exp-image"">
                    <div class=""question-area""></div> 
                </div>","null","","","","","","","",""
"","","","","","html-button-response","177","1136413","0.0-177.0","E51ED157ECBD4EB7AE43B2D66B60D7B8","019cefa1-d6ca-7c55-b8a2-34ac7b1cbcdd","019cef87-c56d-7b55-9135-c5814367ec25","","586","
                <div class=""stimulus-container"">
                    <img src=""images/causal_sequence/museum_causal/museum_causal_7.png"" class=""exp-image"">
                    <div class=""question-area"">
                        <p style=""font-size: 20px; font-weight: bold; margin: 0;"">Is there a person in this image?</p>
                    </div>
                </div>","1","main_experiment_trial","7","museum_causal","causal_sequence","","","",""
"","","","","","html-keyboard-response","178","1141414","0.0-178.0","E51ED157ECBD4EB7AE43B2D66B60D7B8","019cefa1-d6ca-7c55-b8a2-34ac7b1cbcdd","019cef87-c56d-7b55-9135-c5814367ec25","","null","
                <div class=""stimulus-container"">
                    <img src=""images/causal_sequence/museum_causal/museum_causal_8.png"" class=""exp-image"">
                    <div class=""question-area""></div> 
                </div>","null","","","","","","","",""
"","","","","","html-button-response","179","1141941","0.0-179.0","E51ED157ECBD4EB7AE43B2D66B60D7B8","019cefa1-d6ca-7c55-b8a2-34ac7b1cbcdd","019cef87-c56d-7b55-9135-c5814367ec25","","526","
                <div class=""stimulus-container"">
                    <img src=""images/causal_sequence/museum_causal/museum_causal_8.png"" class=""exp-image"">
                    <div class=""question-area"">
                        <p style=""font-size: 20px; font-weight: bold; margin: 0;"">Is there a person in this image?</p>
                    </div>
                </div>","0","main_experiment_trial","8","museum_causal","causal_sequence","","","",""
"","","","","","html-keyboard-response","180","1146948","0.0-180.0","E51ED157ECBD4EB7AE43B2D66B60D7B8","019cefa1-d6ca-7c55-b8a2-34ac7b1cbcdd","019cef87-c56d-7b55-9135-c5814367ec25","","null","
                <div class=""stimulus-container"">
                    <img src=""images/causal_sequence/museum_causal/museum_causal_9.png"" class=""exp-image"">
                    <div class=""question-area""></div> 
                </div>","null","","","","","","","",""
"","","","","","html-button-response","181","1147421","0.0-181.0","E51ED157ECBD4EB7AE43B2D66B60D7B8","019cefa1-d6ca-7c55-b8a2-34ac7b1cbcdd","019cef87-c56d-7b55-9135-c5814367ec25","","472","
                <div class=""stimulus-container"">
                    <img src=""images/causal_sequence/museum_causal/museum_causal_9.png"" class=""exp-image"">
                    <div class=""question-area"">
                        <p style=""font-size: 20px; font-weight: bold; margin: 0;"">Is there a person in this image?</p>
                    </div>
                </div>","1","main_experiment_trial","9","museum_causal","causal_sequence","","","",""
"","","","","","html-keyboard-response","182","1152422","0.0-182.0","E51ED157ECBD4EB7AE43B2D66B60D7B8","019cefa1-d6ca-7c55-b8a2-34ac7b1cbcdd","019cef87-c56d-7b55-9135-c5814367ec25","","null","
                <div class=""stimulus-container"">
                    <img src=""images/causal_sequence/museum_causal/museum_causal_ten.png"" class=""exp-image"">
                    <div class=""question-area""></div> 
                </div>","null","","","","","","","",""
"","","","","","html-button-response","183","1152825","0.0-183.0","E51ED157ECBD4EB7AE43B2D66B60D7B8","019cefa1-d6ca-7c55-b8a2-34ac7b1cbcdd","019cef87-c56d-7b55-9135-c5814367ec25","","403","
                <div class=""stimulus-container"">
                    <img src=""images/causal_sequence/museum_causal/museum_causal_ten.png"" class=""exp-image"">
                    <div class=""question-area"">
                        <p style=""font-size: 20px; font-weight: bold; margin: 0;"">Is there a person in this image?</p>
                    </div>
                </div>","0","main_experiment_trial","ten","museum_causal","causal_sequence","","","",""
