"success","timeout","failed_images","failed_audio","failed_video","trial_type","trial_index","time_elapsed","internal_node_id","subject_id","study_id","session_id","view_history","rt","stimulus","response","task","image_index","folder","sequence_type","presentation_order","valuable_image_index","reward_type","distance_from_x","target_X","chosen_image_index","is_x_plus_dist","correct_choice"
"true","false","[]","[]","[]","preload","0","7549","0.0-0.0","2E11A2BBFA314B49BAEB6C1281B50CA6","019cfc7f-388e-7251-bac2-daac12146919","019cfc7b-6c7b-7b1b-afe7-acad8efc6711","","","","","","","","","","","","","","","",""
"","","","","","instructions","1","22984","0.0-1.0","2E11A2BBFA314B49BAEB6C1281B50CA6","019cfc7f-388e-7251-bac2-daac12146919","019cfc7b-6c7b-7b1b-afe7-acad8efc6711","[{""page_index"":0,""viewing_time"":10877}]","10878","","","","","","","","","","","","","",""
"","","","","","instructions","2","26495","0.0-2.0","2E11A2BBFA314B49BAEB6C1281B50CA6","019cfc7f-388e-7251-bac2-daac12146919","019cfc7b-6c7b-7b1b-afe7-acad8efc6711","[{""page_index"":0,""viewing_time"":3509}]","3509","","","","","","","","","","","","","",""
"true","","","","","fullscreen","3","30206","0.0-3.0","2E11A2BBFA314B49BAEB6C1281B50CA6","019cfc7f-388e-7251-bac2-daac12146919","019cfc7b-6c7b-7b1b-afe7-acad8efc6711","","2708","","","","","","","","","","","","","",""
"","","","","","instructions","4","35415","0.0-4.0","2E11A2BBFA314B49BAEB6C1281B50CA6","019cfc7f-388e-7251-bac2-daac12146919","019cfc7b-6c7b-7b1b-afe7-acad8efc6711","[{""page_index"":0,""viewing_time"":5208}]","5209","","","","","","","","","","","","","",""
"","","","","","instructions","5","44930","0.0-5.0","2E11A2BBFA314B49BAEB6C1281B50CA6","019cfc7f-388e-7251-bac2-daac12146919","019cfc7b-6c7b-7b1b-afe7-acad8efc6711","[{""page_index"":0,""viewing_time"":9515}]","9515","","","","","","","","","","","","","",""
"","","","","","html-keyboard-response","6","48932","0.0-6.0","2E11A2BBFA314B49BAEB6C1281B50CA6","019cfc7f-388e-7251-bac2-daac12146919","019cfc7b-6c7b-7b1b-afe7-acad8efc6711","","null","
                <div class=""stimulus-container"">
                    <img src=""images/instructions/movie_1.png"" class=""exp-image"">
                    <div class=""question-area""></div> 
                </div>","null","","","","","","","","","","","",""
"","","","","","html-button-response","7","50469","0.0-7.0","2E11A2BBFA314B49BAEB6C1281B50CA6","019cfc7f-388e-7251-bac2-daac12146919","019cfc7b-6c7b-7b1b-afe7-acad8efc6711","","1534","
                <div class=""stimulus-container"">
                    <img src=""images/instructions/movie_1.png"" class=""exp-image"">
                    <div class=""question-area"">
                        <p style=""font-size: 20px; font-weight: bold; margin: 0;"">Was there a person in this image?</p>
                    </div>
                </div>","0","example_question","1","","","","","","","","","",""
"","","","","","html-keyboard-response","8","54474","0.0-8.0","2E11A2BBFA314B49BAEB6C1281B50CA6","019cfc7f-388e-7251-bac2-daac12146919","019cfc7b-6c7b-7b1b-afe7-acad8efc6711","","null","
                <div class=""stimulus-container"">
                    <img src=""images/instructions/movie_2.png"" class=""exp-image"">
                    <div class=""question-area""></div> 
                </div>","null","","","","","","","","","","","",""
"","","","","","html-button-response","9","55425","0.0-9.0","2E11A2BBFA314B49BAEB6C1281B50CA6","019cfc7f-388e-7251-bac2-daac12146919","019cfc7b-6c7b-7b1b-afe7-acad8efc6711","","950","
                <div class=""stimulus-container"">
                    <img src=""images/instructions/movie_2.png"" class=""exp-image"">
                    <div class=""question-area"">
                        <p style=""font-size: 20px; font-weight: bold; margin: 0;"">Was there a person in this image?</p>
                    </div>
                </div>","0","example_question","2","","","","","","","","","",""
"","","","","","html-keyboard-response","10","59427","0.0-10.0","2E11A2BBFA314B49BAEB6C1281B50CA6","019cfc7f-388e-7251-bac2-daac12146919","019cfc7b-6c7b-7b1b-afe7-acad8efc6711","","null","
                <div class=""stimulus-container"">
                    <img src=""images/instructions/movie_3.png"" class=""exp-image"">
                    <div class=""question-area""></div> 
                </div>","null","","","","","","","","","","","",""
"","","","","","html-button-response","11","60392","0.0-11.0","2E11A2BBFA314B49BAEB6C1281B50CA6","019cfc7f-388e-7251-bac2-daac12146919","019cfc7b-6c7b-7b1b-afe7-acad8efc6711","","964","
                <div class=""stimulus-container"">
                    <img src=""images/instructions/movie_3.png"" class=""exp-image"">
                    <div class=""question-area"">
                        <p style=""font-size: 20px; font-weight: bold; margin: 0;"">Was there a person in this image?</p>
                    </div>
                </div>","0","example_question","3","","","","","","","","","",""
"","","","","","html-keyboard-response","12","64394","0.0-12.0","2E11A2BBFA314B49BAEB6C1281B50CA6","019cfc7f-388e-7251-bac2-daac12146919","019cfc7b-6c7b-7b1b-afe7-acad8efc6711","","null","
                <div class=""stimulus-container"">
                    <img src=""images/instructions/movie_4.png"" class=""exp-image"">
                    <div class=""question-area""></div> 
                </div>","null","","","","","","","","","","","",""
"","","","","","html-button-response","13","64880","0.0-13.0","2E11A2BBFA314B49BAEB6C1281B50CA6","019cfc7f-388e-7251-bac2-daac12146919","019cfc7b-6c7b-7b1b-afe7-acad8efc6711","","484","
                <div class=""stimulus-container"">
                    <img src=""images/instructions/movie_4.png"" class=""exp-image"">
                    <div class=""question-area"">
                        <p style=""font-size: 20px; font-weight: bold; margin: 0;"">Was there a person in this image?</p>
                    </div>
                </div>","0","example_question","4","","","","","","","","","",""
"","","","","","instructions","14","66590","0.0-14.0","2E11A2BBFA314B49BAEB6C1281B50CA6","019cfc7f-388e-7251-bac2-daac12146919","019cfc7b-6c7b-7b1b-afe7-acad8efc6711","[{""page_index"":0,""viewing_time"":1709}]","1710","","","","","","","","","","","","","",""
"","","","","","instructions","15","77290","0.0-15.0","2E11A2BBFA314B49BAEB6C1281B50CA6","019cfc7f-388e-7251-bac2-daac12146919","019cfc7b-6c7b-7b1b-afe7-acad8efc6711","[{""page_index"":0,""viewing_time"":10699}]","10699","","","","","","","","","","","","","",""
"","","","","","html-keyboard-response","16","82291","0.0-16.0","2E11A2BBFA314B49BAEB6C1281B50CA6","019cfc7f-388e-7251-bac2-daac12146919","019cfc7b-6c7b-7b1b-afe7-acad8efc6711","","null","<div style=""background-color: white; width: 100vw; height: 100vh;""></div>","null","","","","","","","","","","","",""
"","","","","","html-keyboard-response","17","87292","0.0-17.0","2E11A2BBFA314B49BAEB6C1281B50CA6","019cfc7f-388e-7251-bac2-daac12146919","019cfc7b-6c7b-7b1b-afe7-acad8efc6711","","null","
                <div class=""stimulus-container"">
                    <img src=""images/causal_sequence/saving_a_cat_causal/saving_a_cat_causal_1.png"" class=""exp-image"">
                    <div class=""question-area""></div> 
                </div>","null","","","","","","","","","","","",""
"","","","","","html-button-response","18","88672","0.0-18.0","2E11A2BBFA314B49BAEB6C1281B50CA6","019cfc7f-388e-7251-bac2-daac12146919","019cfc7b-6c7b-7b1b-afe7-acad8efc6711","","1378","
                <div class=""stimulus-container"">
                    <img src=""images/causal_sequence/saving_a_cat_causal/saving_a_cat_causal_1.png"" class=""exp-image"">
                    <div class=""question-area"">
                        <p style=""font-size: 20px; font-weight: bold; margin: 0;"">Is there a person in this image?</p>
                    </div>
                </div>","0","main_experiment_trial","1","saving_a_cat_causal","causal_sequence","chronological","","","","","","",""
"","","","","","html-keyboard-response","19","93673","0.0-19.0","2E11A2BBFA314B49BAEB6C1281B50CA6","019cfc7f-388e-7251-bac2-daac12146919","019cfc7b-6c7b-7b1b-afe7-acad8efc6711","","null","
                <div class=""stimulus-container"">
                    <img src=""images/causal_sequence/saving_a_cat_causal/saving_a_cat_causal_2.png"" class=""exp-image"">
                    <div class=""question-area""></div> 
                </div>","null","","","","","","","","","","","",""
"","","","","","html-button-response","20","95545","0.0-20.0","2E11A2BBFA314B49BAEB6C1281B50CA6","019cfc7f-388e-7251-bac2-daac12146919","019cfc7b-6c7b-7b1b-afe7-acad8efc6711","","1870","
                <div class=""stimulus-container"">
                    <img src=""images/causal_sequence/saving_a_cat_causal/saving_a_cat_causal_2.png"" class=""exp-image"">
                    <div class=""question-area"">
                        <p style=""font-size: 20px; font-weight: bold; margin: 0;"">Is there a person in this image?</p>
                    </div>
                </div>","1","main_experiment_trial","2","saving_a_cat_causal","causal_sequence","chronological","","","","","","",""
"","","","","","html-keyboard-response","21","100546","0.0-21.0","2E11A2BBFA314B49BAEB6C1281B50CA6","019cfc7f-388e-7251-bac2-daac12146919","019cfc7b-6c7b-7b1b-afe7-acad8efc6711","","null","
                <div class=""stimulus-container"">
                    <img src=""images/causal_sequence/saving_a_cat_causal/saving_a_cat_causal_3.png"" class=""exp-image"">
                    <div class=""question-area""></div> 
                </div>","null","","","","","","","","","","","",""
"","","","","","html-button-response","22","101558","0.0-22.0","2E11A2BBFA314B49BAEB6C1281B50CA6","019cfc7f-388e-7251-bac2-daac12146919","019cfc7b-6c7b-7b1b-afe7-acad8efc6711","","1010","
                <div class=""stimulus-container"">
                    <img src=""images/causal_sequence/saving_a_cat_causal/saving_a_cat_causal_3.png"" class=""exp-image"">
                    <div class=""question-area"">
                        <p style=""font-size: 20px; font-weight: bold; margin: 0;"">Is there a person in this image?</p>
                    </div>
                </div>","1","main_experiment_trial","3","saving_a_cat_causal","causal_sequence","chronological","","","","","","",""
"","","","","","html-keyboard-response","23","106560","0.0-23.0","2E11A2BBFA314B49BAEB6C1281B50CA6","019cfc7f-388e-7251-bac2-daac12146919","019cfc7b-6c7b-7b1b-afe7-acad8efc6711","","null","
                <div class=""stimulus-container"">
                    <img src=""images/causal_sequence/saving_a_cat_causal/saving_a_cat_causal_4.png"" class=""exp-image"">
                    <div class=""question-area""></div> 
                </div>","null","","","","","","","","","","","",""
"","","","","","html-button-response","24","108021","0.0-24.0","2E11A2BBFA314B49BAEB6C1281B50CA6","019cfc7f-388e-7251-bac2-daac12146919","019cfc7b-6c7b-7b1b-afe7-acad8efc6711","","1459","
                <div class=""stimulus-container"">
                    <img src=""images/causal_sequence/saving_a_cat_causal/saving_a_cat_causal_4.png"" class=""exp-image"">
                    <div class=""question-area"">
                        <p style=""font-size: 20px; font-weight: bold; margin: 0;"">Is there a person in this image?</p>
                    </div>
                </div>","0","main_experiment_trial","4","saving_a_cat_causal","causal_sequence","chronological","","","","","","",""
"","","","","","html-keyboard-response","25","113022","0.0-25.0","2E11A2BBFA314B49BAEB6C1281B50CA6","019cfc7f-388e-7251-bac2-daac12146919","019cfc7b-6c7b-7b1b-afe7-acad8efc6711","","null","
                <div class=""stimulus-container"">
                    <img src=""images/causal_sequence/saving_a_cat_causal/saving_a_cat_causal_5.png"" class=""exp-image"">
                    <div class=""question-area""></div> 
                </div>","null","","","","","","","","","","","",""
"","","","","","html-button-response","26","116023","0.0-26.0","2E11A2BBFA314B49BAEB6C1281B50CA6","019cfc7f-388e-7251-bac2-daac12146919","019cfc7b-6c7b-7b1b-afe7-acad8efc6711","","null","
                <div class=""stimulus-container"">
                    <img src=""images/causal_sequence/saving_a_cat_causal/saving_a_cat_causal_5.png"" class=""exp-image"">
                    <div class=""question-area"">
                        <p style=""font-size: 20px; font-weight: bold; margin: 0;"">Is there a person in this image?</p>
                    </div>
                </div>","null","main_experiment_trial","5","saving_a_cat_causal","causal_sequence","chronological","","","","","","",""
"","","","","","html-keyboard-response","27","121024","0.0-27.0","2E11A2BBFA314B49BAEB6C1281B50CA6","019cfc7f-388e-7251-bac2-daac12146919","019cfc7b-6c7b-7b1b-afe7-acad8efc6711","","null","
                <div class=""stimulus-container"">
                    <img src=""images/causal_sequence/saving_a_cat_causal/saving_a_cat_causal_6.png"" class=""exp-image"">
                    <div class=""question-area""></div> 
                </div>","null","","","","","","","","","","","",""
"","","","","","html-button-response","28","121651","0.0-28.0","2E11A2BBFA314B49BAEB6C1281B50CA6","019cfc7f-388e-7251-bac2-daac12146919","019cfc7b-6c7b-7b1b-afe7-acad8efc6711","","625","
                <div class=""stimulus-container"">
                    <img src=""images/causal_sequence/saving_a_cat_causal/saving_a_cat_causal_6.png"" class=""exp-image"">
                    <div class=""question-area"">
                        <p style=""font-size: 20px; font-weight: bold; margin: 0;"">Is there a person in this image?</p>
                    </div>
                </div>","0","main_experiment_trial","6","saving_a_cat_causal","causal_sequence","chronological","","","","","","",""
"","","","","","html-keyboard-response","29","126652","0.0-29.0","2E11A2BBFA314B49BAEB6C1281B50CA6","019cfc7f-388e-7251-bac2-daac12146919","019cfc7b-6c7b-7b1b-afe7-acad8efc6711","","null","
                <div class=""stimulus-container"">
                    <img src=""images/causal_sequence/saving_a_cat_causal/saving_a_cat_causal_7.png"" class=""exp-image"">
                    <div class=""question-area""></div> 
                </div>","null","","","","","","","","","","","",""
"","","","","","html-button-response","30","129278","0.0-30.0","2E11A2BBFA314B49BAEB6C1281B50CA6","019cfc7f-388e-7251-bac2-daac12146919","019cfc7b-6c7b-7b1b-afe7-acad8efc6711","","2625","
                <div class=""stimulus-container"">
                    <img src=""images/causal_sequence/saving_a_cat_causal/saving_a_cat_causal_7.png"" class=""exp-image"">
                    <div class=""question-area"">
                        <p style=""font-size: 20px; font-weight: bold; margin: 0;"">Is there a person in this image?</p>
                    </div>
                </div>","0","main_experiment_trial","7","saving_a_cat_causal","causal_sequence","chronological","","","","","","",""
"","","","","","html-keyboard-response","31","134279","0.0-31.0","2E11A2BBFA314B49BAEB6C1281B50CA6","019cfc7f-388e-7251-bac2-daac12146919","019cfc7b-6c7b-7b1b-afe7-acad8efc6711","","null","
                <div class=""stimulus-container"">
                    <img src=""images/causal_sequence/saving_a_cat_causal/saving_a_cat_causal_8.png"" class=""exp-image"">
                    <div class=""question-area""></div> 
                </div>","null","","","","","","","","","","","",""
"","","","","","html-button-response","32","134881","0.0-32.0","2E11A2BBFA314B49BAEB6C1281B50CA6","019cfc7f-388e-7251-bac2-daac12146919","019cfc7b-6c7b-7b1b-afe7-acad8efc6711","","601","
                <div class=""stimulus-container"">
                    <img src=""images/causal_sequence/saving_a_cat_causal/saving_a_cat_causal_8.png"" class=""exp-image"">
                    <div class=""question-area"">
                        <p style=""font-size: 20px; font-weight: bold; margin: 0;"">Is there a person in this image?</p>
                    </div>
                </div>","0","main_experiment_trial","8","saving_a_cat_causal","causal_sequence","chronological","","","","","","",""
"","","","","","html-keyboard-response","33","139883","0.0-33.0","2E11A2BBFA314B49BAEB6C1281B50CA6","019cfc7f-388e-7251-bac2-daac12146919","019cfc7b-6c7b-7b1b-afe7-acad8efc6711","","null","
                <div class=""stimulus-container"">
                    <img src=""images/causal_sequence/saving_a_cat_causal/saving_a_cat_causal_9.png"" class=""exp-image"">
                    <div class=""question-area""></div> 
                </div>","null","","","","","","","","","","","",""
"","","","","","html-button-response","34","141139","0.0-34.0","2E11A2BBFA314B49BAEB6C1281B50CA6","019cfc7f-388e-7251-bac2-daac12146919","019cfc7b-6c7b-7b1b-afe7-acad8efc6711","","1255","
                <div class=""stimulus-container"">
                    <img src=""images/causal_sequence/saving_a_cat_causal/saving_a_cat_causal_9.png"" class=""exp-image"">
                    <div class=""question-area"">
                        <p style=""font-size: 20px; font-weight: bold; margin: 0;"">Is there a person in this image?</p>
                    </div>
                </div>","0","main_experiment_trial","9","saving_a_cat_causal","causal_sequence","chronological","","","","","","",""
"","","","","","html-keyboard-response","35","146140","0.0-35.0","2E11A2BBFA314B49BAEB6C1281B50CA6","019cfc7f-388e-7251-bac2-daac12146919","019cfc7b-6c7b-7b1b-afe7-acad8efc6711","","null","
                <div class=""stimulus-container"">
                    <img src=""images/causal_sequence/saving_a_cat_causal/saving_a_cat_causal_ten.png"" class=""exp-image"">
                    <div class=""question-area""></div> 
                </div>","null","","","","","","","","","","","",""
"","","","","","html-button-response","36","149142","0.0-36.0","2E11A2BBFA314B49BAEB6C1281B50CA6","019cfc7f-388e-7251-bac2-daac12146919","019cfc7b-6c7b-7b1b-afe7-acad8efc6711","","null","
                <div class=""stimulus-container"">
                    <img src=""images/causal_sequence/saving_a_cat_causal/saving_a_cat_causal_ten.png"" class=""exp-image"">
                    <div class=""question-area"">
                        <p style=""font-size: 20px; font-weight: bold; margin: 0;"">Is there a person in this image?</p>
                    </div>
                </div>","null","main_experiment_trial","ten","saving_a_cat_causal","causal_sequence","chronological","","","","","","",""
"","","","","","html-keyboard-response","37","154143","0.0-37.0","2E11A2BBFA314B49BAEB6C1281B50CA6","019cfc7f-388e-7251-bac2-daac12146919","019cfc7b-6c7b-7b1b-afe7-acad8efc6711","","null","<div style=""background-color: white; width: 100vw; height: 100vh;""></div>","null","","","","","","","","","","","",""
"","","","","","html-keyboard-response","38","159144","0.0-38.0","2E11A2BBFA314B49BAEB6C1281B50CA6","019cfc7f-388e-7251-bac2-daac12146919","019cfc7b-6c7b-7b1b-afe7-acad8efc6711","","null","
                <div class=""stimulus-container"">
                    <img src=""images/semantic_sequence/housework_semantic/housework_semantic_1.png"" class=""exp-image"">
                    <div class=""question-area""></div> 
                </div>","null","","","","","","","","","","","",""
"","","","","","html-button-response","39","160119","0.0-39.0","2E11A2BBFA314B49BAEB6C1281B50CA6","019cfc7f-388e-7251-bac2-daac12146919","019cfc7b-6c7b-7b1b-afe7-acad8efc6711","","974","
                <div class=""stimulus-container"">
                    <img src=""images/semantic_sequence/housework_semantic/housework_semantic_1.png"" class=""exp-image"">
                    <div class=""question-area"">
                        <p style=""font-size: 20px; font-weight: bold; margin: 0;"">Is there a person in this image?</p>
                    </div>
                </div>","0","main_experiment_trial","1","housework_semantic","semantic_sequence","chronological","","","","","","",""
"","","","","","html-keyboard-response","40","165120","0.0-40.0","2E11A2BBFA314B49BAEB6C1281B50CA6","019cfc7f-388e-7251-bac2-daac12146919","019cfc7b-6c7b-7b1b-afe7-acad8efc6711","","null","
                <div class=""stimulus-container"">
                    <img src=""images/semantic_sequence/housework_semantic/housework_semantic_2.png"" class=""exp-image"">
                    <div class=""question-area""></div> 
                </div>","null","","","","","","","","","","","",""
"","","","","","html-button-response","41","166053","0.0-41.0","2E11A2BBFA314B49BAEB6C1281B50CA6","019cfc7f-388e-7251-bac2-daac12146919","019cfc7b-6c7b-7b1b-afe7-acad8efc6711","","932","
                <div class=""stimulus-container"">
                    <img src=""images/semantic_sequence/housework_semantic/housework_semantic_2.png"" class=""exp-image"">
                    <div class=""question-area"">
                        <p style=""font-size: 20px; font-weight: bold; margin: 0;"">Is there a person in this image?</p>
                    </div>
                </div>","0","main_experiment_trial","2","housework_semantic","semantic_sequence","chronological","","","","","","",""
"","","","","","html-keyboard-response","42","171054","0.0-42.0","2E11A2BBFA314B49BAEB6C1281B50CA6","019cfc7f-388e-7251-bac2-daac12146919","019cfc7b-6c7b-7b1b-afe7-acad8efc6711","","null","
                <div class=""stimulus-container"">
                    <img src=""images/semantic_sequence/housework_semantic/housework_semantic_3.png"" class=""exp-image"">
                    <div class=""question-area""></div> 
                </div>","null","","","","","","","","","","","",""
"","","","","","html-button-response","43","172085","0.0-43.0","2E11A2BBFA314B49BAEB6C1281B50CA6","019cfc7f-388e-7251-bac2-daac12146919","019cfc7b-6c7b-7b1b-afe7-acad8efc6711","","1029","
                <div class=""stimulus-container"">
                    <img src=""images/semantic_sequence/housework_semantic/housework_semantic_3.png"" class=""exp-image"">
                    <div class=""question-area"">
                        <p style=""font-size: 20px; font-weight: bold; margin: 0;"">Is there a person in this image?</p>
                    </div>
                </div>","0","main_experiment_trial","3","housework_semantic","semantic_sequence","chronological","","","","","","",""
"","","","","","html-keyboard-response","44","177086","0.0-44.0","2E11A2BBFA314B49BAEB6C1281B50CA6","019cfc7f-388e-7251-bac2-daac12146919","019cfc7b-6c7b-7b1b-afe7-acad8efc6711","","null","
                <div class=""stimulus-container"">
                    <img src=""images/semantic_sequence/housework_semantic/housework_semantic_4.png"" class=""exp-image"">
                    <div class=""question-area""></div> 
                </div>","null","","","","","","","","","","","",""
"","","","","","html-button-response","45","177736","0.0-45.0","2E11A2BBFA314B49BAEB6C1281B50CA6","019cfc7f-388e-7251-bac2-daac12146919","019cfc7b-6c7b-7b1b-afe7-acad8efc6711","","649","
                <div class=""stimulus-container"">
                    <img src=""images/semantic_sequence/housework_semantic/housework_semantic_4.png"" class=""exp-image"">
                    <div class=""question-area"">
                        <p style=""font-size: 20px; font-weight: bold; margin: 0;"">Is there a person in this image?</p>
                    </div>
                </div>","0","main_experiment_trial","4","housework_semantic","semantic_sequence","chronological","","","","","","",""
"","","","","","html-keyboard-response","46","182738","0.0-46.0","2E11A2BBFA314B49BAEB6C1281B50CA6","019cfc7f-388e-7251-bac2-daac12146919","019cfc7b-6c7b-7b1b-afe7-acad8efc6711","","null","
                <div class=""stimulus-container"">
                    <img src=""images/semantic_sequence/housework_semantic/housework_semantic_5.png"" class=""exp-image"">
                    <div class=""question-area""></div> 
                </div>","null","","","","","","","","","","","",""
"","","","","","html-button-response","47","183318","0.0-47.0","2E11A2BBFA314B49BAEB6C1281B50CA6","019cfc7f-388e-7251-bac2-daac12146919","019cfc7b-6c7b-7b1b-afe7-acad8efc6711","","579","
                <div class=""stimulus-container"">
                    <img src=""images/semantic_sequence/housework_semantic/housework_semantic_5.png"" class=""exp-image"">
                    <div class=""question-area"">
                        <p style=""font-size: 20px; font-weight: bold; margin: 0;"">Is there a person in this image?</p>
                    </div>
                </div>","0","main_experiment_trial","5","housework_semantic","semantic_sequence","chronological","","","","","","",""
"","","","","","html-keyboard-response","48","188319","0.0-48.0","2E11A2BBFA314B49BAEB6C1281B50CA6","019cfc7f-388e-7251-bac2-daac12146919","019cfc7b-6c7b-7b1b-afe7-acad8efc6711","","null","
                <div class=""stimulus-container"">
                    <img src=""images/semantic_sequence/housework_semantic/housework_semantic_6.png"" class=""exp-image"">
                    <div class=""question-area""></div> 
                </div>","null","","","","","","","","","","","",""
"","","","","","html-button-response","49","188581","0.0-49.0","2E11A2BBFA314B49BAEB6C1281B50CA6","019cfc7f-388e-7251-bac2-daac12146919","019cfc7b-6c7b-7b1b-afe7-acad8efc6711","","260","
                <div class=""stimulus-container"">
                    <img src=""images/semantic_sequence/housework_semantic/housework_semantic_6.png"" class=""exp-image"">
                    <div class=""question-area"">
                        <p style=""font-size: 20px; font-weight: bold; margin: 0;"">Is there a person in this image?</p>
                    </div>
                </div>","0","main_experiment_trial","6","housework_semantic","semantic_sequence","chronological","","","","","","",""
"","","","","","html-keyboard-response","50","193582","0.0-50.0","2E11A2BBFA314B49BAEB6C1281B50CA6","019cfc7f-388e-7251-bac2-daac12146919","019cfc7b-6c7b-7b1b-afe7-acad8efc6711","","null","
                <div class=""stimulus-container"">
                    <img src=""images/semantic_sequence/housework_semantic/housework_semantic_7.png"" class=""exp-image"">
                    <div class=""question-area""></div> 
                </div>","null","","","","","","","","","","","",""
"","","","","","html-button-response","51","194055","0.0-51.0","2E11A2BBFA314B49BAEB6C1281B50CA6","019cfc7f-388e-7251-bac2-daac12146919","019cfc7b-6c7b-7b1b-afe7-acad8efc6711","","472","
                <div class=""stimulus-container"">
                    <img src=""images/semantic_sequence/housework_semantic/housework_semantic_7.png"" class=""exp-image"">
                    <div class=""question-area"">
                        <p style=""font-size: 20px; font-weight: bold; margin: 0;"">Is there a person in this image?</p>
                    </div>
                </div>","0","main_experiment_trial","7","housework_semantic","semantic_sequence","chronological","","","","","","",""
"","","","","","html-keyboard-response","52","199056","0.0-52.0","2E11A2BBFA314B49BAEB6C1281B50CA6","019cfc7f-388e-7251-bac2-daac12146919","019cfc7b-6c7b-7b1b-afe7-acad8efc6711","","null","
                <div class=""stimulus-container"">
                    <img src=""images/semantic_sequence/housework_semantic/housework_semantic_8.png"" class=""exp-image"">
                    <div class=""question-area""></div> 
                </div>","null","","","","","","","","","","","",""
"","","","","","html-button-response","53","199884","0.0-53.0","2E11A2BBFA314B49BAEB6C1281B50CA6","019cfc7f-388e-7251-bac2-daac12146919","019cfc7b-6c7b-7b1b-afe7-acad8efc6711","","826","
                <div class=""stimulus-container"">
                    <img src=""images/semantic_sequence/housework_semantic/housework_semantic_8.png"" class=""exp-image"">
                    <div class=""question-area"">
                        <p style=""font-size: 20px; font-weight: bold; margin: 0;"">Is there a person in this image?</p>
                    </div>
                </div>","0","main_experiment_trial","8","housework_semantic","semantic_sequence","chronological","","","","","","",""
"","","","","","html-keyboard-response","54","204885","0.0-54.0","2E11A2BBFA314B49BAEB6C1281B50CA6","019cfc7f-388e-7251-bac2-daac12146919","019cfc7b-6c7b-7b1b-afe7-acad8efc6711","","null","
                <div class=""stimulus-container"">
                    <img src=""images/semantic_sequence/housework_semantic/housework_semantic_9.png"" class=""exp-image"">
                    <div class=""question-area""></div> 
                </div>","null","","","","","","","","","","","",""
"","","","","","html-button-response","55","205418","0.0-55.0","2E11A2BBFA314B49BAEB6C1281B50CA6","019cfc7f-388e-7251-bac2-daac12146919","019cfc7b-6c7b-7b1b-afe7-acad8efc6711","","532","
                <div class=""stimulus-container"">
                    <img src=""images/semantic_sequence/housework_semantic/housework_semantic_9.png"" class=""exp-image"">
                    <div class=""question-area"">
                        <p style=""font-size: 20px; font-weight: bold; margin: 0;"">Is there a person in this image?</p>
                    </div>
                </div>","0","main_experiment_trial","9","housework_semantic","semantic_sequence","chronological","","","","","","",""
"","","","","","html-keyboard-response","56","210420","0.0-56.0","2E11A2BBFA314B49BAEB6C1281B50CA6","019cfc7f-388e-7251-bac2-daac12146919","019cfc7b-6c7b-7b1b-afe7-acad8efc6711","","null","
                <div class=""stimulus-container"">
                    <img src=""images/semantic_sequence/housework_semantic/housework_semantic_ten.png"" class=""exp-image"">
                    <div class=""question-area""></div> 
                </div>","null","","","","","","","","","","","",""
"","","","","","html-button-response","57","210952","0.0-57.0","2E11A2BBFA314B49BAEB6C1281B50CA6","019cfc7f-388e-7251-bac2-daac12146919","019cfc7b-6c7b-7b1b-afe7-acad8efc6711","","531","
                <div class=""stimulus-container"">
                    <img src=""images/semantic_sequence/housework_semantic/housework_semantic_ten.png"" class=""exp-image"">
                    <div class=""question-area"">
                        <p style=""font-size: 20px; font-weight: bold; margin: 0;"">Is there a person in this image?</p>
                    </div>
                </div>","0","main_experiment_trial","ten","housework_semantic","semantic_sequence","chronological","","","","","","",""
"","","","","","html-keyboard-response","58","215954","0.0-58.0","2E11A2BBFA314B49BAEB6C1281B50CA6","019cfc7f-388e-7251-bac2-daac12146919","019cfc7b-6c7b-7b1b-afe7-acad8efc6711","","null","<div style=""background-color: white; width: 100vw; height: 100vh;""></div>","null","","","","","","","","","","","",""
"","","","","","html-keyboard-response","59","220955","0.0-59.0","2E11A2BBFA314B49BAEB6C1281B50CA6","019cfc7f-388e-7251-bac2-daac12146919","019cfc7b-6c7b-7b1b-afe7-acad8efc6711","","null","
                <div class=""stimulus-container"">
                    <img src=""images/causal_sequence/dog_causal/dog_causal_1.png"" class=""exp-image"">
                    <div class=""question-area""></div> 
                </div>","null","","","","","","","","","","","",""
"","","","","","html-button-response","60","221484","0.0-60.0","2E11A2BBFA314B49BAEB6C1281B50CA6","019cfc7f-388e-7251-bac2-daac12146919","019cfc7b-6c7b-7b1b-afe7-acad8efc6711","","528","
                <div class=""stimulus-container"">
                    <img src=""images/causal_sequence/dog_causal/dog_causal_1.png"" class=""exp-image"">
                    <div class=""question-area"">
                        <p style=""font-size: 20px; font-weight: bold; margin: 0;"">Is there a person in this image?</p>
                    </div>
                </div>","0","main_experiment_trial","1","dog_causal","causal_sequence","chronological","","","","","","",""
"","","","","","html-keyboard-response","61","226485","0.0-61.0","2E11A2BBFA314B49BAEB6C1281B50CA6","019cfc7f-388e-7251-bac2-daac12146919","019cfc7b-6c7b-7b1b-afe7-acad8efc6711","","null","
                <div class=""stimulus-container"">
                    <img src=""images/causal_sequence/dog_causal/dog_causal_2.png"" class=""exp-image"">
                    <div class=""question-area""></div> 
                </div>","null","","","","","","","","","","","",""
"","","","","","html-button-response","62","227322","0.0-62.0","2E11A2BBFA314B49BAEB6C1281B50CA6","019cfc7f-388e-7251-bac2-daac12146919","019cfc7b-6c7b-7b1b-afe7-acad8efc6711","","836","
                <div class=""stimulus-container"">
                    <img src=""images/causal_sequence/dog_causal/dog_causal_2.png"" class=""exp-image"">
                    <div class=""question-area"">
                        <p style=""font-size: 20px; font-weight: bold; margin: 0;"">Is there a person in this image?</p>
                    </div>
                </div>","0","main_experiment_trial","2","dog_causal","causal_sequence","chronological","","","","","","",""
"","","","","","html-keyboard-response","63","232324","0.0-63.0","2E11A2BBFA314B49BAEB6C1281B50CA6","019cfc7f-388e-7251-bac2-daac12146919","019cfc7b-6c7b-7b1b-afe7-acad8efc6711","","null","
                <div class=""stimulus-container"">
                    <img src=""images/causal_sequence/dog_causal/dog_causal_3.png"" class=""exp-image"">
                    <div class=""question-area""></div> 
                </div>","null","","","","","","","","","","","",""
"","","","","","html-button-response","64","233359","0.0-64.0","2E11A2BBFA314B49BAEB6C1281B50CA6","019cfc7f-388e-7251-bac2-daac12146919","019cfc7b-6c7b-7b1b-afe7-acad8efc6711","","1033","
                <div class=""stimulus-container"">
                    <img src=""images/causal_sequence/dog_causal/dog_causal_3.png"" class=""exp-image"">
                    <div class=""question-area"">
                        <p style=""font-size: 20px; font-weight: bold; margin: 0;"">Is there a person in this image?</p>
                    </div>
                </div>","0","main_experiment_trial","3","dog_causal","causal_sequence","chronological","","","","","","",""
"","","","","","html-keyboard-response","65","238361","0.0-65.0","2E11A2BBFA314B49BAEB6C1281B50CA6","019cfc7f-388e-7251-bac2-daac12146919","019cfc7b-6c7b-7b1b-afe7-acad8efc6711","","null","
                <div class=""stimulus-container"">
                    <img src=""images/causal_sequence/dog_causal/dog_causal_4.png"" class=""exp-image"">
                    <div class=""question-area""></div> 
                </div>","null","","","","","","","","","","","",""
"","","","","","html-button-response","66","239529","0.0-66.0","2E11A2BBFA314B49BAEB6C1281B50CA6","019cfc7f-388e-7251-bac2-daac12146919","019cfc7b-6c7b-7b1b-afe7-acad8efc6711","","1167","
                <div class=""stimulus-container"">
                    <img src=""images/causal_sequence/dog_causal/dog_causal_4.png"" class=""exp-image"">
                    <div class=""question-area"">
                        <p style=""font-size: 20px; font-weight: bold; margin: 0;"">Is there a person in this image?</p>
                    </div>
                </div>","0","main_experiment_trial","4","dog_causal","causal_sequence","chronological","","","","","","",""
"","","","","","html-keyboard-response","67","244530","0.0-67.0","2E11A2BBFA314B49BAEB6C1281B50CA6","019cfc7f-388e-7251-bac2-daac12146919","019cfc7b-6c7b-7b1b-afe7-acad8efc6711","","null","
                <div class=""stimulus-container"">
                    <img src=""images/causal_sequence/dog_causal/dog_causal_5.png"" class=""exp-image"">
                    <div class=""question-area""></div> 
                </div>","null","","","","","","","","","","","",""
"","","","","","html-button-response","68","245077","0.0-68.0","2E11A2BBFA314B49BAEB6C1281B50CA6","019cfc7f-388e-7251-bac2-daac12146919","019cfc7b-6c7b-7b1b-afe7-acad8efc6711","","545","
                <div class=""stimulus-container"">
                    <img src=""images/causal_sequence/dog_causal/dog_causal_5.png"" class=""exp-image"">
                    <div class=""question-area"">
                        <p style=""font-size: 20px; font-weight: bold; margin: 0;"">Is there a person in this image?</p>
                    </div>
                </div>","0","main_experiment_trial","5","dog_causal","causal_sequence","chronological","","","","","","",""
"","","","","","html-keyboard-response","69","250078","0.0-69.0","2E11A2BBFA314B49BAEB6C1281B50CA6","019cfc7f-388e-7251-bac2-daac12146919","019cfc7b-6c7b-7b1b-afe7-acad8efc6711","","null","
                <div class=""stimulus-container"">
                    <img src=""images/causal_sequence/dog_causal/dog_causal_6.png"" class=""exp-image"">
                    <div class=""question-area""></div> 
                </div>","null","","","","","","","","","","","",""
"","","","","","html-button-response","70","251510","0.0-70.0","2E11A2BBFA314B49BAEB6C1281B50CA6","019cfc7f-388e-7251-bac2-daac12146919","019cfc7b-6c7b-7b1b-afe7-acad8efc6711","","1431","
                <div class=""stimulus-container"">
                    <img src=""images/causal_sequence/dog_causal/dog_causal_6.png"" class=""exp-image"">
                    <div class=""question-area"">
                        <p style=""font-size: 20px; font-weight: bold; margin: 0;"">Is there a person in this image?</p>
                    </div>
                </div>","0","main_experiment_trial","6","dog_causal","causal_sequence","chronological","","","","","","",""
"","","","","","html-keyboard-response","71","256512","0.0-71.0","2E11A2BBFA314B49BAEB6C1281B50CA6","019cfc7f-388e-7251-bac2-daac12146919","019cfc7b-6c7b-7b1b-afe7-acad8efc6711","","null","
                <div class=""stimulus-container"">
                    <img src=""images/causal_sequence/dog_causal/dog_causal_7.png"" class=""exp-image"">
                    <div class=""question-area""></div> 
                </div>","null","","","","","","","","","","","",""
"","","","","","html-button-response","72","257945","0.0-72.0","2E11A2BBFA314B49BAEB6C1281B50CA6","019cfc7f-388e-7251-bac2-daac12146919","019cfc7b-6c7b-7b1b-afe7-acad8efc6711","","1432","
                <div class=""stimulus-container"">
                    <img src=""images/causal_sequence/dog_causal/dog_causal_7.png"" class=""exp-image"">
                    <div class=""question-area"">
                        <p style=""font-size: 20px; font-weight: bold; margin: 0;"">Is there a person in this image?</p>
                    </div>
                </div>","0","main_experiment_trial","7","dog_causal","causal_sequence","chronological","","","","","","",""
"","","","","","html-keyboard-response","73","262947","0.0-73.0","2E11A2BBFA314B49BAEB6C1281B50CA6","019cfc7f-388e-7251-bac2-daac12146919","019cfc7b-6c7b-7b1b-afe7-acad8efc6711","","null","
                <div class=""stimulus-container"">
                    <img src=""images/causal_sequence/dog_causal/dog_causal_8.png"" class=""exp-image"">
                    <div class=""question-area""></div> 
                </div>","null","","","","","","","","","","","",""
"","","","","","html-button-response","74","263556","0.0-74.0","2E11A2BBFA314B49BAEB6C1281B50CA6","019cfc7f-388e-7251-bac2-daac12146919","019cfc7b-6c7b-7b1b-afe7-acad8efc6711","","608","
                <div class=""stimulus-container"">
                    <img src=""images/causal_sequence/dog_causal/dog_causal_8.png"" class=""exp-image"">
                    <div class=""question-area"">
                        <p style=""font-size: 20px; font-weight: bold; margin: 0;"">Is there a person in this image?</p>
                    </div>
                </div>","0","main_experiment_trial","8","dog_causal","causal_sequence","chronological","","","","","","",""
"","","","","","html-keyboard-response","75","268557","0.0-75.0","2E11A2BBFA314B49BAEB6C1281B50CA6","019cfc7f-388e-7251-bac2-daac12146919","019cfc7b-6c7b-7b1b-afe7-acad8efc6711","","null","
                <div class=""stimulus-container"">
                    <img src=""images/causal_sequence/dog_causal/dog_causal_9.png"" class=""exp-image"">
                    <div class=""question-area""></div> 
                </div>","null","","","","","","","","","","","",""
"","","","","","html-button-response","76","269149","0.0-76.0","2E11A2BBFA314B49BAEB6C1281B50CA6","019cfc7f-388e-7251-bac2-daac12146919","019cfc7b-6c7b-7b1b-afe7-acad8efc6711","","591","
                <div class=""stimulus-container"">
                    <img src=""images/causal_sequence/dog_causal/dog_causal_9.png"" class=""exp-image"">
                    <div class=""question-area"">
                        <p style=""font-size: 20px; font-weight: bold; margin: 0;"">Is there a person in this image?</p>
                    </div>
                </div>","0","main_experiment_trial","9","dog_causal","causal_sequence","chronological","","","","","","",""
"","","","","","html-keyboard-response","77","274150","0.0-77.0","2E11A2BBFA314B49BAEB6C1281B50CA6","019cfc7f-388e-7251-bac2-daac12146919","019cfc7b-6c7b-7b1b-afe7-acad8efc6711","","null","
                <div class=""stimulus-container"">
                    <img src=""images/causal_sequence/dog_causal/dog_causal_ten.png"" class=""exp-image"">
                    <div class=""question-area""></div> 
                </div>","null","","","","","","","","","","","",""
"","","","","","html-button-response","78","275339","0.0-78.0","2E11A2BBFA314B49BAEB6C1281B50CA6","019cfc7f-388e-7251-bac2-daac12146919","019cfc7b-6c7b-7b1b-afe7-acad8efc6711","","1187","
                <div class=""stimulus-container"">
                    <img src=""images/causal_sequence/dog_causal/dog_causal_ten.png"" class=""exp-image"">
                    <div class=""question-area"">
                        <p style=""font-size: 20px; font-weight: bold; margin: 0;"">Is there a person in this image?</p>
                    </div>
                </div>","0","main_experiment_trial","ten","dog_causal","causal_sequence","chronological","","","","","","",""
"","","","","","html-keyboard-response","79","280340","0.0-79.0","2E11A2BBFA314B49BAEB6C1281B50CA6","019cfc7f-388e-7251-bac2-daac12146919","019cfc7b-6c7b-7b1b-afe7-acad8efc6711","","null","<div style=""background-color: white; width: 100vw; height: 100vh;""></div>","null","","","","","","","","","","","",""
"","","","","","html-keyboard-response","80","285341","0.0-80.0","2E11A2BBFA314B49BAEB6C1281B50CA6","019cfc7f-388e-7251-bac2-daac12146919","019cfc7b-6c7b-7b1b-afe7-acad8efc6711","","null","
                <div class=""stimulus-container"">
                    <img src=""images/schematic_sequence/restaurant_scheme/restaurant_scheme_1.png"" class=""exp-image"">
                    <div class=""question-area""></div> 
                </div>","null","","","","","","","","","","","",""
"","","","","","html-button-response","81","285850","0.0-81.0","2E11A2BBFA314B49BAEB6C1281B50CA6","019cfc7f-388e-7251-bac2-daac12146919","019cfc7b-6c7b-7b1b-afe7-acad8efc6711","","508","
                <div class=""stimulus-container"">
                    <img src=""images/schematic_sequence/restaurant_scheme/restaurant_scheme_1.png"" class=""exp-image"">
                    <div class=""question-area"">
                        <p style=""font-size: 20px; font-weight: bold; margin: 0;"">Is there a person in this image?</p>
                    </div>
                </div>","0","main_experiment_trial","1","restaurant_scheme","schematic_sequence","chronological","","","","","","",""
"","","","","","html-keyboard-response","82","290851","0.0-82.0","2E11A2BBFA314B49BAEB6C1281B50CA6","019cfc7f-388e-7251-bac2-daac12146919","019cfc7b-6c7b-7b1b-afe7-acad8efc6711","","null","
                <div class=""stimulus-container"">
                    <img src=""images/schematic_sequence/restaurant_scheme/restaurant_scheme_2.png"" class=""exp-image"">
                    <div class=""question-area""></div> 
                </div>","null","","","","","","","","","","","",""
"","","","","","html-button-response","83","291842","0.0-83.0","2E11A2BBFA314B49BAEB6C1281B50CA6","019cfc7f-388e-7251-bac2-daac12146919","019cfc7b-6c7b-7b1b-afe7-acad8efc6711","","991","
                <div class=""stimulus-container"">
                    <img src=""images/schematic_sequence/restaurant_scheme/restaurant_scheme_2.png"" class=""exp-image"">
                    <div class=""question-area"">
                        <p style=""font-size: 20px; font-weight: bold; margin: 0;"">Is there a person in this image?</p>
                    </div>
                </div>","1","main_experiment_trial","2","restaurant_scheme","schematic_sequence","chronological","","","","","","",""
"","","","","","html-keyboard-response","84","296844","0.0-84.0","2E11A2BBFA314B49BAEB6C1281B50CA6","019cfc7f-388e-7251-bac2-daac12146919","019cfc7b-6c7b-7b1b-afe7-acad8efc6711","","null","
                <div class=""stimulus-container"">
                    <img src=""images/schematic_sequence/restaurant_scheme/restaurant_scheme_3.png"" class=""exp-image"">
                    <div class=""question-area""></div> 
                </div>","null","","","","","","","","","","","",""
"","","","","","html-button-response","85","298081","0.0-85.0","2E11A2BBFA314B49BAEB6C1281B50CA6","019cfc7f-388e-7251-bac2-daac12146919","019cfc7b-6c7b-7b1b-afe7-acad8efc6711","","1236","
                <div class=""stimulus-container"">
                    <img src=""images/schematic_sequence/restaurant_scheme/restaurant_scheme_3.png"" class=""exp-image"">
                    <div class=""question-area"">
                        <p style=""font-size: 20px; font-weight: bold; margin: 0;"">Is there a person in this image?</p>
                    </div>
                </div>","1","main_experiment_trial","3","restaurant_scheme","schematic_sequence","chronological","","","","","","",""
"","","","","","html-keyboard-response","86","303083","0.0-86.0","2E11A2BBFA314B49BAEB6C1281B50CA6","019cfc7f-388e-7251-bac2-daac12146919","019cfc7b-6c7b-7b1b-afe7-acad8efc6711","","null","
                <div class=""stimulus-container"">
                    <img src=""images/schematic_sequence/restaurant_scheme/restaurant_scheme_4.png"" class=""exp-image"">
                    <div class=""question-area""></div> 
                </div>","null","","","","","","","","","","","",""
"","","","","","html-button-response","87","303713","0.0-87.0","2E11A2BBFA314B49BAEB6C1281B50CA6","019cfc7f-388e-7251-bac2-daac12146919","019cfc7b-6c7b-7b1b-afe7-acad8efc6711","","629","
                <div class=""stimulus-container"">
                    <img src=""images/schematic_sequence/restaurant_scheme/restaurant_scheme_4.png"" class=""exp-image"">
                    <div class=""question-area"">
                        <p style=""font-size: 20px; font-weight: bold; margin: 0;"">Is there a person in this image?</p>
                    </div>
                </div>","0","main_experiment_trial","4","restaurant_scheme","schematic_sequence","chronological","","","","","","",""
"","","","","","html-keyboard-response","88","308714","0.0-88.0","2E11A2BBFA314B49BAEB6C1281B50CA6","019cfc7f-388e-7251-bac2-daac12146919","019cfc7b-6c7b-7b1b-afe7-acad8efc6711","","null","
                <div class=""stimulus-container"">
                    <img src=""images/schematic_sequence/restaurant_scheme/restaurant_scheme_5.png"" class=""exp-image"">
                    <div class=""question-area""></div> 
                </div>","null","","","","","","","","","","","",""
"","","","","","html-button-response","89","309279","0.0-89.0","2E11A2BBFA314B49BAEB6C1281B50CA6","019cfc7f-388e-7251-bac2-daac12146919","019cfc7b-6c7b-7b1b-afe7-acad8efc6711","","563","
                <div class=""stimulus-container"">
                    <img src=""images/schematic_sequence/restaurant_scheme/restaurant_scheme_5.png"" class=""exp-image"">
                    <div class=""question-area"">
                        <p style=""font-size: 20px; font-weight: bold; margin: 0;"">Is there a person in this image?</p>
                    </div>
                </div>","0","main_experiment_trial","5","restaurant_scheme","schematic_sequence","chronological","","","","","","",""
"","","","","","html-keyboard-response","90","314280","0.0-90.0","2E11A2BBFA314B49BAEB6C1281B50CA6","019cfc7f-388e-7251-bac2-daac12146919","019cfc7b-6c7b-7b1b-afe7-acad8efc6711","","null","
                <div class=""stimulus-container"">
                    <img src=""images/schematic_sequence/restaurant_scheme/restaurant_scheme_6.png"" class=""exp-image"">
                    <div class=""question-area""></div> 
                </div>","null","","","","","","","","","","","",""
"","","","","","html-button-response","91","314997","0.0-91.0","2E11A2BBFA314B49BAEB6C1281B50CA6","019cfc7f-388e-7251-bac2-daac12146919","019cfc7b-6c7b-7b1b-afe7-acad8efc6711","","716","
                <div class=""stimulus-container"">
                    <img src=""images/schematic_sequence/restaurant_scheme/restaurant_scheme_6.png"" class=""exp-image"">
                    <div class=""question-area"">
                        <p style=""font-size: 20px; font-weight: bold; margin: 0;"">Is there a person in this image?</p>
                    </div>
                </div>","1","main_experiment_trial","6","restaurant_scheme","schematic_sequence","chronological","","","","","","",""
"","","","","","html-keyboard-response","92","319999","0.0-92.0","2E11A2BBFA314B49BAEB6C1281B50CA6","019cfc7f-388e-7251-bac2-daac12146919","019cfc7b-6c7b-7b1b-afe7-acad8efc6711","","null","
                <div class=""stimulus-container"">
                    <img src=""images/schematic_sequence/restaurant_scheme/restaurant_scheme_7.png"" class=""exp-image"">
                    <div class=""question-area""></div> 
                </div>","null","","","","","","","","","","","",""
"","","","","","html-button-response","93","321283","0.0-93.0","2E11A2BBFA314B49BAEB6C1281B50CA6","019cfc7f-388e-7251-bac2-daac12146919","019cfc7b-6c7b-7b1b-afe7-acad8efc6711","","1283","
                <div class=""stimulus-container"">
                    <img src=""images/schematic_sequence/restaurant_scheme/restaurant_scheme_7.png"" class=""exp-image"">
                    <div class=""question-area"">
                        <p style=""font-size: 20px; font-weight: bold; margin: 0;"">Is there a person in this image?</p>
                    </div>
                </div>","1","main_experiment_trial","7","restaurant_scheme","schematic_sequence","chronological","","","","","","",""
"","","","","","html-keyboard-response","94","326284","0.0-94.0","2E11A2BBFA314B49BAEB6C1281B50CA6","019cfc7f-388e-7251-bac2-daac12146919","019cfc7b-6c7b-7b1b-afe7-acad8efc6711","","null","
                <div class=""stimulus-container"">
                    <img src=""images/schematic_sequence/restaurant_scheme/restaurant_scheme_8.png"" class=""exp-image"">
                    <div class=""question-area""></div> 
                </div>","null","","","","","","","","","","","",""
"","","","","","html-button-response","95","327227","0.0-95.0","2E11A2BBFA314B49BAEB6C1281B50CA6","019cfc7f-388e-7251-bac2-daac12146919","019cfc7b-6c7b-7b1b-afe7-acad8efc6711","","942","
                <div class=""stimulus-container"">
                    <img src=""images/schematic_sequence/restaurant_scheme/restaurant_scheme_8.png"" class=""exp-image"">
                    <div class=""question-area"">
                        <p style=""font-size: 20px; font-weight: bold; margin: 0;"">Is there a person in this image?</p>
                    </div>
                </div>","0","main_experiment_trial","8","restaurant_scheme","schematic_sequence","chronological","","","","","","",""
"","","","","","html-keyboard-response","96","332228","0.0-96.0","2E11A2BBFA314B49BAEB6C1281B50CA6","019cfc7f-388e-7251-bac2-daac12146919","019cfc7b-6c7b-7b1b-afe7-acad8efc6711","","null","
                <div class=""stimulus-container"">
                    <img src=""images/schematic_sequence/restaurant_scheme/restaurant_scheme_9.png"" class=""exp-image"">
                    <div class=""question-area""></div> 
                </div>","null","","","","","","","","","","","",""
"","","","","","html-button-response","97","333867","0.0-97.0","2E11A2BBFA314B49BAEB6C1281B50CA6","019cfc7f-388e-7251-bac2-daac12146919","019cfc7b-6c7b-7b1b-afe7-acad8efc6711","","1638","
                <div class=""stimulus-container"">
                    <img src=""images/schematic_sequence/restaurant_scheme/restaurant_scheme_9.png"" class=""exp-image"">
                    <div class=""question-area"">
                        <p style=""font-size: 20px; font-weight: bold; margin: 0;"">Is there a person in this image?</p>
                    </div>
                </div>","0","main_experiment_trial","9","restaurant_scheme","schematic_sequence","chronological","","","","","","",""
"","","","","","html-keyboard-response","98","338869","0.0-98.0","2E11A2BBFA314B49BAEB6C1281B50CA6","019cfc7f-388e-7251-bac2-daac12146919","019cfc7b-6c7b-7b1b-afe7-acad8efc6711","","null","
                <div class=""stimulus-container"">
                    <img src=""images/schematic_sequence/restaurant_scheme/restaurant_scheme_ten.png"" class=""exp-image"">
                    <div class=""question-area""></div> 
                </div>","null","","","","","","","","","","","",""
"","","","","","html-button-response","99","340487","0.0-99.0","2E11A2BBFA314B49BAEB6C1281B50CA6","019cfc7f-388e-7251-bac2-daac12146919","019cfc7b-6c7b-7b1b-afe7-acad8efc6711","","1617","
                <div class=""stimulus-container"">
                    <img src=""images/schematic_sequence/restaurant_scheme/restaurant_scheme_ten.png"" class=""exp-image"">
                    <div class=""question-area"">
                        <p style=""font-size: 20px; font-weight: bold; margin: 0;"">Is there a person in this image?</p>
                    </div>
                </div>","0","main_experiment_trial","ten","restaurant_scheme","schematic_sequence","chronological","","","","","","",""
"","","","","","html-keyboard-response","100","345488","0.0-100.0","2E11A2BBFA314B49BAEB6C1281B50CA6","019cfc7f-388e-7251-bac2-daac12146919","019cfc7b-6c7b-7b1b-afe7-acad8efc6711","","null","<div style=""background-color: white; width: 100vw; height: 100vh;""></div>","null","","","","","","","","","","","",""
"","","","","","html-keyboard-response","101","350489","0.0-101.0","2E11A2BBFA314B49BAEB6C1281B50CA6","019cfc7f-388e-7251-bac2-daac12146919","019cfc7b-6c7b-7b1b-afe7-acad8efc6711","","null","
                <div class=""stimulus-container"">
                    <img src=""images/schematic_sequence/flight_scheme/flight_scheme_1.png"" class=""exp-image"">
                    <div class=""question-area""></div> 
                </div>","null","","","","","","","","","","","",""
"","","","","","html-button-response","102","351164","0.0-102.0","2E11A2BBFA314B49BAEB6C1281B50CA6","019cfc7f-388e-7251-bac2-daac12146919","019cfc7b-6c7b-7b1b-afe7-acad8efc6711","","673","
                <div class=""stimulus-container"">
                    <img src=""images/schematic_sequence/flight_scheme/flight_scheme_1.png"" class=""exp-image"">
                    <div class=""question-area"">
                        <p style=""font-size: 20px; font-weight: bold; margin: 0;"">Is there a person in this image?</p>
                    </div>
                </div>","0","main_experiment_trial","1","flight_scheme","schematic_sequence","chronological","","","","","","",""
"","","","","","html-keyboard-response","103","356165","0.0-103.0","2E11A2BBFA314B49BAEB6C1281B50CA6","019cfc7f-388e-7251-bac2-daac12146919","019cfc7b-6c7b-7b1b-afe7-acad8efc6711","","null","
                <div class=""stimulus-container"">
                    <img src=""images/schematic_sequence/flight_scheme/flight_scheme_2.png"" class=""exp-image"">
                    <div class=""question-area""></div> 
                </div>","null","","","","","","","","","","","",""
"","","","","","html-button-response","104","357588","0.0-104.0","2E11A2BBFA314B49BAEB6C1281B50CA6","019cfc7f-388e-7251-bac2-daac12146919","019cfc7b-6c7b-7b1b-afe7-acad8efc6711","","1421","
                <div class=""stimulus-container"">
                    <img src=""images/schematic_sequence/flight_scheme/flight_scheme_2.png"" class=""exp-image"">
                    <div class=""question-area"">
                        <p style=""font-size: 20px; font-weight: bold; margin: 0;"">Is there a person in this image?</p>
                    </div>
                </div>","1","main_experiment_trial","2","flight_scheme","schematic_sequence","chronological","","","","","","",""
"","","","","","html-keyboard-response","105","362589","0.0-105.0","2E11A2BBFA314B49BAEB6C1281B50CA6","019cfc7f-388e-7251-bac2-daac12146919","019cfc7b-6c7b-7b1b-afe7-acad8efc6711","","null","
                <div class=""stimulus-container"">
                    <img src=""images/schematic_sequence/flight_scheme/flight_scheme_3.png"" class=""exp-image"">
                    <div class=""question-area""></div> 
                </div>","null","","","","","","","","","","","",""
"","","","","","html-button-response","106","364852","0.0-106.0","2E11A2BBFA314B49BAEB6C1281B50CA6","019cfc7f-388e-7251-bac2-daac12146919","019cfc7b-6c7b-7b1b-afe7-acad8efc6711","","2262","
                <div class=""stimulus-container"">
                    <img src=""images/schematic_sequence/flight_scheme/flight_scheme_3.png"" class=""exp-image"">
                    <div class=""question-area"">
                        <p style=""font-size: 20px; font-weight: bold; margin: 0;"">Is there a person in this image?</p>
                    </div>
                </div>","0","main_experiment_trial","3","flight_scheme","schematic_sequence","chronological","","","","","","",""
"","","","","","html-keyboard-response","107","369853","0.0-107.0","2E11A2BBFA314B49BAEB6C1281B50CA6","019cfc7f-388e-7251-bac2-daac12146919","019cfc7b-6c7b-7b1b-afe7-acad8efc6711","","null","
                <div class=""stimulus-container"">
                    <img src=""images/schematic_sequence/flight_scheme/flight_scheme_4.png"" class=""exp-image"">
                    <div class=""question-area""></div> 
                </div>","null","","","","","","","","","","","",""
"","","","","","html-button-response","108","371384","0.0-108.0","2E11A2BBFA314B49BAEB6C1281B50CA6","019cfc7f-388e-7251-bac2-daac12146919","019cfc7b-6c7b-7b1b-afe7-acad8efc6711","","1530","
                <div class=""stimulus-container"">
                    <img src=""images/schematic_sequence/flight_scheme/flight_scheme_4.png"" class=""exp-image"">
                    <div class=""question-area"">
                        <p style=""font-size: 20px; font-weight: bold; margin: 0;"">Is there a person in this image?</p>
                    </div>
                </div>","0","main_experiment_trial","4","flight_scheme","schematic_sequence","chronological","","","","","","",""
"","","","","","html-keyboard-response","109","376386","0.0-109.0","2E11A2BBFA314B49BAEB6C1281B50CA6","019cfc7f-388e-7251-bac2-daac12146919","019cfc7b-6c7b-7b1b-afe7-acad8efc6711","","null","
                <div class=""stimulus-container"">
                    <img src=""images/schematic_sequence/flight_scheme/flight_scheme_5.png"" class=""exp-image"">
                    <div class=""question-area""></div> 
                </div>","null","","","","","","","","","","","",""
"","","","","","html-button-response","110","377525","0.0-110.0","2E11A2BBFA314B49BAEB6C1281B50CA6","019cfc7f-388e-7251-bac2-daac12146919","019cfc7b-6c7b-7b1b-afe7-acad8efc6711","","1138","
                <div class=""stimulus-container"">
                    <img src=""images/schematic_sequence/flight_scheme/flight_scheme_5.png"" class=""exp-image"">
                    <div class=""question-area"">
                        <p style=""font-size: 20px; font-weight: bold; margin: 0;"">Is there a person in this image?</p>
                    </div>
                </div>","0","main_experiment_trial","5","flight_scheme","schematic_sequence","chronological","","","","","","",""
"","","","","","html-keyboard-response","111","382526","0.0-111.0","2E11A2BBFA314B49BAEB6C1281B50CA6","019cfc7f-388e-7251-bac2-daac12146919","019cfc7b-6c7b-7b1b-afe7-acad8efc6711","","null","
                <div class=""stimulus-container"">
                    <img src=""images/schematic_sequence/flight_scheme/flight_scheme_6.png"" class=""exp-image"">
                    <div class=""question-area""></div> 
                </div>","null","","","","","","","","","","","",""
"","","","","","html-button-response","112","384065","0.0-112.0","2E11A2BBFA314B49BAEB6C1281B50CA6","019cfc7f-388e-7251-bac2-daac12146919","019cfc7b-6c7b-7b1b-afe7-acad8efc6711","","1537","
                <div class=""stimulus-container"">
                    <img src=""images/schematic_sequence/flight_scheme/flight_scheme_6.png"" class=""exp-image"">
                    <div class=""question-area"">
                        <p style=""font-size: 20px; font-weight: bold; margin: 0;"">Is there a person in this image?</p>
                    </div>
                </div>","1","main_experiment_trial","6","flight_scheme","schematic_sequence","chronological","","","","","","",""
"","","","","","html-keyboard-response","113","389066","0.0-113.0","2E11A2BBFA314B49BAEB6C1281B50CA6","019cfc7f-388e-7251-bac2-daac12146919","019cfc7b-6c7b-7b1b-afe7-acad8efc6711","","null","
                <div class=""stimulus-container"">
                    <img src=""images/schematic_sequence/flight_scheme/flight_scheme_7.png"" class=""exp-image"">
                    <div class=""question-area""></div> 
                </div>","null","","","","","","","","","","","",""
"","","","","","html-button-response","114","390204","0.0-114.0","2E11A2BBFA314B49BAEB6C1281B50CA6","019cfc7f-388e-7251-bac2-daac12146919","019cfc7b-6c7b-7b1b-afe7-acad8efc6711","","1137","
                <div class=""stimulus-container"">
                    <img src=""images/schematic_sequence/flight_scheme/flight_scheme_7.png"" class=""exp-image"">
                    <div class=""question-area"">
                        <p style=""font-size: 20px; font-weight: bold; margin: 0;"">Is there a person in this image?</p>
                    </div>
                </div>","0","main_experiment_trial","7","flight_scheme","schematic_sequence","chronological","","","","","","",""
"","","","","","html-keyboard-response","115","395205","0.0-115.0","2E11A2BBFA314B49BAEB6C1281B50CA6","019cfc7f-388e-7251-bac2-daac12146919","019cfc7b-6c7b-7b1b-afe7-acad8efc6711","","null","
                <div class=""stimulus-container"">
                    <img src=""images/schematic_sequence/flight_scheme/flight_scheme_8.png"" class=""exp-image"">
                    <div class=""question-area""></div> 
                </div>","null","","","","","","","","","","","",""
"","","","","","html-button-response","116","396325","0.0-116.0","2E11A2BBFA314B49BAEB6C1281B50CA6","019cfc7f-388e-7251-bac2-daac12146919","019cfc7b-6c7b-7b1b-afe7-acad8efc6711","","1118","
                <div class=""stimulus-container"">
                    <img src=""images/schematic_sequence/flight_scheme/flight_scheme_8.png"" class=""exp-image"">
                    <div class=""question-area"">
                        <p style=""font-size: 20px; font-weight: bold; margin: 0;"">Is there a person in this image?</p>
                    </div>
                </div>","1","main_experiment_trial","8","flight_scheme","schematic_sequence","chronological","","","","","","",""
"","","","","","html-keyboard-response","117","401326","0.0-117.0","2E11A2BBFA314B49BAEB6C1281B50CA6","019cfc7f-388e-7251-bac2-daac12146919","019cfc7b-6c7b-7b1b-afe7-acad8efc6711","","null","
                <div class=""stimulus-container"">
                    <img src=""images/schematic_sequence/flight_scheme/flight_scheme_9.png"" class=""exp-image"">
                    <div class=""question-area""></div> 
                </div>","null","","","","","","","","","","","",""
"","","","","","html-button-response","118","402739","0.0-118.0","2E11A2BBFA314B49BAEB6C1281B50CA6","019cfc7f-388e-7251-bac2-daac12146919","019cfc7b-6c7b-7b1b-afe7-acad8efc6711","","1411","
                <div class=""stimulus-container"">
                    <img src=""images/schematic_sequence/flight_scheme/flight_scheme_9.png"" class=""exp-image"">
                    <div class=""question-area"">
                        <p style=""font-size: 20px; font-weight: bold; margin: 0;"">Is there a person in this image?</p>
                    </div>
                </div>","0","main_experiment_trial","9","flight_scheme","schematic_sequence","chronological","","","","","","",""
"","","","","","html-keyboard-response","119","407740","0.0-119.0","2E11A2BBFA314B49BAEB6C1281B50CA6","019cfc7f-388e-7251-bac2-daac12146919","019cfc7b-6c7b-7b1b-afe7-acad8efc6711","","null","
                <div class=""stimulus-container"">
                    <img src=""images/schematic_sequence/flight_scheme/flight_scheme_ten.png"" class=""exp-image"">
                    <div class=""question-area""></div> 
                </div>","null","","","","","","","","","","","",""
"","","","","","html-button-response","120","408536","0.0-120.0","2E11A2BBFA314B49BAEB6C1281B50CA6","019cfc7f-388e-7251-bac2-daac12146919","019cfc7b-6c7b-7b1b-afe7-acad8efc6711","","795","
                <div class=""stimulus-container"">
                    <img src=""images/schematic_sequence/flight_scheme/flight_scheme_ten.png"" class=""exp-image"">
                    <div class=""question-area"">
                        <p style=""font-size: 20px; font-weight: bold; margin: 0;"">Is there a person in this image?</p>
                    </div>
                </div>","0","main_experiment_trial","ten","flight_scheme","schematic_sequence","chronological","","","","","","",""
"","","","","","html-keyboard-response","121","413538","0.0-121.0","2E11A2BBFA314B49BAEB6C1281B50CA6","019cfc7f-388e-7251-bac2-daac12146919","019cfc7b-6c7b-7b1b-afe7-acad8efc6711","","null","<div style=""background-color: white; width: 100vw; height: 100vh;""></div>","null","","","","","","","","","","","",""
"","","","","","html-keyboard-response","122","418539","0.0-122.0","2E11A2BBFA314B49BAEB6C1281B50CA6","019cfc7f-388e-7251-bac2-daac12146919","019cfc7b-6c7b-7b1b-afe7-acad8efc6711","","null","
                <div class=""stimulus-container"">
                    <img src=""images/schematic_sequence/interview_scheme/interview_scheme_1.png"" class=""exp-image"">
                    <div class=""question-area""></div> 
                </div>","null","","","","","","","","","","","",""
"","","","","","html-button-response","123","419671","0.0-123.0","2E11A2BBFA314B49BAEB6C1281B50CA6","019cfc7f-388e-7251-bac2-daac12146919","019cfc7b-6c7b-7b1b-afe7-acad8efc6711","","1131","
                <div class=""stimulus-container"">
                    <img src=""images/schematic_sequence/interview_scheme/interview_scheme_1.png"" class=""exp-image"">
                    <div class=""question-area"">
                        <p style=""font-size: 20px; font-weight: bold; margin: 0;"">Is there a person in this image?</p>
                    </div>
                </div>","1","main_experiment_trial","1","interview_scheme","schematic_sequence","chronological","","","","","","",""
"","","","","","html-keyboard-response","124","424672","0.0-124.0","2E11A2BBFA314B49BAEB6C1281B50CA6","019cfc7f-388e-7251-bac2-daac12146919","019cfc7b-6c7b-7b1b-afe7-acad8efc6711","","null","
                <div class=""stimulus-container"">
                    <img src=""images/schematic_sequence/interview_scheme/interview_scheme_2.png"" class=""exp-image"">
                    <div class=""question-area""></div> 
                </div>","null","","","","","","","","","","","",""
"","","","","","html-button-response","125","425576","0.0-125.0","2E11A2BBFA314B49BAEB6C1281B50CA6","019cfc7f-388e-7251-bac2-daac12146919","019cfc7b-6c7b-7b1b-afe7-acad8efc6711","","903","
                <div class=""stimulus-container"">
                    <img src=""images/schematic_sequence/interview_scheme/interview_scheme_2.png"" class=""exp-image"">
                    <div class=""question-area"">
                        <p style=""font-size: 20px; font-weight: bold; margin: 0;"">Is there a person in this image?</p>
                    </div>
                </div>","0","main_experiment_trial","2","interview_scheme","schematic_sequence","chronological","","","","","","",""
"","","","","","html-keyboard-response","126","430578","0.0-126.0","2E11A2BBFA314B49BAEB6C1281B50CA6","019cfc7f-388e-7251-bac2-daac12146919","019cfc7b-6c7b-7b1b-afe7-acad8efc6711","","null","
                <div class=""stimulus-container"">
                    <img src=""images/schematic_sequence/interview_scheme/interview_scheme_3.png"" class=""exp-image"">
                    <div class=""question-area""></div> 
                </div>","null","","","","","","","","","","","",""
"","","","","","html-button-response","127","433133","0.0-127.0","2E11A2BBFA314B49BAEB6C1281B50CA6","019cfc7f-388e-7251-bac2-daac12146919","019cfc7b-6c7b-7b1b-afe7-acad8efc6711","","2554","
                <div class=""stimulus-container"">
                    <img src=""images/schematic_sequence/interview_scheme/interview_scheme_3.png"" class=""exp-image"">
                    <div class=""question-area"">
                        <p style=""font-size: 20px; font-weight: bold; margin: 0;"">Is there a person in this image?</p>
                    </div>
                </div>","1","main_experiment_trial","3","interview_scheme","schematic_sequence","chronological","","","","","","",""
"","","","","","html-keyboard-response","128","438135","0.0-128.0","2E11A2BBFA314B49BAEB6C1281B50CA6","019cfc7f-388e-7251-bac2-daac12146919","019cfc7b-6c7b-7b1b-afe7-acad8efc6711","","null","
                <div class=""stimulus-container"">
                    <img src=""images/schematic_sequence/interview_scheme/interview_scheme_4.png"" class=""exp-image"">
                    <div class=""question-area""></div> 
                </div>","null","","","","","","","","","","","",""
"","","","","","html-button-response","129","439773","0.0-129.0","2E11A2BBFA314B49BAEB6C1281B50CA6","019cfc7f-388e-7251-bac2-daac12146919","019cfc7b-6c7b-7b1b-afe7-acad8efc6711","","1638","
                <div class=""stimulus-container"">
                    <img src=""images/schematic_sequence/interview_scheme/interview_scheme_4.png"" class=""exp-image"">
                    <div class=""question-area"">
                        <p style=""font-size: 20px; font-weight: bold; margin: 0;"">Is there a person in this image?</p>
                    </div>
                </div>","1","main_experiment_trial","4","interview_scheme","schematic_sequence","chronological","","","","","","",""
"","","","","","html-keyboard-response","130","444774","0.0-130.0","2E11A2BBFA314B49BAEB6C1281B50CA6","019cfc7f-388e-7251-bac2-daac12146919","019cfc7b-6c7b-7b1b-afe7-acad8efc6711","","null","
                <div class=""stimulus-container"">
                    <img src=""images/schematic_sequence/interview_scheme/interview_scheme_5.png"" class=""exp-image"">
                    <div class=""question-area""></div> 
                </div>","null","","","","","","","","","","","",""
"","","","","","html-button-response","131","445747","0.0-131.0","2E11A2BBFA314B49BAEB6C1281B50CA6","019cfc7f-388e-7251-bac2-daac12146919","019cfc7b-6c7b-7b1b-afe7-acad8efc6711","","972","
                <div class=""stimulus-container"">
                    <img src=""images/schematic_sequence/interview_scheme/interview_scheme_5.png"" class=""exp-image"">
                    <div class=""question-area"">
                        <p style=""font-size: 20px; font-weight: bold; margin: 0;"">Is there a person in this image?</p>
                    </div>
                </div>","0","main_experiment_trial","5","interview_scheme","schematic_sequence","chronological","","","","","","",""
"","","","","","html-keyboard-response","132","450749","0.0-132.0","2E11A2BBFA314B49BAEB6C1281B50CA6","019cfc7f-388e-7251-bac2-daac12146919","019cfc7b-6c7b-7b1b-afe7-acad8efc6711","","null","
                <div class=""stimulus-container"">
                    <img src=""images/schematic_sequence/interview_scheme/interview_scheme_6.png"" class=""exp-image"">
                    <div class=""question-area""></div> 
                </div>","null","","","","","","","","","","","",""
"","","","","","html-button-response","133","451867","0.0-133.0","2E11A2BBFA314B49BAEB6C1281B50CA6","019cfc7f-388e-7251-bac2-daac12146919","019cfc7b-6c7b-7b1b-afe7-acad8efc6711","","1117","
                <div class=""stimulus-container"">
                    <img src=""images/schematic_sequence/interview_scheme/interview_scheme_6.png"" class=""exp-image"">
                    <div class=""question-area"">
                        <p style=""font-size: 20px; font-weight: bold; margin: 0;"">Is there a person in this image?</p>
                    </div>
                </div>","0","main_experiment_trial","6","interview_scheme","schematic_sequence","chronological","","","","","","",""
"","","","","","html-keyboard-response","134","456869","0.0-134.0","2E11A2BBFA314B49BAEB6C1281B50CA6","019cfc7f-388e-7251-bac2-daac12146919","019cfc7b-6c7b-7b1b-afe7-acad8efc6711","","null","
                <div class=""stimulus-container"">
                    <img src=""images/schematic_sequence/interview_scheme/interview_scheme_7.png"" class=""exp-image"">
                    <div class=""question-area""></div> 
                </div>","null","","","","","","","","","","","",""
"","","","","","html-button-response","135","457771","0.0-135.0","2E11A2BBFA314B49BAEB6C1281B50CA6","019cfc7f-388e-7251-bac2-daac12146919","019cfc7b-6c7b-7b1b-afe7-acad8efc6711","","901","
                <div class=""stimulus-container"">
                    <img src=""images/schematic_sequence/interview_scheme/interview_scheme_7.png"" class=""exp-image"">
                    <div class=""question-area"">
                        <p style=""font-size: 20px; font-weight: bold; margin: 0;"">Is there a person in this image?</p>
                    </div>
                </div>","0","main_experiment_trial","7","interview_scheme","schematic_sequence","chronological","","","","","","",""
"","","","","","html-keyboard-response","136","462772","0.0-136.0","2E11A2BBFA314B49BAEB6C1281B50CA6","019cfc7f-388e-7251-bac2-daac12146919","019cfc7b-6c7b-7b1b-afe7-acad8efc6711","","null","
                <div class=""stimulus-container"">
                    <img src=""images/schematic_sequence/interview_scheme/interview_scheme_8.png"" class=""exp-image"">
                    <div class=""question-area""></div> 
                </div>","null","","","","","","","","","","","",""
"","","","","","html-button-response","137","463578","0.0-137.0","2E11A2BBFA314B49BAEB6C1281B50CA6","019cfc7f-388e-7251-bac2-daac12146919","019cfc7b-6c7b-7b1b-afe7-acad8efc6711","","805","
                <div class=""stimulus-container"">
                    <img src=""images/schematic_sequence/interview_scheme/interview_scheme_8.png"" class=""exp-image"">
                    <div class=""question-area"">
                        <p style=""font-size: 20px; font-weight: bold; margin: 0;"">Is there a person in this image?</p>
                    </div>
                </div>","0","main_experiment_trial","8","interview_scheme","schematic_sequence","chronological","","","","","","",""
"","","","","","html-keyboard-response","138","468579","0.0-138.0","2E11A2BBFA314B49BAEB6C1281B50CA6","019cfc7f-388e-7251-bac2-daac12146919","019cfc7b-6c7b-7b1b-afe7-acad8efc6711","","null","
                <div class=""stimulus-container"">
                    <img src=""images/schematic_sequence/interview_scheme/interview_scheme_9.png"" class=""exp-image"">
                    <div class=""question-area""></div> 
                </div>","null","","","","","","","","","","","",""
"","","","","","html-button-response","139","469698","0.0-139.0","2E11A2BBFA314B49BAEB6C1281B50CA6","019cfc7f-388e-7251-bac2-daac12146919","019cfc7b-6c7b-7b1b-afe7-acad8efc6711","","1118","
                <div class=""stimulus-container"">
                    <img src=""images/schematic_sequence/interview_scheme/interview_scheme_9.png"" class=""exp-image"">
                    <div class=""question-area"">
                        <p style=""font-size: 20px; font-weight: bold; margin: 0;"">Is there a person in this image?</p>
                    </div>
                </div>","0","main_experiment_trial","9","interview_scheme","schematic_sequence","chronological","","","","","","",""
"","","","","","html-keyboard-response","140","474701","0.0-140.0","2E11A2BBFA314B49BAEB6C1281B50CA6","019cfc7f-388e-7251-bac2-daac12146919","019cfc7b-6c7b-7b1b-afe7-acad8efc6711","","null","
                <div class=""stimulus-container"">
                    <img src=""images/schematic_sequence/interview_scheme/interview_scheme_ten.png"" class=""exp-image"">
                    <div class=""question-area""></div> 
                </div>","null","","","","","","","","","","","",""
"","","","","","html-button-response","141","475583","0.0-141.0","2E11A2BBFA314B49BAEB6C1281B50CA6","019cfc7f-388e-7251-bac2-daac12146919","019cfc7b-6c7b-7b1b-afe7-acad8efc6711","","881","
                <div class=""stimulus-container"">
                    <img src=""images/schematic_sequence/interview_scheme/interview_scheme_ten.png"" class=""exp-image"">
                    <div class=""question-area"">
                        <p style=""font-size: 20px; font-weight: bold; margin: 0;"">Is there a person in this image?</p>
                    </div>
                </div>","0","main_experiment_trial","ten","interview_scheme","schematic_sequence","chronological","","","","","","",""
"","","","","","html-keyboard-response","142","480584","0.0-142.0","2E11A2BBFA314B49BAEB6C1281B50CA6","019cfc7f-388e-7251-bac2-daac12146919","019cfc7b-6c7b-7b1b-afe7-acad8efc6711","","null","<div style=""background-color: white; width: 100vw; height: 100vh;""></div>","null","","","","","","","","","","","",""
"","","","","","html-keyboard-response","143","485585","0.0-143.0","2E11A2BBFA314B49BAEB6C1281B50CA6","019cfc7f-388e-7251-bac2-daac12146919","019cfc7b-6c7b-7b1b-afe7-acad8efc6711","","null","
                <div class=""stimulus-container"">
                    <img src=""images/causal_sequence/museum_causal/museum_causal_1.png"" class=""exp-image"">
                    <div class=""question-area""></div> 
                </div>","null","","","","","","","","","","","",""
"","","","","","html-button-response","144","487432","0.0-144.0","2E11A2BBFA314B49BAEB6C1281B50CA6","019cfc7f-388e-7251-bac2-daac12146919","019cfc7b-6c7b-7b1b-afe7-acad8efc6711","","1845","
                <div class=""stimulus-container"">
                    <img src=""images/causal_sequence/museum_causal/museum_causal_1.png"" class=""exp-image"">
                    <div class=""question-area"">
                        <p style=""font-size: 20px; font-weight: bold; margin: 0;"">Is there a person in this image?</p>
                    </div>
                </div>","0","main_experiment_trial","1","museum_causal","causal_sequence","chronological","","","","","","",""
"","","","","","html-keyboard-response","145","492433","0.0-145.0","2E11A2BBFA314B49BAEB6C1281B50CA6","019cfc7f-388e-7251-bac2-daac12146919","019cfc7b-6c7b-7b1b-afe7-acad8efc6711","","null","
                <div class=""stimulus-container"">
                    <img src=""images/causal_sequence/museum_causal/museum_causal_2.png"" class=""exp-image"">
                    <div class=""question-area""></div> 
                </div>","null","","","","","","","","","","","",""
"","","","","","html-button-response","146","493415","0.0-146.0","2E11A2BBFA314B49BAEB6C1281B50CA6","019cfc7f-388e-7251-bac2-daac12146919","019cfc7b-6c7b-7b1b-afe7-acad8efc6711","","981","
                <div class=""stimulus-container"">
                    <img src=""images/causal_sequence/museum_causal/museum_causal_2.png"" class=""exp-image"">
                    <div class=""question-area"">
                        <p style=""font-size: 20px; font-weight: bold; margin: 0;"">Is there a person in this image?</p>
                    </div>
                </div>","0","main_experiment_trial","2","museum_causal","causal_sequence","chronological","","","","","","",""
"","","","","","html-keyboard-response","147","498416","0.0-147.0","2E11A2BBFA314B49BAEB6C1281B50CA6","019cfc7f-388e-7251-bac2-daac12146919","019cfc7b-6c7b-7b1b-afe7-acad8efc6711","","null","
                <div class=""stimulus-container"">
                    <img src=""images/causal_sequence/museum_causal/museum_causal_3.png"" class=""exp-image"">
                    <div class=""question-area""></div> 
                </div>","null","","","","","","","","","","","",""
"","","","","","html-button-response","148","499477","0.0-148.0","2E11A2BBFA314B49BAEB6C1281B50CA6","019cfc7f-388e-7251-bac2-daac12146919","019cfc7b-6c7b-7b1b-afe7-acad8efc6711","","1059","
                <div class=""stimulus-container"">
                    <img src=""images/causal_sequence/museum_causal/museum_causal_3.png"" class=""exp-image"">
                    <div class=""question-area"">
                        <p style=""font-size: 20px; font-weight: bold; margin: 0;"">Is there a person in this image?</p>
                    </div>
                </div>","0","main_experiment_trial","3","museum_causal","causal_sequence","chronological","","","","","","",""
"","","","","","html-keyboard-response","149","504478","0.0-149.0","2E11A2BBFA314B49BAEB6C1281B50CA6","019cfc7f-388e-7251-bac2-daac12146919","019cfc7b-6c7b-7b1b-afe7-acad8efc6711","","null","
                <div class=""stimulus-container"">
                    <img src=""images/causal_sequence/museum_causal/museum_causal_4.png"" class=""exp-image"">
                    <div class=""question-area""></div> 
                </div>","null","","","","","","","","","","","",""
"","","","","","html-button-response","150","507481","0.0-150.0","2E11A2BBFA314B49BAEB6C1281B50CA6","019cfc7f-388e-7251-bac2-daac12146919","019cfc7b-6c7b-7b1b-afe7-acad8efc6711","","null","
                <div class=""stimulus-container"">
                    <img src=""images/causal_sequence/museum_causal/museum_causal_4.png"" class=""exp-image"">
                    <div class=""question-area"">
                        <p style=""font-size: 20px; font-weight: bold; margin: 0;"">Is there a person in this image?</p>
                    </div>
                </div>","null","main_experiment_trial","4","museum_causal","causal_sequence","chronological","","","","","","",""
"","","","","","html-keyboard-response","151","512482","0.0-151.0","2E11A2BBFA314B49BAEB6C1281B50CA6","019cfc7f-388e-7251-bac2-daac12146919","019cfc7b-6c7b-7b1b-afe7-acad8efc6711","","null","
                <div class=""stimulus-container"">
                    <img src=""images/causal_sequence/museum_causal/museum_causal_5.png"" class=""exp-image"">
                    <div class=""question-area""></div> 
                </div>","null","","","","","","","","","","","",""
"","","","","","html-button-response","152","515148","0.0-152.0","2E11A2BBFA314B49BAEB6C1281B50CA6","019cfc7f-388e-7251-bac2-daac12146919","019cfc7b-6c7b-7b1b-afe7-acad8efc6711","","2664","
                <div class=""stimulus-container"">
                    <img src=""images/causal_sequence/museum_causal/museum_causal_5.png"" class=""exp-image"">
                    <div class=""question-area"">
                        <p style=""font-size: 20px; font-weight: bold; margin: 0;"">Is there a person in this image?</p>
                    </div>
                </div>","0","main_experiment_trial","5","museum_causal","causal_sequence","chronological","","","","","","",""
"","","","","","html-keyboard-response","153","520149","0.0-153.0","2E11A2BBFA314B49BAEB6C1281B50CA6","019cfc7f-388e-7251-bac2-daac12146919","019cfc7b-6c7b-7b1b-afe7-acad8efc6711","","null","
                <div class=""stimulus-container"">
                    <img src=""images/causal_sequence/museum_causal/museum_causal_6.png"" class=""exp-image"">
                    <div class=""question-area""></div> 
                </div>","null","","","","","","","","","","","",""
"","","","","","html-button-response","154","521298","0.0-154.0","2E11A2BBFA314B49BAEB6C1281B50CA6","019cfc7f-388e-7251-bac2-daac12146919","019cfc7b-6c7b-7b1b-afe7-acad8efc6711","","1148","
                <div class=""stimulus-container"">
                    <img src=""images/causal_sequence/museum_causal/museum_causal_6.png"" class=""exp-image"">
                    <div class=""question-area"">
                        <p style=""font-size: 20px; font-weight: bold; margin: 0;"">Is there a person in this image?</p>
                    </div>
                </div>","0","main_experiment_trial","6","museum_causal","causal_sequence","chronological","","","","","","",""
"","","","","","html-keyboard-response","155","526299","0.0-155.0","2E11A2BBFA314B49BAEB6C1281B50CA6","019cfc7f-388e-7251-bac2-daac12146919","019cfc7b-6c7b-7b1b-afe7-acad8efc6711","","null","
                <div class=""stimulus-container"">
                    <img src=""images/causal_sequence/museum_causal/museum_causal_7.png"" class=""exp-image"">
                    <div class=""question-area""></div> 
                </div>","null","","","","","","","","","","","",""
"","","","","","html-button-response","156","528346","0.0-156.0","2E11A2BBFA314B49BAEB6C1281B50CA6","019cfc7f-388e-7251-bac2-daac12146919","019cfc7b-6c7b-7b1b-afe7-acad8efc6711","","2046","
                <div class=""stimulus-container"">
                    <img src=""images/causal_sequence/museum_causal/museum_causal_7.png"" class=""exp-image"">
                    <div class=""question-area"">
                        <p style=""font-size: 20px; font-weight: bold; margin: 0;"">Is there a person in this image?</p>
                    </div>
                </div>","1","main_experiment_trial","7","museum_causal","causal_sequence","chronological","","","","","","",""
"","","","","","html-keyboard-response","157","533348","0.0-157.0","2E11A2BBFA314B49BAEB6C1281B50CA6","019cfc7f-388e-7251-bac2-daac12146919","019cfc7b-6c7b-7b1b-afe7-acad8efc6711","","null","
                <div class=""stimulus-container"">
                    <img src=""images/causal_sequence/museum_causal/museum_causal_8.png"" class=""exp-image"">
                    <div class=""question-area""></div> 
                </div>","null","","","","","","","","","","","",""
"","","","","","html-button-response","158","535260","0.0-158.0","2E11A2BBFA314B49BAEB6C1281B50CA6","019cfc7f-388e-7251-bac2-daac12146919","019cfc7b-6c7b-7b1b-afe7-acad8efc6711","","1910","
                <div class=""stimulus-container"">
                    <img src=""images/causal_sequence/museum_causal/museum_causal_8.png"" class=""exp-image"">
                    <div class=""question-area"">
                        <p style=""font-size: 20px; font-weight: bold; margin: 0;"">Is there a person in this image?</p>
                    </div>
                </div>","0","main_experiment_trial","8","museum_causal","causal_sequence","chronological","","","","","","",""
"","","","","","html-keyboard-response","159","540261","0.0-159.0","2E11A2BBFA314B49BAEB6C1281B50CA6","019cfc7f-388e-7251-bac2-daac12146919","019cfc7b-6c7b-7b1b-afe7-acad8efc6711","","null","
                <div class=""stimulus-container"">
                    <img src=""images/causal_sequence/museum_causal/museum_causal_9.png"" class=""exp-image"">
                    <div class=""question-area""></div> 
                </div>","null","","","","","","","","","","","",""
"","","","","","html-button-response","160","541720","0.0-160.0","2E11A2BBFA314B49BAEB6C1281B50CA6","019cfc7f-388e-7251-bac2-daac12146919","019cfc7b-6c7b-7b1b-afe7-acad8efc6711","","1458","
                <div class=""stimulus-container"">
                    <img src=""images/causal_sequence/museum_causal/museum_causal_9.png"" class=""exp-image"">
                    <div class=""question-area"">
                        <p style=""font-size: 20px; font-weight: bold; margin: 0;"">Is there a person in this image?</p>
                    </div>
                </div>","1","main_experiment_trial","9","museum_causal","causal_sequence","chronological","","","","","","",""
"","","","","","html-keyboard-response","161","546721","0.0-161.0","2E11A2BBFA314B49BAEB6C1281B50CA6","019cfc7f-388e-7251-bac2-daac12146919","019cfc7b-6c7b-7b1b-afe7-acad8efc6711","","null","
                <div class=""stimulus-container"">
                    <img src=""images/causal_sequence/museum_causal/museum_causal_ten.png"" class=""exp-image"">
                    <div class=""question-area""></div> 
                </div>","null","","","","","","","","","","","",""
"","","","","","html-button-response","162","548700","0.0-162.0","2E11A2BBFA314B49BAEB6C1281B50CA6","019cfc7f-388e-7251-bac2-daac12146919","019cfc7b-6c7b-7b1b-afe7-acad8efc6711","","1978","
                <div class=""stimulus-container"">
                    <img src=""images/causal_sequence/museum_causal/museum_causal_ten.png"" class=""exp-image"">
                    <div class=""question-area"">
                        <p style=""font-size: 20px; font-weight: bold; margin: 0;"">Is there a person in this image?</p>
                    </div>
                </div>","0","main_experiment_trial","ten","museum_causal","causal_sequence","chronological","","","","","","",""
"","","","","","html-keyboard-response","163","553701","0.0-163.0","2E11A2BBFA314B49BAEB6C1281B50CA6","019cfc7f-388e-7251-bac2-daac12146919","019cfc7b-6c7b-7b1b-afe7-acad8efc6711","","null","<div style=""background-color: white; width: 100vw; height: 100vh;""></div>","null","","","","","","","","","","","",""
"","","","","","html-keyboard-response","164","558702","0.0-164.0","2E11A2BBFA314B49BAEB6C1281B50CA6","019cfc7f-388e-7251-bac2-daac12146919","019cfc7b-6c7b-7b1b-afe7-acad8efc6711","","null","
                <div class=""stimulus-container"">
                    <img src=""images/semantic_sequence/maintaining_a_car_semantic/maintaining_a_car_semantic_1.png"" class=""exp-image"">
                    <div class=""question-area""></div> 
                </div>","null","","","","","","","","","","","",""
"","","","","","html-button-response","165","560257","0.0-165.0","2E11A2BBFA314B49BAEB6C1281B50CA6","019cfc7f-388e-7251-bac2-daac12146919","019cfc7b-6c7b-7b1b-afe7-acad8efc6711","","1553","
                <div class=""stimulus-container"">
                    <img src=""images/semantic_sequence/maintaining_a_car_semantic/maintaining_a_car_semantic_1.png"" class=""exp-image"">
                    <div class=""question-area"">
                        <p style=""font-size: 20px; font-weight: bold; margin: 0;"">Is there a person in this image?</p>
                    </div>
                </div>","0","main_experiment_trial","1","maintaining_a_car_semantic","semantic_sequence","chronological","","","","","","",""
"","","","","","html-keyboard-response","166","565258","0.0-166.0","2E11A2BBFA314B49BAEB6C1281B50CA6","019cfc7f-388e-7251-bac2-daac12146919","019cfc7b-6c7b-7b1b-afe7-acad8efc6711","","null","
                <div class=""stimulus-container"">
                    <img src=""images/semantic_sequence/maintaining_a_car_semantic/maintaining_a_car_semantic_2.png"" class=""exp-image"">
                    <div class=""question-area""></div> 
                </div>","null","","","","","","","","","","","",""
"","","","","","html-button-response","167","566825","0.0-167.0","2E11A2BBFA314B49BAEB6C1281B50CA6","019cfc7f-388e-7251-bac2-daac12146919","019cfc7b-6c7b-7b1b-afe7-acad8efc6711","","1566","
                <div class=""stimulus-container"">
                    <img src=""images/semantic_sequence/maintaining_a_car_semantic/maintaining_a_car_semantic_2.png"" class=""exp-image"">
                    <div class=""question-area"">
                        <p style=""font-size: 20px; font-weight: bold; margin: 0;"">Is there a person in this image?</p>
                    </div>
                </div>","0","main_experiment_trial","2","maintaining_a_car_semantic","semantic_sequence","chronological","","","","","","",""
"","","","","","html-keyboard-response","168","571826","0.0-168.0","2E11A2BBFA314B49BAEB6C1281B50CA6","019cfc7f-388e-7251-bac2-daac12146919","019cfc7b-6c7b-7b1b-afe7-acad8efc6711","","null","
                <div class=""stimulus-container"">
                    <img src=""images/semantic_sequence/maintaining_a_car_semantic/maintaining_a_car_semantic_3.png"" class=""exp-image"">
                    <div class=""question-area""></div> 
                </div>","null","","","","","","","","","","","",""
"","","","","","html-button-response","169","572475","0.0-169.0","2E11A2BBFA314B49BAEB6C1281B50CA6","019cfc7f-388e-7251-bac2-daac12146919","019cfc7b-6c7b-7b1b-afe7-acad8efc6711","","647","
                <div class=""stimulus-container"">
                    <img src=""images/semantic_sequence/maintaining_a_car_semantic/maintaining_a_car_semantic_3.png"" class=""exp-image"">
                    <div class=""question-area"">
                        <p style=""font-size: 20px; font-weight: bold; margin: 0;"">Is there a person in this image?</p>
                    </div>
                </div>","0","main_experiment_trial","3","maintaining_a_car_semantic","semantic_sequence","chronological","","","","","","",""
"","","","","","html-keyboard-response","170","577476","0.0-170.0","2E11A2BBFA314B49BAEB6C1281B50CA6","019cfc7f-388e-7251-bac2-daac12146919","019cfc7b-6c7b-7b1b-afe7-acad8efc6711","","null","
                <div class=""stimulus-container"">
                    <img src=""images/semantic_sequence/maintaining_a_car_semantic/maintaining_a_car_semantic_4.png"" class=""exp-image"">
                    <div class=""question-area""></div> 
                </div>","null","","","","","","","","","","","",""
"","","","","","html-button-response","171","578213","0.0-171.0","2E11A2BBFA314B49BAEB6C1281B50CA6","019cfc7f-388e-7251-bac2-daac12146919","019cfc7b-6c7b-7b1b-afe7-acad8efc6711","","735","
                <div class=""stimulus-container"">
                    <img src=""images/semantic_sequence/maintaining_a_car_semantic/maintaining_a_car_semantic_4.png"" class=""exp-image"">
                    <div class=""question-area"">
                        <p style=""font-size: 20px; font-weight: bold; margin: 0;"">Is there a person in this image?</p>
                    </div>
                </div>","0","main_experiment_trial","4","maintaining_a_car_semantic","semantic_sequence","chronological","","","","","","",""
"","","","","","html-keyboard-response","172","583214","0.0-172.0","2E11A2BBFA314B49BAEB6C1281B50CA6","019cfc7f-388e-7251-bac2-daac12146919","019cfc7b-6c7b-7b1b-afe7-acad8efc6711","","null","
                <div class=""stimulus-container"">
                    <img src=""images/semantic_sequence/maintaining_a_car_semantic/maintaining_a_car_semantic_5.png"" class=""exp-image"">
                    <div class=""question-area""></div> 
                </div>","null","","","","","","","","","","","",""
"","","","","","html-button-response","173","583755","0.0-173.0","2E11A2BBFA314B49BAEB6C1281B50CA6","019cfc7f-388e-7251-bac2-daac12146919","019cfc7b-6c7b-7b1b-afe7-acad8efc6711","","540","
                <div class=""stimulus-container"">
                    <img src=""images/semantic_sequence/maintaining_a_car_semantic/maintaining_a_car_semantic_5.png"" class=""exp-image"">
                    <div class=""question-area"">
                        <p style=""font-size: 20px; font-weight: bold; margin: 0;"">Is there a person in this image?</p>
                    </div>
                </div>","0","main_experiment_trial","5","maintaining_a_car_semantic","semantic_sequence","chronological","","","","","","",""
"","","","","","html-keyboard-response","174","588757","0.0-174.0","2E11A2BBFA314B49BAEB6C1281B50CA6","019cfc7f-388e-7251-bac2-daac12146919","019cfc7b-6c7b-7b1b-afe7-acad8efc6711","","null","
                <div class=""stimulus-container"">
                    <img src=""images/semantic_sequence/maintaining_a_car_semantic/maintaining_a_car_semantic_6.png"" class=""exp-image"">
                    <div class=""question-area""></div> 
                </div>","null","","","","","","","","","","","",""
"","","","","","html-button-response","175","589534","0.0-175.0","2E11A2BBFA314B49BAEB6C1281B50CA6","019cfc7f-388e-7251-bac2-daac12146919","019cfc7b-6c7b-7b1b-afe7-acad8efc6711","","776","
                <div class=""stimulus-container"">
                    <img src=""images/semantic_sequence/maintaining_a_car_semantic/maintaining_a_car_semantic_6.png"" class=""exp-image"">
                    <div class=""question-area"">
                        <p style=""font-size: 20px; font-weight: bold; margin: 0;"">Is there a person in this image?</p>
                    </div>
                </div>","0","main_experiment_trial","6","maintaining_a_car_semantic","semantic_sequence","chronological","","","","","","",""
"","","","","","html-keyboard-response","176","594535","0.0-176.0","2E11A2BBFA314B49BAEB6C1281B50CA6","019cfc7f-388e-7251-bac2-daac12146919","019cfc7b-6c7b-7b1b-afe7-acad8efc6711","","null","
                <div class=""stimulus-container"">
                    <img src=""images/semantic_sequence/maintaining_a_car_semantic/maintaining_a_car_semantic_7.png"" class=""exp-image"">
                    <div class=""question-area""></div> 
                </div>","null","","","","","","","","","","","",""
"","","","","","html-button-response","177","595046","0.0-177.0","2E11A2BBFA314B49BAEB6C1281B50CA6","019cfc7f-388e-7251-bac2-daac12146919","019cfc7b-6c7b-7b1b-afe7-acad8efc6711","","510","
                <div class=""stimulus-container"">
                    <img src=""images/semantic_sequence/maintaining_a_car_semantic/maintaining_a_car_semantic_7.png"" class=""exp-image"">
                    <div class=""question-area"">
                        <p style=""font-size: 20px; font-weight: bold; margin: 0;"">Is there a person in this image?</p>
                    </div>
                </div>","0","main_experiment_trial","7","maintaining_a_car_semantic","semantic_sequence","chronological","","","","","","",""
"","","","","","html-keyboard-response","178","600048","0.0-178.0","2E11A2BBFA314B49BAEB6C1281B50CA6","019cfc7f-388e-7251-bac2-daac12146919","019cfc7b-6c7b-7b1b-afe7-acad8efc6711","","null","
                <div class=""stimulus-container"">
