"success","timeout","failed_images","failed_audio","failed_video","trial_type","trial_index","time_elapsed","internal_node_id","subject_id","study_id","session_id","view_history","rt","stimulus","response","task","image_index","folder","sequence_type","presentation_order","valuable_image_index","reward_type","chosen_image_index","target_X","correct_choice"
"true","false","[]","[]","[]","preload","0","15370","0.0-0.0","DBFA2F62B5974D349D1F5851E372E824","019cf9df-fc9a-78b9-b8e2-bb9d0b928390","019cf9ba-391a-7c7b-96b9-3757895c469c","","","","","","","","","","","","","",""
"","","","","","instructions","1","16991","0.0-1.0","DBFA2F62B5974D349D1F5851E372E824","019cf9df-fc9a-78b9-b8e2-bb9d0b928390","019cf9ba-391a-7c7b-96b9-3757895c469c","[{""page_index"":0,""viewing_time"":1620}]","1621","","","","","","","","","","","",""
"","","","","","instructions","2","19243","0.0-2.0","DBFA2F62B5974D349D1F5851E372E824","019cf9df-fc9a-78b9-b8e2-bb9d0b928390","019cf9ba-391a-7c7b-96b9-3757895c469c","[{""page_index"":0,""viewing_time"":2233}]","2251","","","","","","","","","","","",""
"true","","","","","fullscreen","3","21657","0.0-3.0","DBFA2F62B5974D349D1F5851E372E824","019cf9df-fc9a-78b9-b8e2-bb9d0b928390","019cf9ba-391a-7c7b-96b9-3757895c469c","","1381","","","","","","","","","","","",""
"","","","","","instructions","4","25526","0.0-4.0","DBFA2F62B5974D349D1F5851E372E824","019cf9df-fc9a-78b9-b8e2-bb9d0b928390","019cf9ba-391a-7c7b-96b9-3757895c469c","[{""page_index"":0,""viewing_time"":3869}]","3869","","","","","","","","","","","",""
"","","","","","instructions","5","26698","0.0-5.0","DBFA2F62B5974D349D1F5851E372E824","019cf9df-fc9a-78b9-b8e2-bb9d0b928390","019cf9ba-391a-7c7b-96b9-3757895c469c","[{""page_index"":0,""viewing_time"":1171}]","1171","","","","","","","","","","","",""
"","","","","","html-keyboard-response","6","30706","0.0-6.0","DBFA2F62B5974D349D1F5851E372E824","019cf9df-fc9a-78b9-b8e2-bb9d0b928390","019cf9ba-391a-7c7b-96b9-3757895c469c","","null","
                <div class=""stimulus-container"">
                    <img src=""images/instructions/movie_1.png"" class=""exp-image"">
                    <div class=""question-area""></div> 
                </div>","null","","","","","","","","","",""
"","","","","","html-button-response","7","33722","0.0-7.0","DBFA2F62B5974D349D1F5851E372E824","019cf9df-fc9a-78b9-b8e2-bb9d0b928390","019cf9ba-391a-7c7b-96b9-3757895c469c","","null","
                <div class=""stimulus-container"">
                    <img src=""images/instructions/movie_1.png"" class=""exp-image"">
                    <div class=""question-area"">
                        <p style=""font-size: 20px; font-weight: bold; margin: 0;"">Was there a person in this image?</p>
                    </div>
                </div>","null","example_question","1","","","","","","","",""
"","","","","","html-keyboard-response","8","37729","0.0-8.0","DBFA2F62B5974D349D1F5851E372E824","019cf9df-fc9a-78b9-b8e2-bb9d0b928390","019cf9ba-391a-7c7b-96b9-3757895c469c","","null","
                <div class=""stimulus-container"">
                    <img src=""images/instructions/movie_2.png"" class=""exp-image"">
                    <div class=""question-area""></div> 
                </div>","null","","","","","","","","","",""
"","","","","","html-button-response","9","40738","0.0-9.0","DBFA2F62B5974D349D1F5851E372E824","019cf9df-fc9a-78b9-b8e2-bb9d0b928390","019cf9ba-391a-7c7b-96b9-3757895c469c","","null","
                <div class=""stimulus-container"">
                    <img src=""images/instructions/movie_2.png"" class=""exp-image"">
                    <div class=""question-area"">
                        <p style=""font-size: 20px; font-weight: bold; margin: 0;"">Was there a person in this image?</p>
                    </div>
                </div>","null","example_question","2","","","","","","","",""
"","","","","","html-keyboard-response","10","44745","0.0-10.0","DBFA2F62B5974D349D1F5851E372E824","019cf9df-fc9a-78b9-b8e2-bb9d0b928390","019cf9ba-391a-7c7b-96b9-3757895c469c","","null","
                <div class=""stimulus-container"">
                    <img src=""images/instructions/movie_3.png"" class=""exp-image"">
                    <div class=""question-area""></div> 
                </div>","null","","","","","","","","","",""
"","","","","","html-button-response","11","47747","0.0-11.0","DBFA2F62B5974D349D1F5851E372E824","019cf9df-fc9a-78b9-b8e2-bb9d0b928390","019cf9ba-391a-7c7b-96b9-3757895c469c","","null","
                <div class=""stimulus-container"">
                    <img src=""images/instructions/movie_3.png"" class=""exp-image"">
                    <div class=""question-area"">
                        <p style=""font-size: 20px; font-weight: bold; margin: 0;"">Was there a person in this image?</p>
                    </div>
                </div>","null","example_question","3","","","","","","","",""
"","","","","","html-keyboard-response","12","51749","0.0-12.0","DBFA2F62B5974D349D1F5851E372E824","019cf9df-fc9a-78b9-b8e2-bb9d0b928390","019cf9ba-391a-7c7b-96b9-3757895c469c","","null","
                <div class=""stimulus-container"">
                    <img src=""images/instructions/movie_4.png"" class=""exp-image"">
                    <div class=""question-area""></div> 
                </div>","null","","","","","","","","","",""
"","","","","","html-button-response","13","52225","0.0-13.0","DBFA2F62B5974D349D1F5851E372E824","019cf9df-fc9a-78b9-b8e2-bb9d0b928390","019cf9ba-391a-7c7b-96b9-3757895c469c","","475","
                <div class=""stimulus-container"">
                    <img src=""images/instructions/movie_4.png"" class=""exp-image"">
                    <div class=""question-area"">
                        <p style=""font-size: 20px; font-weight: bold; margin: 0;"">Was there a person in this image?</p>
                    </div>
                </div>","0","example_question","4","","","","","","","",""
"","","","","","instructions","14","54041","0.0-14.0","DBFA2F62B5974D349D1F5851E372E824","019cf9df-fc9a-78b9-b8e2-bb9d0b928390","019cf9ba-391a-7c7b-96b9-3757895c469c","[{""page_index"":0,""viewing_time"":1797}]","1797","","","","","","","","","","","",""
"","","","","","instructions","15","59241","0.0-15.0","DBFA2F62B5974D349D1F5851E372E824","019cf9df-fc9a-78b9-b8e2-bb9d0b928390","019cf9ba-391a-7c7b-96b9-3757895c469c","[{""page_index"":0,""viewing_time"":5199}]","5199","","","","","","","","","","","",""
"","","","","","html-keyboard-response","16","64249","0.0-16.0","DBFA2F62B5974D349D1F5851E372E824","019cf9df-fc9a-78b9-b8e2-bb9d0b928390","019cf9ba-391a-7c7b-96b9-3757895c469c","","null","<div style=""background-color: white; width: 100vw; height: 100vh;""></div>","null","","","","","","","","","",""
"","","","","","html-keyboard-response","17","65255","0.0-17.0","DBFA2F62B5974D349D1F5851E372E824","019cf9df-fc9a-78b9-b8e2-bb9d0b928390","019cf9ba-391a-7c7b-96b9-3757895c469c","","null","
                <div class=""stimulus-container"">
                    <img src=""images/semantic_sequence/visiting_cities_semantic/visiting_cities_semantic_9.png"" class=""exp-image"">
                    <div class=""question-area""></div> 
                </div>","null","","","","","","","","","",""
"","","","","","html-button-response","18","66418","0.0-18.0","DBFA2F62B5974D349D1F5851E372E824","019cf9df-fc9a-78b9-b8e2-bb9d0b928390","019cf9ba-391a-7c7b-96b9-3757895c469c","","1161","
                <div class=""stimulus-container"">
                    <img src=""images/semantic_sequence/visiting_cities_semantic/visiting_cities_semantic_9.png"" class=""exp-image"">
                    <div class=""question-area"">
                        <p style=""font-size: 20px; font-weight: bold; margin: 0;"">Is there a person in this image?</p>
                    </div>
                </div>","1","main_experiment_trial","9","visiting_cities_semantic","semantic_sequence","randomized","","","","",""
"","","","","","html-keyboard-response","19","67434","0.0-19.0","DBFA2F62B5974D349D1F5851E372E824","019cf9df-fc9a-78b9-b8e2-bb9d0b928390","019cf9ba-391a-7c7b-96b9-3757895c469c","","null","
                <div class=""stimulus-container"">
                    <img src=""images/semantic_sequence/visiting_cities_semantic/visiting_cities_semantic_8.png"" class=""exp-image"">
                    <div class=""question-area""></div> 
                </div>","null","","","","","","","","","",""
"","","","","","html-button-response","20","68129","0.0-20.0","DBFA2F62B5974D349D1F5851E372E824","019cf9df-fc9a-78b9-b8e2-bb9d0b928390","019cf9ba-391a-7c7b-96b9-3757895c469c","","694","
                <div class=""stimulus-container"">
                    <img src=""images/semantic_sequence/visiting_cities_semantic/visiting_cities_semantic_8.png"" class=""exp-image"">
                    <div class=""question-area"">
                        <p style=""font-size: 20px; font-weight: bold; margin: 0;"">Is there a person in this image?</p>
                    </div>
                </div>","1","main_experiment_trial","8","visiting_cities_semantic","semantic_sequence","randomized","","","","",""
"","","","","","html-keyboard-response","21","69132","0.0-21.0","DBFA2F62B5974D349D1F5851E372E824","019cf9df-fc9a-78b9-b8e2-bb9d0b928390","019cf9ba-391a-7c7b-96b9-3757895c469c","","null","
                <div class=""stimulus-container"">
                    <img src=""images/semantic_sequence/visiting_cities_semantic/visiting_cities_semantic_3.png"" class=""exp-image"">
                    <div class=""question-area""></div> 
                </div>","null","","","","","","","","","",""
"","","","","","html-button-response","22","69963","0.0-22.0","DBFA2F62B5974D349D1F5851E372E824","019cf9df-fc9a-78b9-b8e2-bb9d0b928390","019cf9ba-391a-7c7b-96b9-3757895c469c","","830","
                <div class=""stimulus-container"">
                    <img src=""images/semantic_sequence/visiting_cities_semantic/visiting_cities_semantic_3.png"" class=""exp-image"">
                    <div class=""question-area"">
                        <p style=""font-size: 20px; font-weight: bold; margin: 0;"">Is there a person in this image?</p>
                    </div>
                </div>","1","main_experiment_trial","3","visiting_cities_semantic","semantic_sequence","randomized","","","","",""
"","","","","","html-keyboard-response","23","70975","0.0-23.0","DBFA2F62B5974D349D1F5851E372E824","019cf9df-fc9a-78b9-b8e2-bb9d0b928390","019cf9ba-391a-7c7b-96b9-3757895c469c","","null","
                <div class=""stimulus-container"">
                    <img src=""images/semantic_sequence/visiting_cities_semantic/visiting_cities_semantic_6.png"" class=""exp-image"">
                    <div class=""question-area""></div> 
                </div>","null","","","","","","","","","",""
"","","","","","html-button-response","24","71882","0.0-24.0","DBFA2F62B5974D349D1F5851E372E824","019cf9df-fc9a-78b9-b8e2-bb9d0b928390","019cf9ba-391a-7c7b-96b9-3757895c469c","","905","
                <div class=""stimulus-container"">
                    <img src=""images/semantic_sequence/visiting_cities_semantic/visiting_cities_semantic_6.png"" class=""exp-image"">
                    <div class=""question-area"">
                        <p style=""font-size: 20px; font-weight: bold; margin: 0;"">Is there a person in this image?</p>
                    </div>
                </div>","1","main_experiment_trial","6","visiting_cities_semantic","semantic_sequence","randomized","","","","",""
"","","","","","html-keyboard-response","25","72884","0.0-25.0","DBFA2F62B5974D349D1F5851E372E824","019cf9df-fc9a-78b9-b8e2-bb9d0b928390","019cf9ba-391a-7c7b-96b9-3757895c469c","","null","
                <div class=""stimulus-container"">
                    <img src=""images/semantic_sequence/visiting_cities_semantic/visiting_cities_semantic_ten.png"" class=""exp-image"">
                    <div class=""question-area""></div> 
                </div>","null","","","","","","","","","",""
"","","","","","html-button-response","26","73321","0.0-26.0","DBFA2F62B5974D349D1F5851E372E824","019cf9df-fc9a-78b9-b8e2-bb9d0b928390","019cf9ba-391a-7c7b-96b9-3757895c469c","","436","
                <div class=""stimulus-container"">
                    <img src=""images/semantic_sequence/visiting_cities_semantic/visiting_cities_semantic_ten.png"" class=""exp-image"">
                    <div class=""question-area"">
                        <p style=""font-size: 20px; font-weight: bold; margin: 0;"">Is there a person in this image?</p>
                    </div>
                </div>","1","main_experiment_trial","ten","visiting_cities_semantic","semantic_sequence","randomized","","","","",""
"","","","","","html-keyboard-response","27","74323","0.0-27.0","DBFA2F62B5974D349D1F5851E372E824","019cf9df-fc9a-78b9-b8e2-bb9d0b928390","019cf9ba-391a-7c7b-96b9-3757895c469c","","null","
                <div class=""stimulus-container"">
                    <img src=""images/semantic_sequence/visiting_cities_semantic/visiting_cities_semantic_4.png"" class=""exp-image"">
                    <div class=""question-area""></div> 
                </div>","null","","","","","","","","","",""
"","","","","","html-button-response","28","74731","0.0-28.0","DBFA2F62B5974D349D1F5851E372E824","019cf9df-fc9a-78b9-b8e2-bb9d0b928390","019cf9ba-391a-7c7b-96b9-3757895c469c","","406","
                <div class=""stimulus-container"">
                    <img src=""images/semantic_sequence/visiting_cities_semantic/visiting_cities_semantic_4.png"" class=""exp-image"">
                    <div class=""question-area"">
                        <p style=""font-size: 20px; font-weight: bold; margin: 0;"">Is there a person in this image?</p>
                    </div>
                </div>","1","main_experiment_trial","4","visiting_cities_semantic","semantic_sequence","randomized","","","","",""
"","","","","","html-keyboard-response","29","75746","0.0-29.0","DBFA2F62B5974D349D1F5851E372E824","019cf9df-fc9a-78b9-b8e2-bb9d0b928390","019cf9ba-391a-7c7b-96b9-3757895c469c","","null","
                <div class=""stimulus-container"">
                    <img src=""images/semantic_sequence/visiting_cities_semantic/visiting_cities_semantic_5.png"" class=""exp-image"">
                    <div class=""question-area""></div> 
                </div>","null","","","","","","","","","",""
"","","","","","html-button-response","30","76161","0.0-30.0","DBFA2F62B5974D349D1F5851E372E824","019cf9df-fc9a-78b9-b8e2-bb9d0b928390","019cf9ba-391a-7c7b-96b9-3757895c469c","","414","
                <div class=""stimulus-container"">
                    <img src=""images/semantic_sequence/visiting_cities_semantic/visiting_cities_semantic_5.png"" class=""exp-image"">
                    <div class=""question-area"">
                        <p style=""font-size: 20px; font-weight: bold; margin: 0;"">Is there a person in this image?</p>
                    </div>
                </div>","1","main_experiment_trial","5","visiting_cities_semantic","semantic_sequence","randomized","","","","",""
"","","","","","html-keyboard-response","31","77163","0.0-31.0","DBFA2F62B5974D349D1F5851E372E824","019cf9df-fc9a-78b9-b8e2-bb9d0b928390","019cf9ba-391a-7c7b-96b9-3757895c469c","","null","
                <div class=""stimulus-container"">
                    <img src=""images/semantic_sequence/visiting_cities_semantic/visiting_cities_semantic_2.png"" class=""exp-image"">
                    <div class=""question-area""></div> 
                </div>","null","","","","","","","","","",""
"","","","","","html-button-response","32","77525","0.0-32.0","DBFA2F62B5974D349D1F5851E372E824","019cf9df-fc9a-78b9-b8e2-bb9d0b928390","019cf9ba-391a-7c7b-96b9-3757895c469c","","360","
                <div class=""stimulus-container"">
                    <img src=""images/semantic_sequence/visiting_cities_semantic/visiting_cities_semantic_2.png"" class=""exp-image"">
                    <div class=""question-area"">
                        <p style=""font-size: 20px; font-weight: bold; margin: 0;"">Is there a person in this image?</p>
                    </div>
                </div>","1","main_experiment_trial","2","visiting_cities_semantic","semantic_sequence","randomized","","","","",""
"","","","","","html-keyboard-response","33","78530","0.0-33.0","DBFA2F62B5974D349D1F5851E372E824","019cf9df-fc9a-78b9-b8e2-bb9d0b928390","019cf9ba-391a-7c7b-96b9-3757895c469c","","null","
                <div class=""stimulus-container"">
                    <img src=""images/semantic_sequence/visiting_cities_semantic/visiting_cities_semantic_1.png"" class=""exp-image"">
                    <div class=""question-area""></div> 
                </div>","null","","","","","","","","","",""
"","","","","","html-button-response","34","79626","0.0-34.0","DBFA2F62B5974D349D1F5851E372E824","019cf9df-fc9a-78b9-b8e2-bb9d0b928390","019cf9ba-391a-7c7b-96b9-3757895c469c","","1095","
                <div class=""stimulus-container"">
                    <img src=""images/semantic_sequence/visiting_cities_semantic/visiting_cities_semantic_1.png"" class=""exp-image"">
                    <div class=""question-area"">
                        <p style=""font-size: 20px; font-weight: bold; margin: 0;"">Is there a person in this image?</p>
                    </div>
                </div>","0","main_experiment_trial","1","visiting_cities_semantic","semantic_sequence","randomized","","","","",""
"","","","","","html-keyboard-response","35","80629","0.0-35.0","DBFA2F62B5974D349D1F5851E372E824","019cf9df-fc9a-78b9-b8e2-bb9d0b928390","019cf9ba-391a-7c7b-96b9-3757895c469c","","null","
                <div class=""stimulus-container"">
                    <img src=""images/semantic_sequence/visiting_cities_semantic/visiting_cities_semantic_7.png"" class=""exp-image"">
                    <div class=""question-area""></div> 
                </div>","null","","","","","","","","","",""
"","","","","","html-button-response","36","81340","0.0-36.0","DBFA2F62B5974D349D1F5851E372E824","019cf9df-fc9a-78b9-b8e2-bb9d0b928390","019cf9ba-391a-7c7b-96b9-3757895c469c","","710","
                <div class=""stimulus-container"">
                    <img src=""images/semantic_sequence/visiting_cities_semantic/visiting_cities_semantic_7.png"" class=""exp-image"">
                    <div class=""question-area"">
                        <p style=""font-size: 20px; font-weight: bold; margin: 0;"">Is there a person in this image?</p>
                    </div>
                </div>","1","main_experiment_trial","7","visiting_cities_semantic","semantic_sequence","randomized","","","","",""
"","","","","","html-keyboard-response","37","86350","0.0-37.0","DBFA2F62B5974D349D1F5851E372E824","019cf9df-fc9a-78b9-b8e2-bb9d0b928390","019cf9ba-391a-7c7b-96b9-3757895c469c","","null","<div style=""background-color: white; width: 100vw; height: 100vh;""></div>","null","","","","","","","","","",""
"","","","","","html-keyboard-response","38","87354","0.0-38.0","DBFA2F62B5974D349D1F5851E372E824","019cf9df-fc9a-78b9-b8e2-bb9d0b928390","019cf9ba-391a-7c7b-96b9-3757895c469c","","null","
                <div class=""stimulus-container"">
                    <img src=""images/causal_sequence/dog_causal/dog_causal_3.png"" class=""exp-image"">
                    <div class=""question-area""></div> 
                </div>","null","","","","","","","","","",""
"","","","","","html-button-response","39","88442","0.0-39.0","DBFA2F62B5974D349D1F5851E372E824","019cf9df-fc9a-78b9-b8e2-bb9d0b928390","019cf9ba-391a-7c7b-96b9-3757895c469c","","1087","
                <div class=""stimulus-container"">
                    <img src=""images/causal_sequence/dog_causal/dog_causal_3.png"" class=""exp-image"">
                    <div class=""question-area"">
                        <p style=""font-size: 20px; font-weight: bold; margin: 0;"">Is there a person in this image?</p>
                    </div>
                </div>","0","main_experiment_trial","3","dog_causal","causal_sequence","randomized","","","","",""
"","","","","","html-keyboard-response","40","89454","0.0-40.0","DBFA2F62B5974D349D1F5851E372E824","019cf9df-fc9a-78b9-b8e2-bb9d0b928390","019cf9ba-391a-7c7b-96b9-3757895c469c","","null","
                <div class=""stimulus-container"">
                    <img src=""images/causal_sequence/dog_causal/dog_causal_8.png"" class=""exp-image"">
                    <div class=""question-area""></div> 
                </div>","null","","","","","","","","","",""
"","","","","","html-button-response","41","89884","0.0-41.0","DBFA2F62B5974D349D1F5851E372E824","019cf9df-fc9a-78b9-b8e2-bb9d0b928390","019cf9ba-391a-7c7b-96b9-3757895c469c","","429","
                <div class=""stimulus-container"">
                    <img src=""images/causal_sequence/dog_causal/dog_causal_8.png"" class=""exp-image"">
                    <div class=""question-area"">
                        <p style=""font-size: 20px; font-weight: bold; margin: 0;"">Is there a person in this image?</p>
                    </div>
                </div>","0","main_experiment_trial","8","dog_causal","causal_sequence","randomized","","","","",""
"","","","","","html-keyboard-response","42","90895","0.0-42.0","DBFA2F62B5974D349D1F5851E372E824","019cf9df-fc9a-78b9-b8e2-bb9d0b928390","019cf9ba-391a-7c7b-96b9-3757895c469c","","null","
                <div class=""stimulus-container"">
                    <img src=""images/causal_sequence/dog_causal/dog_causal_5.png"" class=""exp-image"">
                    <div class=""question-area""></div> 
                </div>","null","","","","","","","","","",""
"","","","","","html-button-response","43","91468","0.0-43.0","DBFA2F62B5974D349D1F5851E372E824","019cf9df-fc9a-78b9-b8e2-bb9d0b928390","019cf9ba-391a-7c7b-96b9-3757895c469c","","572","
                <div class=""stimulus-container"">
                    <img src=""images/causal_sequence/dog_causal/dog_causal_5.png"" class=""exp-image"">
                    <div class=""question-area"">
                        <p style=""font-size: 20px; font-weight: bold; margin: 0;"">Is there a person in this image?</p>
                    </div>
                </div>","0","main_experiment_trial","5","dog_causal","causal_sequence","randomized","","","","",""
"","","","","","html-keyboard-response","44","92475","0.0-44.0","DBFA2F62B5974D349D1F5851E372E824","019cf9df-fc9a-78b9-b8e2-bb9d0b928390","019cf9ba-391a-7c7b-96b9-3757895c469c","","null","
                <div class=""stimulus-container"">
                    <img src=""images/causal_sequence/dog_causal/dog_causal_ten.png"" class=""exp-image"">
                    <div class=""question-area""></div> 
                </div>","null","","","","","","","","","",""
"","","","","","html-button-response","45","92802","0.0-45.0","DBFA2F62B5974D349D1F5851E372E824","019cf9df-fc9a-78b9-b8e2-bb9d0b928390","019cf9ba-391a-7c7b-96b9-3757895c469c","","325","
                <div class=""stimulus-container"">
                    <img src=""images/causal_sequence/dog_causal/dog_causal_ten.png"" class=""exp-image"">
                    <div class=""question-area"">
                        <p style=""font-size: 20px; font-weight: bold; margin: 0;"">Is there a person in this image?</p>
                    </div>
                </div>","0","main_experiment_trial","ten","dog_causal","causal_sequence","randomized","","","","",""
"","","","","","html-keyboard-response","46","93806","0.0-46.0","DBFA2F62B5974D349D1F5851E372E824","019cf9df-fc9a-78b9-b8e2-bb9d0b928390","019cf9ba-391a-7c7b-96b9-3757895c469c","","null","
                <div class=""stimulus-container"">
                    <img src=""images/causal_sequence/dog_causal/dog_causal_2.png"" class=""exp-image"">
                    <div class=""question-area""></div> 
                </div>","null","","","","","","","","","",""
"","","","","","html-button-response","47","94170","0.0-47.0","DBFA2F62B5974D349D1F5851E372E824","019cf9df-fc9a-78b9-b8e2-bb9d0b928390","019cf9ba-391a-7c7b-96b9-3757895c469c","","363","
                <div class=""stimulus-container"">
                    <img src=""images/causal_sequence/dog_causal/dog_causal_2.png"" class=""exp-image"">
                    <div class=""question-area"">
                        <p style=""font-size: 20px; font-weight: bold; margin: 0;"">Is there a person in this image?</p>
                    </div>
                </div>","0","main_experiment_trial","2","dog_causal","causal_sequence","randomized","","","","",""
"","","","","","html-keyboard-response","48","95174","0.0-48.0","DBFA2F62B5974D349D1F5851E372E824","019cf9df-fc9a-78b9-b8e2-bb9d0b928390","019cf9ba-391a-7c7b-96b9-3757895c469c","","null","
                <div class=""stimulus-container"">
                    <img src=""images/causal_sequence/dog_causal/dog_causal_6.png"" class=""exp-image"">
                    <div class=""question-area""></div> 
                </div>","null","","","","","","","","","",""
"","","","","","html-button-response","49","95594","0.0-49.0","DBFA2F62B5974D349D1F5851E372E824","019cf9df-fc9a-78b9-b8e2-bb9d0b928390","019cf9ba-391a-7c7b-96b9-3757895c469c","","419","
                <div class=""stimulus-container"">
                    <img src=""images/causal_sequence/dog_causal/dog_causal_6.png"" class=""exp-image"">
                    <div class=""question-area"">
                        <p style=""font-size: 20px; font-weight: bold; margin: 0;"">Is there a person in this image?</p>
                    </div>
                </div>","0","main_experiment_trial","6","dog_causal","causal_sequence","randomized","","","","",""
"","","","","","html-keyboard-response","50","96609","0.0-50.0","DBFA2F62B5974D349D1F5851E372E824","019cf9df-fc9a-78b9-b8e2-bb9d0b928390","019cf9ba-391a-7c7b-96b9-3757895c469c","","null","
                <div class=""stimulus-container"">
                    <img src=""images/causal_sequence/dog_causal/dog_causal_1.png"" class=""exp-image"">
                    <div class=""question-area""></div> 
                </div>","null","","","","","","","","","",""
"","","","","","html-button-response","51","96931","0.0-51.0","DBFA2F62B5974D349D1F5851E372E824","019cf9df-fc9a-78b9-b8e2-bb9d0b928390","019cf9ba-391a-7c7b-96b9-3757895c469c","","321","
                <div class=""stimulus-container"">
                    <img src=""images/causal_sequence/dog_causal/dog_causal_1.png"" class=""exp-image"">
                    <div class=""question-area"">
                        <p style=""font-size: 20px; font-weight: bold; margin: 0;"">Is there a person in this image?</p>
                    </div>
                </div>","0","main_experiment_trial","1","dog_causal","causal_sequence","randomized","","","","",""
"","","","","","html-keyboard-response","52","97945","0.0-52.0","DBFA2F62B5974D349D1F5851E372E824","019cf9df-fc9a-78b9-b8e2-bb9d0b928390","019cf9ba-391a-7c7b-96b9-3757895c469c","","null","
                <div class=""stimulus-container"">
                    <img src=""images/causal_sequence/dog_causal/dog_causal_9.png"" class=""exp-image"">
                    <div class=""question-area""></div> 
                </div>","null","","","","","","","","","",""
"","","","","","html-button-response","53","98396","0.0-53.0","DBFA2F62B5974D349D1F5851E372E824","019cf9df-fc9a-78b9-b8e2-bb9d0b928390","019cf9ba-391a-7c7b-96b9-3757895c469c","","451","
                <div class=""stimulus-container"">
                    <img src=""images/causal_sequence/dog_causal/dog_causal_9.png"" class=""exp-image"">
                    <div class=""question-area"">
                        <p style=""font-size: 20px; font-weight: bold; margin: 0;"">Is there a person in this image?</p>
                    </div>
                </div>","0","main_experiment_trial","9","dog_causal","causal_sequence","randomized","","","","",""
"","","","","","html-keyboard-response","54","99408","0.0-54.0","DBFA2F62B5974D349D1F5851E372E824","019cf9df-fc9a-78b9-b8e2-bb9d0b928390","019cf9ba-391a-7c7b-96b9-3757895c469c","","null","
                <div class=""stimulus-container"">
                    <img src=""images/causal_sequence/dog_causal/dog_causal_7.png"" class=""exp-image"">
                    <div class=""question-area""></div> 
                </div>","null","","","","","","","","","",""
"","","","","","html-button-response","55","99698","0.0-55.0","DBFA2F62B5974D349D1F5851E372E824","019cf9df-fc9a-78b9-b8e2-bb9d0b928390","019cf9ba-391a-7c7b-96b9-3757895c469c","","289","
                <div class=""stimulus-container"">
                    <img src=""images/causal_sequence/dog_causal/dog_causal_7.png"" class=""exp-image"">
                    <div class=""question-area"">
                        <p style=""font-size: 20px; font-weight: bold; margin: 0;"">Is there a person in this image?</p>
                    </div>
                </div>","0","main_experiment_trial","7","dog_causal","causal_sequence","randomized","","","","",""
"","","","","","html-keyboard-response","56","100703","0.0-56.0","DBFA2F62B5974D349D1F5851E372E824","019cf9df-fc9a-78b9-b8e2-bb9d0b928390","019cf9ba-391a-7c7b-96b9-3757895c469c","","null","
                <div class=""stimulus-container"">
                    <img src=""images/causal_sequence/dog_causal/dog_causal_4.png"" class=""exp-image"">
                    <div class=""question-area""></div> 
                </div>","null","","","","","","","","","",""
"","","","","","html-button-response","57","100914","0.0-57.0","DBFA2F62B5974D349D1F5851E372E824","019cf9df-fc9a-78b9-b8e2-bb9d0b928390","019cf9ba-391a-7c7b-96b9-3757895c469c","","210","
                <div class=""stimulus-container"">
                    <img src=""images/causal_sequence/dog_causal/dog_causal_4.png"" class=""exp-image"">
                    <div class=""question-area"">
                        <p style=""font-size: 20px; font-weight: bold; margin: 0;"">Is there a person in this image?</p>
                    </div>
                </div>","0","main_experiment_trial","4","dog_causal","causal_sequence","randomized","","","","",""
"","","","","","html-keyboard-response","58","105924","0.0-58.0","DBFA2F62B5974D349D1F5851E372E824","019cf9df-fc9a-78b9-b8e2-bb9d0b928390","019cf9ba-391a-7c7b-96b9-3757895c469c","","null","<div style=""background-color: white; width: 100vw; height: 100vh;""></div>","null","","","","","","","","","",""
"","","","","","html-keyboard-response","59","106926","0.0-59.0","DBFA2F62B5974D349D1F5851E372E824","019cf9df-fc9a-78b9-b8e2-bb9d0b928390","019cf9ba-391a-7c7b-96b9-3757895c469c","","null","
                <div class=""stimulus-container"">
                    <img src=""images/semantic_sequence/exploring_nature_semantic/exploring_nature_semantic_1.png"" class=""exp-image"">
                    <div class=""question-area""></div> 
                </div>","null","","","","","","","","","",""
"","","","","","html-button-response","60","107418","0.0-60.0","DBFA2F62B5974D349D1F5851E372E824","019cf9df-fc9a-78b9-b8e2-bb9d0b928390","019cf9ba-391a-7c7b-96b9-3757895c469c","","491","
                <div class=""stimulus-container"">
                    <img src=""images/semantic_sequence/exploring_nature_semantic/exploring_nature_semantic_1.png"" class=""exp-image"">
                    <div class=""question-area"">
                        <p style=""font-size: 20px; font-weight: bold; margin: 0;"">Is there a person in this image?</p>
                    </div>
                </div>","0","main_experiment_trial","1","exploring_nature_semantic","semantic_sequence","randomized","","","","",""
"","","","","","html-keyboard-response","61","108420","0.0-61.0","DBFA2F62B5974D349D1F5851E372E824","019cf9df-fc9a-78b9-b8e2-bb9d0b928390","019cf9ba-391a-7c7b-96b9-3757895c469c","","null","
                <div class=""stimulus-container"">
                    <img src=""images/semantic_sequence/exploring_nature_semantic/exploring_nature_semantic_6.png"" class=""exp-image"">
                    <div class=""question-area""></div> 
                </div>","null","","","","","","","","","",""
"","","","","","html-button-response","62","108786","0.0-62.0","DBFA2F62B5974D349D1F5851E372E824","019cf9df-fc9a-78b9-b8e2-bb9d0b928390","019cf9ba-391a-7c7b-96b9-3757895c469c","","365","
                <div class=""stimulus-container"">
                    <img src=""images/semantic_sequence/exploring_nature_semantic/exploring_nature_semantic_6.png"" class=""exp-image"">
                    <div class=""question-area"">
                        <p style=""font-size: 20px; font-weight: bold; margin: 0;"">Is there a person in this image?</p>
                    </div>
                </div>","0","main_experiment_trial","6","exploring_nature_semantic","semantic_sequence","randomized","","","","",""
"","","","","","html-keyboard-response","63","109798","0.0-63.0","DBFA2F62B5974D349D1F5851E372E824","019cf9df-fc9a-78b9-b8e2-bb9d0b928390","019cf9ba-391a-7c7b-96b9-3757895c469c","","null","
                <div class=""stimulus-container"">
                    <img src=""images/semantic_sequence/exploring_nature_semantic/exploring_nature_semantic_ten.png"" class=""exp-image"">
                    <div class=""question-area""></div> 
                </div>","null","","","","","","","","","",""
"","","","","","html-button-response","64","110141","0.0-64.0","DBFA2F62B5974D349D1F5851E372E824","019cf9df-fc9a-78b9-b8e2-bb9d0b928390","019cf9ba-391a-7c7b-96b9-3757895c469c","","342","
                <div class=""stimulus-container"">
                    <img src=""images/semantic_sequence/exploring_nature_semantic/exploring_nature_semantic_ten.png"" class=""exp-image"">
                    <div class=""question-area"">
                        <p style=""font-size: 20px; font-weight: bold; margin: 0;"">Is there a person in this image?</p>
                    </div>
                </div>","0","main_experiment_trial","ten","exploring_nature_semantic","semantic_sequence","randomized","","","","",""
"","","","","","html-keyboard-response","65","111155","0.0-65.0","DBFA2F62B5974D349D1F5851E372E824","019cf9df-fc9a-78b9-b8e2-bb9d0b928390","019cf9ba-391a-7c7b-96b9-3757895c469c","","null","
                <div class=""stimulus-container"">
                    <img src=""images/semantic_sequence/exploring_nature_semantic/exploring_nature_semantic_5.png"" class=""exp-image"">
                    <div class=""question-area""></div> 
                </div>","null","","","","","","","","","",""
"","","","","","html-button-response","66","111467","0.0-66.0","DBFA2F62B5974D349D1F5851E372E824","019cf9df-fc9a-78b9-b8e2-bb9d0b928390","019cf9ba-391a-7c7b-96b9-3757895c469c","","310","
                <div class=""stimulus-container"">
                    <img src=""images/semantic_sequence/exploring_nature_semantic/exploring_nature_semantic_5.png"" class=""exp-image"">
                    <div class=""question-area"">
                        <p style=""font-size: 20px; font-weight: bold; margin: 0;"">Is there a person in this image?</p>
                    </div>
                </div>","0","main_experiment_trial","5","exploring_nature_semantic","semantic_sequence","randomized","","","","",""
"","","","","","html-keyboard-response","67","112475","0.0-67.0","DBFA2F62B5974D349D1F5851E372E824","019cf9df-fc9a-78b9-b8e2-bb9d0b928390","019cf9ba-391a-7c7b-96b9-3757895c469c","","null","
                <div class=""stimulus-container"">
                    <img src=""images/semantic_sequence/exploring_nature_semantic/exploring_nature_semantic_3.png"" class=""exp-image"">
                    <div class=""question-area""></div> 
                </div>","null","","","","","","","","","",""
"","","","","","html-button-response","68","112807","0.0-68.0","DBFA2F62B5974D349D1F5851E372E824","019cf9df-fc9a-78b9-b8e2-bb9d0b928390","019cf9ba-391a-7c7b-96b9-3757895c469c","","331","
                <div class=""stimulus-container"">
                    <img src=""images/semantic_sequence/exploring_nature_semantic/exploring_nature_semantic_3.png"" class=""exp-image"">
                    <div class=""question-area"">
                        <p style=""font-size: 20px; font-weight: bold; margin: 0;"">Is there a person in this image?</p>
                    </div>
                </div>","0","main_experiment_trial","3","exploring_nature_semantic","semantic_sequence","randomized","","","","",""
"","","","","","html-keyboard-response","69","113811","0.0-69.0","DBFA2F62B5974D349D1F5851E372E824","019cf9df-fc9a-78b9-b8e2-bb9d0b928390","019cf9ba-391a-7c7b-96b9-3757895c469c","","null","
                <div class=""stimulus-container"">
                    <img src=""images/semantic_sequence/exploring_nature_semantic/exploring_nature_semantic_9.png"" class=""exp-image"">
                    <div class=""question-area""></div> 
                </div>","null","","","","","","","","","",""
"","","","","","html-button-response","70","114140","0.0-70.0","DBFA2F62B5974D349D1F5851E372E824","019cf9df-fc9a-78b9-b8e2-bb9d0b928390","019cf9ba-391a-7c7b-96b9-3757895c469c","","327","
                <div class=""stimulus-container"">
                    <img src=""images/semantic_sequence/exploring_nature_semantic/exploring_nature_semantic_9.png"" class=""exp-image"">
                    <div class=""question-area"">
                        <p style=""font-size: 20px; font-weight: bold; margin: 0;"">Is there a person in this image?</p>
                    </div>
                </div>","0","main_experiment_trial","9","exploring_nature_semantic","semantic_sequence","randomized","","","","",""
"","","","","","html-keyboard-response","71","115149","0.0-71.0","DBFA2F62B5974D349D1F5851E372E824","019cf9df-fc9a-78b9-b8e2-bb9d0b928390","019cf9ba-391a-7c7b-96b9-3757895c469c","","null","
                <div class=""stimulus-container"">
                    <img src=""images/semantic_sequence/exploring_nature_semantic/exploring_nature_semantic_7.png"" class=""exp-image"">
                    <div class=""question-area""></div> 
                </div>","null","","","","","","","","","",""
"","","","","","html-button-response","72","115507","0.0-72.0","DBFA2F62B5974D349D1F5851E372E824","019cf9df-fc9a-78b9-b8e2-bb9d0b928390","019cf9ba-391a-7c7b-96b9-3757895c469c","","357","
                <div class=""stimulus-container"">
                    <img src=""images/semantic_sequence/exploring_nature_semantic/exploring_nature_semantic_7.png"" class=""exp-image"">
                    <div class=""question-area"">
                        <p style=""font-size: 20px; font-weight: bold; margin: 0;"">Is there a person in this image?</p>
                    </div>
                </div>","0","main_experiment_trial","7","exploring_nature_semantic","semantic_sequence","randomized","","","","",""
"","","","","","html-keyboard-response","73","116516","0.0-73.0","DBFA2F62B5974D349D1F5851E372E824","019cf9df-fc9a-78b9-b8e2-bb9d0b928390","019cf9ba-391a-7c7b-96b9-3757895c469c","","null","
                <div class=""stimulus-container"">
                    <img src=""images/semantic_sequence/exploring_nature_semantic/exploring_nature_semantic_4.png"" class=""exp-image"">
                    <div class=""question-area""></div> 
                </div>","null","","","","","","","","","",""
"","","","","","html-button-response","74","116842","0.0-74.0","DBFA2F62B5974D349D1F5851E372E824","019cf9df-fc9a-78b9-b8e2-bb9d0b928390","019cf9ba-391a-7c7b-96b9-3757895c469c","","325","
                <div class=""stimulus-container"">
                    <img src=""images/semantic_sequence/exploring_nature_semantic/exploring_nature_semantic_4.png"" class=""exp-image"">
                    <div class=""question-area"">
                        <p style=""font-size: 20px; font-weight: bold; margin: 0;"">Is there a person in this image?</p>
                    </div>
                </div>","0","main_experiment_trial","4","exploring_nature_semantic","semantic_sequence","randomized","","","","",""
"","","","","","html-keyboard-response","75","117844","0.0-75.0","DBFA2F62B5974D349D1F5851E372E824","019cf9df-fc9a-78b9-b8e2-bb9d0b928390","019cf9ba-391a-7c7b-96b9-3757895c469c","","null","
                <div class=""stimulus-container"">
                    <img src=""images/semantic_sequence/exploring_nature_semantic/exploring_nature_semantic_8.png"" class=""exp-image"">
                    <div class=""question-area""></div> 
                </div>","null","","","","","","","","","",""
"","","","","","html-button-response","76","118084","0.0-76.0","DBFA2F62B5974D349D1F5851E372E824","019cf9df-fc9a-78b9-b8e2-bb9d0b928390","019cf9ba-391a-7c7b-96b9-3757895c469c","","239","
                <div class=""stimulus-container"">
                    <img src=""images/semantic_sequence/exploring_nature_semantic/exploring_nature_semantic_8.png"" class=""exp-image"">
                    <div class=""question-area"">
                        <p style=""font-size: 20px; font-weight: bold; margin: 0;"">Is there a person in this image?</p>
                    </div>
                </div>","0","main_experiment_trial","8","exploring_nature_semantic","semantic_sequence","randomized","","","","",""
"","","","","","html-keyboard-response","77","119086","0.0-77.0","DBFA2F62B5974D349D1F5851E372E824","019cf9df-fc9a-78b9-b8e2-bb9d0b928390","019cf9ba-391a-7c7b-96b9-3757895c469c","","null","
                <div class=""stimulus-container"">
                    <img src=""images/semantic_sequence/exploring_nature_semantic/exploring_nature_semantic_2.png"" class=""exp-image"">
                    <div class=""question-area""></div> 
                </div>","null","","","","","","","","","",""
"","","","","","html-button-response","78","119669","0.0-78.0","DBFA2F62B5974D349D1F5851E372E824","019cf9df-fc9a-78b9-b8e2-bb9d0b928390","019cf9ba-391a-7c7b-96b9-3757895c469c","","582","
                <div class=""stimulus-container"">
                    <img src=""images/semantic_sequence/exploring_nature_semantic/exploring_nature_semantic_2.png"" class=""exp-image"">
                    <div class=""question-area"">
                        <p style=""font-size: 20px; font-weight: bold; margin: 0;"">Is there a person in this image?</p>
                    </div>
                </div>","0","main_experiment_trial","2","exploring_nature_semantic","semantic_sequence","randomized","","","","",""
"","","","","","html-keyboard-response","79","124681","0.0-79.0","DBFA2F62B5974D349D1F5851E372E824","019cf9df-fc9a-78b9-b8e2-bb9d0b928390","019cf9ba-391a-7c7b-96b9-3757895c469c","","null","<div style=""background-color: white; width: 100vw; height: 100vh;""></div>","null","","","","","","","","","",""
"","","","","","html-keyboard-response","80","125694","0.0-80.0","DBFA2F62B5974D349D1F5851E372E824","019cf9df-fc9a-78b9-b8e2-bb9d0b928390","019cf9ba-391a-7c7b-96b9-3757895c469c","","null","
                <div class=""stimulus-container"">
                    <img src=""images/semantic_sequence/kitchen_operations_semantic/kitchen_operations_semantic_3.png"" class=""exp-image"">
                    <div class=""question-area""></div> 
                </div>","null","","","","","","","","","",""
"","","","","","html-button-response","81","126059","0.0-81.0","DBFA2F62B5974D349D1F5851E372E824","019cf9df-fc9a-78b9-b8e2-bb9d0b928390","019cf9ba-391a-7c7b-96b9-3757895c469c","","364","
                <div class=""stimulus-container"">
                    <img src=""images/semantic_sequence/kitchen_operations_semantic/kitchen_operations_semantic_3.png"" class=""exp-image"">
                    <div class=""question-area"">
                        <p style=""font-size: 20px; font-weight: bold; margin: 0;"">Is there a person in this image?</p>
                    </div>
                </div>","0","main_experiment_trial","3","kitchen_operations_semantic","semantic_sequence","randomized","","","","",""
"","","","","","html-keyboard-response","82","127068","0.0-82.0","DBFA2F62B5974D349D1F5851E372E824","019cf9df-fc9a-78b9-b8e2-bb9d0b928390","019cf9ba-391a-7c7b-96b9-3757895c469c","","null","
                <div class=""stimulus-container"">
                    <img src=""images/semantic_sequence/kitchen_operations_semantic/kitchen_operations_semantic_7.png"" class=""exp-image"">
                    <div class=""question-area""></div> 
                </div>","null","","","","","","","","","",""
"","","","","","html-button-response","83","127316","0.0-83.0","DBFA2F62B5974D349D1F5851E372E824","019cf9df-fc9a-78b9-b8e2-bb9d0b928390","019cf9ba-391a-7c7b-96b9-3757895c469c","","247","
                <div class=""stimulus-container"">
                    <img src=""images/semantic_sequence/kitchen_operations_semantic/kitchen_operations_semantic_7.png"" class=""exp-image"">
                    <div class=""question-area"">
                        <p style=""font-size: 20px; font-weight: bold; margin: 0;"">Is there a person in this image?</p>
                    </div>
                </div>","0","main_experiment_trial","7","kitchen_operations_semantic","semantic_sequence","randomized","","","","",""
"","","","","","html-keyboard-response","84","128319","0.0-84.0","DBFA2F62B5974D349D1F5851E372E824","019cf9df-fc9a-78b9-b8e2-bb9d0b928390","019cf9ba-391a-7c7b-96b9-3757895c469c","","null","
                <div class=""stimulus-container"">
                    <img src=""images/semantic_sequence/kitchen_operations_semantic/kitchen_operations_semantic_ten.png"" class=""exp-image"">
                    <div class=""question-area""></div> 
                </div>","null","","","","","","","","","",""
"","","","","","html-button-response","85","128723","0.0-85.0","DBFA2F62B5974D349D1F5851E372E824","019cf9df-fc9a-78b9-b8e2-bb9d0b928390","019cf9ba-391a-7c7b-96b9-3757895c469c","","403","
                <div class=""stimulus-container"">
                    <img src=""images/semantic_sequence/kitchen_operations_semantic/kitchen_operations_semantic_ten.png"" class=""exp-image"">
                    <div class=""question-area"">
                        <p style=""font-size: 20px; font-weight: bold; margin: 0;"">Is there a person in this image?</p>
                    </div>
                </div>","0","main_experiment_trial","ten","kitchen_operations_semantic","semantic_sequence","randomized","","","","",""
"","","","","","html-keyboard-response","86","129737","0.0-86.0","DBFA2F62B5974D349D1F5851E372E824","019cf9df-fc9a-78b9-b8e2-bb9d0b928390","019cf9ba-391a-7c7b-96b9-3757895c469c","","null","
                <div class=""stimulus-container"">
                    <img src=""images/semantic_sequence/kitchen_operations_semantic/kitchen_operations_semantic_8.png"" class=""exp-image"">
                    <div class=""question-area""></div> 
                </div>","null","","","","","","","","","",""
"","","","","","html-button-response","87","129987","0.0-87.0","DBFA2F62B5974D349D1F5851E372E824","019cf9df-fc9a-78b9-b8e2-bb9d0b928390","019cf9ba-391a-7c7b-96b9-3757895c469c","","249","
                <div class=""stimulus-container"">
                    <img src=""images/semantic_sequence/kitchen_operations_semantic/kitchen_operations_semantic_8.png"" class=""exp-image"">
                    <div class=""question-area"">
                        <p style=""font-size: 20px; font-weight: bold; margin: 0;"">Is there a person in this image?</p>
                    </div>
                </div>","0","main_experiment_trial","8","kitchen_operations_semantic","semantic_sequence","randomized","","","","",""
"","","","","","html-keyboard-response","88","131002","0.0-88.0","DBFA2F62B5974D349D1F5851E372E824","019cf9df-fc9a-78b9-b8e2-bb9d0b928390","019cf9ba-391a-7c7b-96b9-3757895c469c","","null","
                <div class=""stimulus-container"">
                    <img src=""images/semantic_sequence/kitchen_operations_semantic/kitchen_operations_semantic_2.png"" class=""exp-image"">
                    <div class=""question-area""></div> 
                </div>","null","","","","","","","","","",""
"","","","","","html-button-response","89","131253","0.0-89.0","DBFA2F62B5974D349D1F5851E372E824","019cf9df-fc9a-78b9-b8e2-bb9d0b928390","019cf9ba-391a-7c7b-96b9-3757895c469c","","250","
                <div class=""stimulus-container"">
                    <img src=""images/semantic_sequence/kitchen_operations_semantic/kitchen_operations_semantic_2.png"" class=""exp-image"">
                    <div class=""question-area"">
                        <p style=""font-size: 20px; font-weight: bold; margin: 0;"">Is there a person in this image?</p>
                    </div>
                </div>","0","main_experiment_trial","2","kitchen_operations_semantic","semantic_sequence","randomized","","","","",""
"","","","","","html-keyboard-response","90","132264","0.0-90.0","DBFA2F62B5974D349D1F5851E372E824","019cf9df-fc9a-78b9-b8e2-bb9d0b928390","019cf9ba-391a-7c7b-96b9-3757895c469c","","null","
                <div class=""stimulus-container"">
                    <img src=""images/semantic_sequence/kitchen_operations_semantic/kitchen_operations_semantic_5.png"" class=""exp-image"">
                    <div class=""question-area""></div> 
                </div>","null","","","","","","","","","",""
"","","","","","html-button-response","91","132483","0.0-91.0","DBFA2F62B5974D349D1F5851E372E824","019cf9df-fc9a-78b9-b8e2-bb9d0b928390","019cf9ba-391a-7c7b-96b9-3757895c469c","","218","
                <div class=""stimulus-container"">
                    <img src=""images/semantic_sequence/kitchen_operations_semantic/kitchen_operations_semantic_5.png"" class=""exp-image"">
                    <div class=""question-area"">
                        <p style=""font-size: 20px; font-weight: bold; margin: 0;"">Is there a person in this image?</p>
                    </div>
                </div>","0","main_experiment_trial","5","kitchen_operations_semantic","semantic_sequence","randomized","","","","",""
"","","","","","html-keyboard-response","92","133493","0.0-92.0","DBFA2F62B5974D349D1F5851E372E824","019cf9df-fc9a-78b9-b8e2-bb9d0b928390","019cf9ba-391a-7c7b-96b9-3757895c469c","","null","
                <div class=""stimulus-container"">
                    <img src=""images/semantic_sequence/kitchen_operations_semantic/kitchen_operations_semantic_6.png"" class=""exp-image"">
                    <div class=""question-area""></div> 
                </div>","null","","","","","","","","","",""
"","","","","","html-button-response","93","133731","0.0-93.0","DBFA2F62B5974D349D1F5851E372E824","019cf9df-fc9a-78b9-b8e2-bb9d0b928390","019cf9ba-391a-7c7b-96b9-3757895c469c","","237","
                <div class=""stimulus-container"">
                    <img src=""images/semantic_sequence/kitchen_operations_semantic/kitchen_operations_semantic_6.png"" class=""exp-image"">
                    <div class=""question-area"">
                        <p style=""font-size: 20px; font-weight: bold; margin: 0;"">Is there a person in this image?</p>
                    </div>
                </div>","0","main_experiment_trial","6","kitchen_operations_semantic","semantic_sequence","randomized","","","","",""
"","","","","","html-keyboard-response","94","134740","0.0-94.0","DBFA2F62B5974D349D1F5851E372E824","019cf9df-fc9a-78b9-b8e2-bb9d0b928390","019cf9ba-391a-7c7b-96b9-3757895c469c","","null","
                <div class=""stimulus-container"">
                    <img src=""images/semantic_sequence/kitchen_operations_semantic/kitchen_operations_semantic_1.png"" class=""exp-image"">
                    <div class=""question-area""></div> 
                </div>","null","","","","","","","","","",""
"","","","","","html-button-response","95","134987","0.0-95.0","DBFA2F62B5974D349D1F5851E372E824","019cf9df-fc9a-78b9-b8e2-bb9d0b928390","019cf9ba-391a-7c7b-96b9-3757895c469c","","246","
                <div class=""stimulus-container"">
                    <img src=""images/semantic_sequence/kitchen_operations_semantic/kitchen_operations_semantic_1.png"" class=""exp-image"">
                    <div class=""question-area"">
                        <p style=""font-size: 20px; font-weight: bold; margin: 0;"">Is there a person in this image?</p>
                    </div>
                </div>","0","main_experiment_trial","1","kitchen_operations_semantic","semantic_sequence","randomized","","","","",""
"","","","","","html-keyboard-response","96","136004","0.0-96.0","DBFA2F62B5974D349D1F5851E372E824","019cf9df-fc9a-78b9-b8e2-bb9d0b928390","019cf9ba-391a-7c7b-96b9-3757895c469c","","null","
                <div class=""stimulus-container"">
                    <img src=""images/semantic_sequence/kitchen_operations_semantic/kitchen_operations_semantic_9.png"" class=""exp-image"">
                    <div class=""question-area""></div> 
                </div>","null","","","","","","","","","",""
"","","","","","html-button-response","97","136323","0.0-97.0","DBFA2F62B5974D349D1F5851E372E824","019cf9df-fc9a-78b9-b8e2-bb9d0b928390","019cf9ba-391a-7c7b-96b9-3757895c469c","","318","
                <div class=""stimulus-container"">
                    <img src=""images/semantic_sequence/kitchen_operations_semantic/kitchen_operations_semantic_9.png"" class=""exp-image"">
                    <div class=""question-area"">
                        <p style=""font-size: 20px; font-weight: bold; margin: 0;"">Is there a person in this image?</p>
                    </div>
                </div>","0","main_experiment_trial","9","kitchen_operations_semantic","semantic_sequence","randomized","","","","",""
"","","","","","html-keyboard-response","98","137330","0.0-98.0","DBFA2F62B5974D349D1F5851E372E824","019cf9df-fc9a-78b9-b8e2-bb9d0b928390","019cf9ba-391a-7c7b-96b9-3757895c469c","","null","
                <div class=""stimulus-container"">
                    <img src=""images/semantic_sequence/kitchen_operations_semantic/kitchen_operations_semantic_4.png"" class=""exp-image"">
                    <div class=""question-area""></div> 
                </div>","null","","","","","","","","","",""
"","","","","","html-button-response","99","137579","0.0-99.0","DBFA2F62B5974D349D1F5851E372E824","019cf9df-fc9a-78b9-b8e2-bb9d0b928390","019cf9ba-391a-7c7b-96b9-3757895c469c","","248","
                <div class=""stimulus-container"">
                    <img src=""images/semantic_sequence/kitchen_operations_semantic/kitchen_operations_semantic_4.png"" class=""exp-image"">
                    <div class=""question-area"">
                        <p style=""font-size: 20px; font-weight: bold; margin: 0;"">Is there a person in this image?</p>
                    </div>
                </div>","0","main_experiment_trial","4","kitchen_operations_semantic","semantic_sequence","randomized","","","","",""
"","","","","","html-keyboard-response","100","142584","0.0-100.0","DBFA2F62B5974D349D1F5851E372E824","019cf9df-fc9a-78b9-b8e2-bb9d0b928390","019cf9ba-391a-7c7b-96b9-3757895c469c","","null","<div style=""background-color: white; width: 100vw; height: 100vh;""></div>","null","","","","","","","","","",""
"","","","","","html-keyboard-response","101","143593","0.0-101.0","DBFA2F62B5974D349D1F5851E372E824","019cf9df-fc9a-78b9-b8e2-bb9d0b928390","019cf9ba-391a-7c7b-96b9-3757895c469c","","null","
                <div class=""stimulus-container"">
                    <img src=""images/causal_sequence/saving_a_cat_causal/saving_a_cat_causal_2.png"" class=""exp-image"">
                    <div class=""question-area""></div> 
                </div>","null","","","","","","","","","",""
"","","","","","html-button-response","102","144603","0.0-102.0","DBFA2F62B5974D349D1F5851E372E824","019cf9df-fc9a-78b9-b8e2-bb9d0b928390","019cf9ba-391a-7c7b-96b9-3757895c469c","","1009","
                <div class=""stimulus-container"">
                    <img src=""images/causal_sequence/saving_a_cat_causal/saving_a_cat_causal_2.png"" class=""exp-image"">
                    <div class=""question-area"">
                        <p style=""font-size: 20px; font-weight: bold; margin: 0;"">Is there a person in this image?</p>
                    </div>
                </div>","1","main_experiment_trial","2","saving_a_cat_causal","causal_sequence","randomized","","","","",""
"","","","","","html-keyboard-response","103","145610","0.0-103.0","DBFA2F62B5974D349D1F5851E372E824","019cf9df-fc9a-78b9-b8e2-bb9d0b928390","019cf9ba-391a-7c7b-96b9-3757895c469c","","null","
                <div class=""stimulus-container"">
                    <img src=""images/causal_sequence/saving_a_cat_causal/saving_a_cat_causal_ten.png"" class=""exp-image"">
                    <div class=""question-area""></div> 
                </div>","null","","","","","","","","","",""
"","","","","","html-button-response","104","145995","0.0-104.0","DBFA2F62B5974D349D1F5851E372E824","019cf9df-fc9a-78b9-b8e2-bb9d0b928390","019cf9ba-391a-7c7b-96b9-3757895c469c","","384","
                <div class=""stimulus-container"">
                    <img src=""images/causal_sequence/saving_a_cat_causal/saving_a_cat_causal_ten.png"" class=""exp-image"">
                    <div class=""question-area"">
                        <p style=""font-size: 20px; font-weight: bold; margin: 0;"">Is there a person in this image?</p>
                    </div>
                </div>","0","main_experiment_trial","ten","saving_a_cat_causal","causal_sequence","randomized","","","","",""
"","","","","","html-keyboard-response","105","146997","0.0-105.0","DBFA2F62B5974D349D1F5851E372E824","019cf9df-fc9a-78b9-b8e2-bb9d0b928390","019cf9ba-391a-7c7b-96b9-3757895c469c","","null","
                <div class=""stimulus-container"">
                    <img src=""images/causal_sequence/saving_a_cat_causal/saving_a_cat_causal_6.png"" class=""exp-image"">
                    <div class=""question-area""></div> 
                </div>","null","","","","","","","","","",""
"","","","","","html-button-response","106","147267","0.0-106.0","DBFA2F62B5974D349D1F5851E372E824","019cf9df-fc9a-78b9-b8e2-bb9d0b928390","019cf9ba-391a-7c7b-96b9-3757895c469c","","269","
                <div class=""stimulus-container"">
                    <img src=""images/causal_sequence/saving_a_cat_causal/saving_a_cat_causal_6.png"" class=""exp-image"">
                    <div class=""question-area"">
                        <p style=""font-size: 20px; font-weight: bold; margin: 0;"">Is there a person in this image?</p>
                    </div>
                </div>","0","main_experiment_trial","6","saving_a_cat_causal","causal_sequence","randomized","","","","",""
"","","","","","html-keyboard-response","107","148277","0.0-107.0","DBFA2F62B5974D349D1F5851E372E824","019cf9df-fc9a-78b9-b8e2-bb9d0b928390","019cf9ba-391a-7c7b-96b9-3757895c469c","","null","
                <div class=""stimulus-container"">
                    <img src=""images/causal_sequence/saving_a_cat_causal/saving_a_cat_causal_7.png"" class=""exp-image"">
                    <div class=""question-area""></div> 
                </div>","null","","","","","","","","","",""
"","","","","","html-button-response","108","148483","0.0-108.0","DBFA2F62B5974D349D1F5851E372E824","019cf9df-fc9a-78b9-b8e2-bb9d0b928390","019cf9ba-391a-7c7b-96b9-3757895c469c","","206","
                <div class=""stimulus-container"">
                    <img src=""images/causal_sequence/saving_a_cat_causal/saving_a_cat_causal_7.png"" class=""exp-image"">
                    <div class=""question-area"">
                        <p style=""font-size: 20px; font-weight: bold; margin: 0;"">Is there a person in this image?</p>
                    </div>
                </div>","0","main_experiment_trial","7","saving_a_cat_causal","causal_sequence","randomized","","","","",""
"","","","","","html-keyboard-response","109","149496","0.0-109.0","DBFA2F62B5974D349D1F5851E372E824","019cf9df-fc9a-78b9-b8e2-bb9d0b928390","019cf9ba-391a-7c7b-96b9-3757895c469c","","null","
                <div class=""stimulus-container"">
                    <img src=""images/causal_sequence/saving_a_cat_causal/saving_a_cat_causal_1.png"" class=""exp-image"">
                    <div class=""question-area""></div> 
                </div>","null","","","","","","","","","",""
"","","","","","html-button-response","110","149716","0.0-110.0","DBFA2F62B5974D349D1F5851E372E824","019cf9df-fc9a-78b9-b8e2-bb9d0b928390","019cf9ba-391a-7c7b-96b9-3757895c469c","","218","
                <div class=""stimulus-container"">
                    <img src=""images/causal_sequence/saving_a_cat_causal/saving_a_cat_causal_1.png"" class=""exp-image"">
                    <div class=""question-area"">
                        <p style=""font-size: 20px; font-weight: bold; margin: 0;"">Is there a person in this image?</p>
                    </div>
                </div>","0","main_experiment_trial","1","saving_a_cat_causal","causal_sequence","randomized","","","","",""
"","","","","","html-keyboard-response","111","150728","0.0-111.0","DBFA2F62B5974D349D1F5851E372E824","019cf9df-fc9a-78b9-b8e2-bb9d0b928390","019cf9ba-391a-7c7b-96b9-3757895c469c","","null","
                <div class=""stimulus-container"">
                    <img src=""images/causal_sequence/saving_a_cat_causal/saving_a_cat_causal_9.png"" class=""exp-image"">
                    <div class=""question-area""></div> 
                </div>","null","","","","","","","","","",""
"","","","","","html-button-response","112","151045","0.0-112.0","DBFA2F62B5974D349D1F5851E372E824","019cf9df-fc9a-78b9-b8e2-bb9d0b928390","019cf9ba-391a-7c7b-96b9-3757895c469c","","316","
                <div class=""stimulus-container"">
                    <img src=""images/causal_sequence/saving_a_cat_causal/saving_a_cat_causal_9.png"" class=""exp-image"">
                    <div class=""question-area"">
                        <p style=""font-size: 20px; font-weight: bold; margin: 0;"">Is there a person in this image?</p>
                    </div>
                </div>","0","main_experiment_trial","9","saving_a_cat_causal","causal_sequence","randomized","","","","",""
"","","","","","html-keyboard-response","113","152060","0.0-113.0","DBFA2F62B5974D349D1F5851E372E824","019cf9df-fc9a-78b9-b8e2-bb9d0b928390","019cf9ba-391a-7c7b-96b9-3757895c469c","","null","
                <div class=""stimulus-container"">
                    <img src=""images/causal_sequence/saving_a_cat_causal/saving_a_cat_causal_3.png"" class=""exp-image"">
                    <div class=""question-area""></div> 
                </div>","null","","","","","","","","","",""
"","","","","","html-button-response","114","152444","0.0-114.0","DBFA2F62B5974D349D1F5851E372E824","019cf9df-fc9a-78b9-b8e2-bb9d0b928390","019cf9ba-391a-7c7b-96b9-3757895c469c","","384","
                <div class=""stimulus-container"">
                    <img src=""images/causal_sequence/saving_a_cat_causal/saving_a_cat_causal_3.png"" class=""exp-image"">
                    <div class=""question-area"">
                        <p style=""font-size: 20px; font-weight: bold; margin: 0;"">Is there a person in this image?</p>
                    </div>
                </div>","0","main_experiment_trial","3","saving_a_cat_causal","causal_sequence","randomized","","","","",""
"","","","","","html-keyboard-response","115","153458","0.0-115.0","DBFA2F62B5974D349D1F5851E372E824","019cf9df-fc9a-78b9-b8e2-bb9d0b928390","019cf9ba-391a-7c7b-96b9-3757895c469c","","null","
                <div class=""stimulus-container"">
                    <img src=""images/causal_sequence/saving_a_cat_causal/saving_a_cat_causal_5.png"" class=""exp-image"">
                    <div class=""question-area""></div> 
                </div>","null","","","","","","","","","",""
"","","","","","html-button-response","116","153708","0.0-116.0","DBFA2F62B5974D349D1F5851E372E824","019cf9df-fc9a-78b9-b8e2-bb9d0b928390","019cf9ba-391a-7c7b-96b9-3757895c469c","","248","
                <div class=""stimulus-container"">
                    <img src=""images/causal_sequence/saving_a_cat_causal/saving_a_cat_causal_5.png"" class=""exp-image"">
                    <div class=""question-area"">
                        <p style=""font-size: 20px; font-weight: bold; margin: 0;"">Is there a person in this image?</p>
                    </div>
                </div>","0","main_experiment_trial","5","saving_a_cat_causal","causal_sequence","randomized","","","","",""
"","","","","","html-keyboard-response","117","154713","0.0-117.0","DBFA2F62B5974D349D1F5851E372E824","019cf9df-fc9a-78b9-b8e2-bb9d0b928390","019cf9ba-391a-7c7b-96b9-3757895c469c","","null","
                <div class=""stimulus-container"">
                    <img src=""images/causal_sequence/saving_a_cat_causal/saving_a_cat_causal_4.png"" class=""exp-image"">
                    <div class=""question-area""></div> 
                </div>","null","","","","","","","","","",""
"","","","","","html-button-response","118","155028","0.0-118.0","DBFA2F62B5974D349D1F5851E372E824","019cf9df-fc9a-78b9-b8e2-bb9d0b928390","019cf9ba-391a-7c7b-96b9-3757895c469c","","314","
                <div class=""stimulus-container"">
                    <img src=""images/causal_sequence/saving_a_cat_causal/saving_a_cat_causal_4.png"" class=""exp-image"">
                    <div class=""question-area"">
                        <p style=""font-size: 20px; font-weight: bold; margin: 0;"">Is there a person in this image?</p>
                    </div>
                </div>","0","main_experiment_trial","4","saving_a_cat_causal","causal_sequence","randomized","","","","",""
"","","","","","html-keyboard-response","119","156036","0.0-119.0","DBFA2F62B5974D349D1F5851E372E824","019cf9df-fc9a-78b9-b8e2-bb9d0b928390","019cf9ba-391a-7c7b-96b9-3757895c469c","","null","
                <div class=""stimulus-container"">
                    <img src=""images/causal_sequence/saving_a_cat_causal/saving_a_cat_causal_8.png"" class=""exp-image"">
                    <div class=""question-area""></div> 
                </div>","null","","","","","","","","","",""
"","","","","","html-button-response","120","156412","0.0-120.0","DBFA2F62B5974D349D1F5851E372E824","019cf9df-fc9a-78b9-b8e2-bb9d0b928390","019cf9ba-391a-7c7b-96b9-3757895c469c","","375","
                <div class=""stimulus-container"">
                    <img src=""images/causal_sequence/saving_a_cat_causal/saving_a_cat_causal_8.png"" class=""exp-image"">
                    <div class=""question-area"">
                        <p style=""font-size: 20px; font-weight: bold; margin: 0;"">Is there a person in this image?</p>
                    </div>
                </div>","0","main_experiment_trial","8","saving_a_cat_causal","causal_sequence","randomized","","","","",""
"","","","","","html-keyboard-response","121","161413","0.0-121.0","DBFA2F62B5974D349D1F5851E372E824","019cf9df-fc9a-78b9-b8e2-bb9d0b928390","019cf9ba-391a-7c7b-96b9-3757895c469c","","null","<div style=""background-color: white; width: 100vw; height: 100vh;""></div>","null","","","","","","","","","",""
"","","","","","html-keyboard-response","122","162418","0.0-122.0","DBFA2F62B5974D349D1F5851E372E824","019cf9df-fc9a-78b9-b8e2-bb9d0b928390","019cf9ba-391a-7c7b-96b9-3757895c469c","","null","
                <div class=""stimulus-container"">
                    <img src=""images/causal_sequence/coin_causal/coin_causal_9.png"" class=""exp-image"">
                    <div class=""question-area""></div> 
                </div>","null","","","","","","","","","",""
"","","","","","html-button-response","123","163108","0.0-123.0","DBFA2F62B5974D349D1F5851E372E824","019cf9df-fc9a-78b9-b8e2-bb9d0b928390","019cf9ba-391a-7c7b-96b9-3757895c469c","","689","
                <div class=""stimulus-container"">
                    <img src=""images/causal_sequence/coin_causal/coin_causal_9.png"" class=""exp-image"">
                    <div class=""question-area"">
                        <p style=""font-size: 20px; font-weight: bold; margin: 0;"">Is there a person in this image?</p>
                    </div>
                </div>","0","main_experiment_trial","9","coin_causal","causal_sequence","randomized","","","","",""
"","","","","","html-keyboard-response","124","164120","0.0-124.0","DBFA2F62B5974D349D1F5851E372E824","019cf9df-fc9a-78b9-b8e2-bb9d0b928390","019cf9ba-391a-7c7b-96b9-3757895c469c","","null","
                <div class=""stimulus-container"">
                    <img src=""images/causal_sequence/coin_causal/coin_causal_2.png"" class=""exp-image"">
                    <div class=""question-area""></div> 
                </div>","null","","","","","","","","","",""
"","","","","","html-button-response","125","164516","0.0-125.0","DBFA2F62B5974D349D1F5851E372E824","019cf9df-fc9a-78b9-b8e2-bb9d0b928390","019cf9ba-391a-7c7b-96b9-3757895c469c","","394","
                <div class=""stimulus-container"">
                    <img src=""images/causal_sequence/coin_causal/coin_causal_2.png"" class=""exp-image"">
                    <div class=""question-area"">
                        <p style=""font-size: 20px; font-weight: bold; margin: 0;"">Is there a person in this image?</p>
                    </div>
                </div>","0","main_experiment_trial","2","coin_causal","causal_sequence","randomized","","","","",""
"","","","","","html-keyboard-response","126","165525","0.0-126.0","DBFA2F62B5974D349D1F5851E372E824","019cf9df-fc9a-78b9-b8e2-bb9d0b928390","019cf9ba-391a-7c7b-96b9-3757895c469c","","null","
                <div class=""stimulus-container"">
                    <img src=""images/causal_sequence/coin_causal/coin_causal_8.png"" class=""exp-image"">
                    <div class=""question-area""></div> 
                </div>","null","","","","","","","","","",""
"","","","","","html-button-response","127","165804","0.0-127.0","DBFA2F62B5974D349D1F5851E372E824","019cf9df-fc9a-78b9-b8e2-bb9d0b928390","019cf9ba-391a-7c7b-96b9-3757895c469c","","278","
                <div class=""stimulus-container"">
                    <img src=""images/causal_sequence/coin_causal/coin_causal_8.png"" class=""exp-image"">
                    <div class=""question-area"">
                        <p style=""font-size: 20px; font-weight: bold; margin: 0;"">Is there a person in this image?</p>
                    </div>
                </div>","0","main_experiment_trial","8","coin_causal","causal_sequence","randomized","","","","",""
"","","","","","html-keyboard-response","128","166808","0.0-128.0","DBFA2F62B5974D349D1F5851E372E824","019cf9df-fc9a-78b9-b8e2-bb9d0b928390","019cf9ba-391a-7c7b-96b9-3757895c469c","","null","
                <div class=""stimulus-container"">
                    <img src=""images/causal_sequence/coin_causal/coin_causal_5.png"" class=""exp-image"">
                    <div class=""question-area""></div> 
                </div>","null","","","","","","","","","",""
"","","","","","html-button-response","129","167116","0.0-129.0","DBFA2F62B5974D349D1F5851E372E824","019cf9df-fc9a-78b9-b8e2-bb9d0b928390","019cf9ba-391a-7c7b-96b9-3757895c469c","","307","
                <div class=""stimulus-container"">
                    <img src=""images/causal_sequence/coin_causal/coin_causal_5.png"" class=""exp-image"">
                    <div class=""question-area"">
                        <p style=""font-size: 20px; font-weight: bold; margin: 0;"">Is there a person in this image?</p>
                    </div>
                </div>","0","main_experiment_trial","5","coin_causal","causal_sequence","randomized","","","","",""
"","","","","","html-keyboard-response","130","168120","0.0-130.0","DBFA2F62B5974D349D1F5851E372E824","019cf9df-fc9a-78b9-b8e2-bb9d0b928390","019cf9ba-391a-7c7b-96b9-3757895c469c","","null","
                <div class=""stimulus-container"">
                    <img src=""images/causal_sequence/coin_causal/coin_causal_3.png"" class=""exp-image"">
                    <div class=""question-area""></div> 
                </div>","null","","","","","","","","","",""
"","","","","","html-button-response","131","168348","0.0-131.0","DBFA2F62B5974D349D1F5851E372E824","019cf9df-fc9a-78b9-b8e2-bb9d0b928390","019cf9ba-391a-7c7b-96b9-3757895c469c","","227","
                <div class=""stimulus-container"">
                    <img src=""images/causal_sequence/coin_causal/coin_causal_3.png"" class=""exp-image"">
                    <div class=""question-area"">
                        <p style=""font-size: 20px; font-weight: bold; margin: 0;"">Is there a person in this image?</p>
                    </div>
                </div>","0","main_experiment_trial","3","coin_causal","causal_sequence","randomized","","","","",""
"","","","","","html-keyboard-response","132","169362","0.0-132.0","DBFA2F62B5974D349D1F5851E372E824","019cf9df-fc9a-78b9-b8e2-bb9d0b928390","019cf9ba-391a-7c7b-96b9-3757895c469c","","null","
                <div class=""stimulus-container"">
                    <img src=""images/causal_sequence/coin_causal/coin_causal_1.png"" class=""exp-image"">
                    <div class=""question-area""></div> 
                </div>","null","","","","","","","","","",""
"","","","","","html-button-response","133","169652","0.0-133.0","DBFA2F62B5974D349D1F5851E372E824","019cf9df-fc9a-78b9-b8e2-bb9d0b928390","019cf9ba-391a-7c7b-96b9-3757895c469c","","289","
                <div class=""stimulus-container"">
                    <img src=""images/causal_sequence/coin_causal/coin_causal_1.png"" class=""exp-image"">
                    <div class=""question-area"">
                        <p style=""font-size: 20px; font-weight: bold; margin: 0;"">Is there a person in this image?</p>
                    </div>
                </div>","0","main_experiment_trial","1","coin_causal","causal_sequence","randomized","","","","",""
"","","","","","html-keyboard-response","134","170659","0.0-134.0","DBFA2F62B5974D349D1F5851E372E824","019cf9df-fc9a-78b9-b8e2-bb9d0b928390","019cf9ba-391a-7c7b-96b9-3757895c469c","","null","
                <div class=""stimulus-container"">
                    <img src=""images/causal_sequence/coin_causal/coin_causal_ten.png"" class=""exp-image"">
                    <div class=""question-area""></div> 
                </div>","null","","","","","","","","","",""
"","","","","","html-button-response","135","170892","0.0-135.0","DBFA2F62B5974D349D1F5851E372E824","019cf9df-fc9a-78b9-b8e2-bb9d0b928390","019cf9ba-391a-7c7b-96b9-3757895c469c","","231","
                <div class=""stimulus-container"">
                    <img src=""images/causal_sequence/coin_causal/coin_causal_ten.png"" class=""exp-image"">
                    <div class=""question-area"">
                        <p style=""font-size: 20px; font-weight: bold; margin: 0;"">Is there a person in this image?</p>
                    </div>
                </div>","0","main_experiment_trial","ten","coin_causal","causal_sequence","randomized","","","","",""
"","","","","","html-keyboard-response","136","171901","0.0-136.0","DBFA2F62B5974D349D1F5851E372E824","019cf9df-fc9a-78b9-b8e2-bb9d0b928390","019cf9ba-391a-7c7b-96b9-3757895c469c","","null","
                <div class=""stimulus-container"">
                    <img src=""images/causal_sequence/coin_causal/coin_causal_4.png"" class=""exp-image"">
                    <div class=""question-area""></div> 
                </div>","null","","","","","","","","","",""
"","","","","","html-button-response","137","172343","0.0-137.0","DBFA2F62B5974D349D1F5851E372E824","019cf9df-fc9a-78b9-b8e2-bb9d0b928390","019cf9ba-391a-7c7b-96b9-3757895c469c","","440","
                <div class=""stimulus-container"">
                    <img src=""images/causal_sequence/coin_causal/coin_causal_4.png"" class=""exp-image"">
                    <div class=""question-area"">
                        <p style=""font-size: 20px; font-weight: bold; margin: 0;"">Is there a person in this image?</p>
                    </div>
                </div>","0","main_experiment_trial","4","coin_causal","causal_sequence","randomized","","","","",""
"","","","","","html-keyboard-response","138","173347","0.0-138.0","DBFA2F62B5974D349D1F5851E372E824","019cf9df-fc9a-78b9-b8e2-bb9d0b928390","019cf9ba-391a-7c7b-96b9-3757895c469c","","null","
                <div class=""stimulus-container"">
                    <img src=""images/causal_sequence/coin_causal/coin_causal_7.png"" class=""exp-image"">
                    <div class=""question-area""></div> 
                </div>","null","","","","","","","","","",""
"","","","","","html-button-response","139","173912","0.0-139.0","DBFA2F62B5974D349D1F5851E372E824","019cf9df-fc9a-78b9-b8e2-bb9d0b928390","019cf9ba-391a-7c7b-96b9-3757895c469c","","564","
                <div class=""stimulus-container"">
                    <img src=""images/causal_sequence/coin_causal/coin_causal_7.png"" class=""exp-image"">
                    <div class=""question-area"">
                        <p style=""font-size: 20px; font-weight: bold; margin: 0;"">Is there a person in this image?</p>
                    </div>
                </div>","0","main_experiment_trial","7","coin_causal","causal_sequence","randomized","","","","",""
"","","","","","html-keyboard-response","140","174921","0.0-140.0","DBFA2F62B5974D349D1F5851E372E824","019cf9df-fc9a-78b9-b8e2-bb9d0b928390","019cf9ba-391a-7c7b-96b9-3757895c469c","","null","
                <div class=""stimulus-container"">
                    <img src=""images/causal_sequence/coin_causal/coin_causal_6.png"" class=""exp-image"">
                    <div class=""question-area""></div> 
                </div>","null","","","","","","","","","",""
"","","","","","html-button-response","141","175157","0.0-141.0","DBFA2F62B5974D349D1F5851E372E824","019cf9df-fc9a-78b9-b8e2-bb9d0b928390","019cf9ba-391a-7c7b-96b9-3757895c469c","","235","
                <div class=""stimulus-container"">
                    <img src=""images/causal_sequence/coin_causal/coin_causal_6.png"" class=""exp-image"">
                    <div class=""question-area"">
                        <p style=""font-size: 20px; font-weight: bold; margin: 0;"">Is there a person in this image?</p>
                    </div>
                </div>","0","main_experiment_trial","6","coin_causal","causal_sequence","randomized","","","","",""
"","","","","","html-keyboard-response","142","180172","0.0-142.0","DBFA2F62B5974D349D1F5851E372E824","019cf9df-fc9a-78b9-b8e2-bb9d0b928390","019cf9ba-391a-7c7b-96b9-3757895c469c","","null","<div style=""background-color: white; width: 100vw; height: 100vh;""></div>","null","","","","","","","","","",""
"","","","","","html-keyboard-response","143","181184","0.0-143.0","DBFA2F62B5974D349D1F5851E372E824","019cf9df-fc9a-78b9-b8e2-bb9d0b928390","019cf9ba-391a-7c7b-96b9-3757895c469c","","null","
                <div class=""stimulus-container"">
                    <img src=""images/semantic_sequence/using_technology_semantic/using_technology_semantic_9.png"" class=""exp-image"">
                    <div class=""question-area""></div> 
                </div>","null","","","","","","","","","",""
"","","","","","html-button-response","144","181525","0.0-144.0","DBFA2F62B5974D349D1F5851E372E824","019cf9df-fc9a-78b9-b8e2-bb9d0b928390","019cf9ba-391a-7c7b-96b9-3757895c469c","","340","
                <div class=""stimulus-container"">
                    <img src=""images/semantic_sequence/using_technology_semantic/using_technology_semantic_9.png"" class=""exp-image"">
                    <div class=""question-area"">
                        <p style=""font-size: 20px; font-weight: bold; margin: 0;"">Is there a person in this image?</p>
                    </div>
                </div>","0","main_experiment_trial","9","using_technology_semantic","semantic_sequence","randomized","","","","",""
"","","","","","html-keyboard-response","145","182528","0.0-145.0","DBFA2F62B5974D349D1F5851E372E824","019cf9df-fc9a-78b9-b8e2-bb9d0b928390","019cf9ba-391a-7c7b-96b9-3757895c469c","","null","
                <div class=""stimulus-container"">
                    <img src=""images/semantic_sequence/using_technology_semantic/using_technology_semantic_ten.png"" class=""exp-image"">
                    <div class=""question-area""></div> 
                </div>","null","","","","","","","","","",""
"","","","","","html-button-response","146","182732","0.0-146.0","DBFA2F62B5974D349D1F5851E372E824","019cf9df-fc9a-78b9-b8e2-bb9d0b928390","019cf9ba-391a-7c7b-96b9-3757895c469c","","203","
                <div class=""stimulus-container"">
                    <img src=""images/semantic_sequence/using_technology_semantic/using_technology_semantic_ten.png"" class=""exp-image"">
                    <div class=""question-area"">
                        <p style=""font-size: 20px; font-weight: bold; margin: 0;"">Is there a person in this image?</p>
                    </div>
                </div>","0","main_experiment_trial","ten","using_technology_semantic","semantic_sequence","randomized","","","","",""
"","","","","","html-keyboard-response","147","183740","0.0-147.0","DBFA2F62B5974D349D1F5851E372E824","019cf9df-fc9a-78b9-b8e2-bb9d0b928390","019cf9ba-391a-7c7b-96b9-3757895c469c","","null","
                <div class=""stimulus-container"">
                    <img src=""images/semantic_sequence/using_technology_semantic/using_technology_semantic_1.png"" class=""exp-image"">
                    <div class=""question-area""></div> 
                </div>","null","","","","","","","","","",""
"","","","","","html-button-response","148","183908","0.0-148.0","DBFA2F62B5974D349D1F5851E372E824","019cf9df-fc9a-78b9-b8e2-bb9d0b928390","019cf9ba-391a-7c7b-96b9-3757895c469c","","167","
                <div class=""stimulus-container"">
                    <img src=""images/semantic_sequence/using_technology_semantic/using_technology_semantic_1.png"" class=""exp-image"">
                    <div class=""question-area"">
                        <p style=""font-size: 20px; font-weight: bold; margin: 0;"">Is there a person in this image?</p>
                    </div>
                </div>","0","main_experiment_trial","1","using_technology_semantic","semantic_sequence","randomized","","","","",""
"","","","","","html-keyboard-response","149","184923","0.0-149.0","DBFA2F62B5974D349D1F5851E372E824","019cf9df-fc9a-78b9-b8e2-bb9d0b928390","019cf9ba-391a-7c7b-96b9-3757895c469c","","null","
                <div class=""stimulus-container"">
                    <img src=""images/semantic_sequence/using_technology_semantic/using_technology_semantic_4.png"" class=""exp-image"">
                    <div class=""question-area""></div> 
                </div>","null","","","","","","","","","",""
"","","","","","html-button-response","150","185132","0.0-150.0","DBFA2F62B5974D349D1F5851E372E824","019cf9df-fc9a-78b9-b8e2-bb9d0b928390","019cf9ba-391a-7c7b-96b9-3757895c469c","","208","
                <div class=""stimulus-container"">
                    <img src=""images/semantic_sequence/using_technology_semantic/using_technology_semantic_4.png"" class=""exp-image"">
                    <div class=""question-area"">
                        <p style=""font-size: 20px; font-weight: bold; margin: 0;"">Is there a person in this image?</p>
                    </div>
                </div>","0","main_experiment_trial","4","using_technology_semantic","semantic_sequence","randomized","","","","",""
"","","","","","html-keyboard-response","151","186140","0.0-151.0","DBFA2F62B5974D349D1F5851E372E824","019cf9df-fc9a-78b9-b8e2-bb9d0b928390","019cf9ba-391a-7c7b-96b9-3757895c469c","","null","
                <div class=""stimulus-container"">
                    <img src=""images/semantic_sequence/using_technology_semantic/using_technology_semantic_5.png"" class=""exp-image"">
                    <div class=""question-area""></div> 
                </div>","null","","","","","","","","","",""
"","","","","","html-button-response","152","186380","0.0-152.0","DBFA2F62B5974D349D1F5851E372E824","019cf9df-fc9a-78b9-b8e2-bb9d0b928390","019cf9ba-391a-7c7b-96b9-3757895c469c","","240","
                <div class=""stimulus-container"">
                    <img src=""images/semantic_sequence/using_technology_semantic/using_technology_semantic_5.png"" class=""exp-image"">
                    <div class=""question-area"">
                        <p style=""font-size: 20px; font-weight: bold; margin: 0;"">Is there a person in this image?</p>
                    </div>
                </div>","0","main_experiment_trial","5","using_technology_semantic","semantic_sequence","randomized","","","","",""
"","","","","","html-keyboard-response","153","187387","0.0-153.0","DBFA2F62B5974D349D1F5851E372E824","019cf9df-fc9a-78b9-b8e2-bb9d0b928390","019cf9ba-391a-7c7b-96b9-3757895c469c","","null","
                <div class=""stimulus-container"">
                    <img src=""images/semantic_sequence/using_technology_semantic/using_technology_semantic_8.png"" class=""exp-image"">
                    <div class=""question-area""></div> 
                </div>","null","","","","","","","","","",""
"","","","","","html-button-response","154","187677","0.0-154.0","DBFA2F62B5974D349D1F5851E372E824","019cf9df-fc9a-78b9-b8e2-bb9d0b928390","019cf9ba-391a-7c7b-96b9-3757895c469c","","289","
                <div class=""stimulus-container"">
                    <img src=""images/semantic_sequence/using_technology_semantic/using_technology_semantic_8.png"" class=""exp-image"">
                    <div class=""question-area"">
                        <p style=""font-size: 20px; font-weight: bold; margin: 0;"">Is there a person in this image?</p>
                    </div>
                </div>","0","main_experiment_trial","8","using_technology_semantic","semantic_sequence","randomized","","","","",""
"","","","","","html-keyboard-response","155","188682","0.0-155.0","DBFA2F62B5974D349D1F5851E372E824","019cf9df-fc9a-78b9-b8e2-bb9d0b928390","019cf9ba-391a-7c7b-96b9-3757895c469c","","null","
                <div class=""stimulus-container"">
                    <img src=""images/semantic_sequence/using_technology_semantic/using_technology_semantic_6.png"" class=""exp-image"">
                    <div class=""question-area""></div> 
                </div>","null","","","","","","","","","",""
"","","","","","html-button-response","156","188997","0.0-156.0","DBFA2F62B5974D349D1F5851E372E824","019cf9df-fc9a-78b9-b8e2-bb9d0b928390","019cf9ba-391a-7c7b-96b9-3757895c469c","","313","
                <div class=""stimulus-container"">
                    <img src=""images/semantic_sequence/using_technology_semantic/using_technology_semantic_6.png"" class=""exp-image"">
                    <div class=""question-area"">
                        <p style=""font-size: 20px; font-weight: bold; margin: 0;"">Is there a person in this image?</p>
                    </div>
                </div>","0","main_experiment_trial","6","using_technology_semantic","semantic_sequence","randomized","","","","",""
"","","","","","html-keyboard-response","157","190005","0.0-157.0","DBFA2F62B5974D349D1F5851E372E824","019cf9df-fc9a-78b9-b8e2-bb9d0b928390","019cf9ba-391a-7c7b-96b9-3757895c469c","","null","
                <div class=""stimulus-container"">
                    <img src=""images/semantic_sequence/using_technology_semantic/using_technology_semantic_3.png"" class=""exp-image"">
                    <div class=""question-area""></div> 
                </div>","null","","","","","","","","","",""
"","","","","","html-button-response","158","190254","0.0-158.0","DBFA2F62B5974D349D1F5851E372E824","019cf9df-fc9a-78b9-b8e2-bb9d0b928390","019cf9ba-391a-7c7b-96b9-3757895c469c","","248","
                <div class=""stimulus-container"">
                    <img src=""images/semantic_sequence/using_technology_semantic/using_technology_semantic_3.png"" class=""exp-image"">
                    <div class=""question-area"">
                        <p style=""font-size: 20px; font-weight: bold; margin: 0;"">Is there a person in this image?</p>
                    </div>
                </div>","0","main_experiment_trial","3","using_technology_semantic","semantic_sequence","randomized","","","","",""
"","","","","","html-keyboard-response","159","191268","0.0-159.0","DBFA2F62B5974D349D1F5851E372E824","019cf9df-fc9a-78b9-b8e2-bb9d0b928390","019cf9ba-391a-7c7b-96b9-3757895c469c","","null","
                <div class=""stimulus-container"">
                    <img src=""images/semantic_sequence/using_technology_semantic/using_technology_semantic_2.png"" class=""exp-image"">
                    <div class=""question-area""></div> 
                </div>","null","","","","","","","","","",""
"","","","","","html-button-response","160","191567","0.0-160.0","DBFA2F62B5974D349D1F5851E372E824","019cf9df-fc9a-78b9-b8e2-bb9d0b928390","019cf9ba-391a-7c7b-96b9-3757895c469c","","298","
                <div class=""stimulus-container"">
                    <img src=""images/semantic_sequence/using_technology_semantic/using_technology_semantic_2.png"" class=""exp-image"">
                    <div class=""question-area"">
                        <p style=""font-size: 20px; font-weight: bold; margin: 0;"">Is there a person in this image?</p>
                    </div>
                </div>","0","main_experiment_trial","2","using_technology_semantic","semantic_sequence","randomized","","","","",""
"","","","","","html-keyboard-response","161","192580","0.0-161.0","DBFA2F62B5974D349D1F5851E372E824","019cf9df-fc9a-78b9-b8e2-bb9d0b928390","019cf9ba-391a-7c7b-96b9-3757895c469c","","null","
                <div class=""stimulus-container"">
                    <img src=""images/semantic_sequence/using_technology_semantic/using_technology_semantic_7.png"" class=""exp-image"">
                    <div class=""question-area""></div> 
                </div>","null","","","","","","","","","",""
"","","","","","html-button-response","162","192902","0.0-162.0","DBFA2F62B5974D349D1F5851E372E824","019cf9df-fc9a-78b9-b8e2-bb9d0b928390","019cf9ba-391a-7c7b-96b9-3757895c469c","","321","
                <div class=""stimulus-container"">
                    <img src=""images/semantic_sequence/using_technology_semantic/using_technology_semantic_7.png"" class=""exp-image"">
                    <div class=""question-area"">
                        <p style=""font-size: 20px; font-weight: bold; margin: 0;"">Is there a person in this image?</p>
                    </div>
                </div>","0","main_experiment_trial","7","using_technology_semantic","semantic_sequence","randomized","","","","",""
"","","","","","html-keyboard-response","163","197907","0.0-163.0","DBFA2F62B5974D349D1F5851E372E824","019cf9df-fc9a-78b9-b8e2-bb9d0b928390","019cf9ba-391a-7c7b-96b9-3757895c469c","","null","<div style=""background-color: white; width: 100vw; height: 100vh;""></div>","null","","","","","","","","","",""
"","","","","","html-keyboard-response","164","198908","0.0-164.0","DBFA2F62B5974D349D1F5851E372E824","019cf9df-fc9a-78b9-b8e2-bb9d0b928390","019cf9ba-391a-7c7b-96b9-3757895c469c","","null","
                <div class=""stimulus-container"">
                    <img src=""images/causal_sequence/museum_causal/museum_causal_3.png"" class=""exp-image"">
                    <div class=""question-area""></div> 
                </div>","null","","","","","","","","","",""
"","","","","","html-button-response","165","200584","0.0-165.0","DBFA2F62B5974D349D1F5851E372E824","019cf9df-fc9a-78b9-b8e2-bb9d0b928390","019cf9ba-391a-7c7b-96b9-3757895c469c","","1674","
                <div class=""stimulus-container"">
                    <img src=""images/causal_sequence/museum_causal/museum_causal_3.png"" class=""exp-image"">
                    <div class=""question-area"">
                        <p style=""font-size: 20px; font-weight: bold; margin: 0;"">Is there a person in this image?</p>
                    </div>
                </div>","0","main_experiment_trial","3","museum_causal","causal_sequence","randomized","","","","",""
"","","","","","html-keyboard-response","166","201597","0.0-166.0","DBFA2F62B5974D349D1F5851E372E824","019cf9df-fc9a-78b9-b8e2-bb9d0b928390","019cf9ba-391a-7c7b-96b9-3757895c469c","","null","
                <div class=""stimulus-container"">
                    <img src=""images/causal_sequence/museum_causal/museum_causal_5.png"" class=""exp-image"">
                    <div class=""question-area""></div> 
                </div>","null","","","","","","","","","",""
"","","","","","html-button-response","167","202309","0.0-167.0","DBFA2F62B5974D349D1F5851E372E824","019cf9df-fc9a-78b9-b8e2-bb9d0b928390","019cf9ba-391a-7c7b-96b9-3757895c469c","","711","
                <div class=""stimulus-container"">
                    <img src=""images/causal_sequence/museum_causal/museum_causal_5.png"" class=""exp-image"">
                    <div class=""question-area"">
                        <p style=""font-size: 20px; font-weight: bold; margin: 0;"">Is there a person in this image?</p>
                    </div>
                </div>","0","main_experiment_trial","5","museum_causal","causal_sequence","randomized","","","","",""
"","","","","","html-keyboard-response","168","203317","0.0-168.0","DBFA2F62B5974D349D1F5851E372E824","019cf9df-fc9a-78b9-b8e2-bb9d0b928390","019cf9ba-391a-7c7b-96b9-3757895c469c","","null","
                <div class=""stimulus-container"">
                    <img src=""images/causal_sequence/museum_causal/museum_causal_4.png"" class=""exp-image"">
                    <div class=""question-area""></div> 
                </div>","null","","","","","","","","","",""
"","","","","","html-button-response","169","203715","0.0-169.0","DBFA2F62B5974D349D1F5851E372E824","019cf9df-fc9a-78b9-b8e2-bb9d0b928390","019cf9ba-391a-7c7b-96b9-3757895c469c","","396","
                <div class=""stimulus-container"">
                    <img src=""images/causal_sequence/museum_causal/museum_causal_4.png"" class=""exp-image"">
                    <div class=""question-area"">
                        <p style=""font-size: 20px; font-weight: bold; margin: 0;"">Is there a person in this image?</p>
                    </div>
                </div>","1","main_experiment_trial","4","museum_causal","causal_sequence","randomized","","","","",""
"","","","","","html-keyboard-response","170","204720","0.0-170.0","DBFA2F62B5974D349D1F5851E372E824","019cf9df-fc9a-78b9-b8e2-bb9d0b928390","019cf9ba-391a-7c7b-96b9-3757895c469c","","null","
                <div class=""stimulus-container"">
                    <img src=""images/causal_sequence/museum_causal/museum_causal_9.png"" class=""exp-image"">
                    <div class=""question-area""></div> 
                </div>","null","","","","","","","","","",""
"","","","","","html-button-response","171","205063","0.0-171.0","DBFA2F62B5974D349D1F5851E372E824","019cf9df-fc9a-78b9-b8e2-bb9d0b928390","019cf9ba-391a-7c7b-96b9-3757895c469c","","341","
                <div class=""stimulus-container"">
                    <img src=""images/causal_sequence/museum_causal/museum_causal_9.png"" class=""exp-image"">
                    <div class=""question-area"">
                        <p style=""font-size: 20px; font-weight: bold; margin: 0;"">Is there a person in this image?</p>
                    </div>
                </div>","1","main_experiment_trial","9","museum_causal","causal_sequence","randomized","","","","",""
"","","","","","html-keyboard-response","172","206079","0.0-172.0","DBFA2F62B5974D349D1F5851E372E824","019cf9df-fc9a-78b9-b8e2-bb9d0b928390","019cf9ba-391a-7c7b-96b9-3757895c469c","","null","
                <div class=""stimulus-container"">
                    <img src=""images/causal_sequence/museum_causal/museum_causal_ten.png"" class=""exp-image"">
                    <div class=""question-area""></div> 
                </div>","null","","","","","","","","","",""
"","","","","","html-button-response","173","206397","0.0-173.0","DBFA2F62B5974D349D1F5851E372E824","019cf9df-fc9a-78b9-b8e2-bb9d0b928390","019cf9ba-391a-7c7b-96b9-3757895c469c","","316","
                <div class=""stimulus-container"">
                    <img src=""images/causal_sequence/museum_causal/museum_causal_ten.png"" class=""exp-image"">
                    <div class=""question-area"">
                        <p style=""font-size: 20px; font-weight: bold; margin: 0;"">Is there a person in this image?</p>
                    </div>
                </div>","0","main_experiment_trial","ten","museum_causal","causal_sequence","randomized","","","","",""
"","","","","","html-keyboard-response","174","207407","0.0-174.0","DBFA2F62B5974D349D1F5851E372E824","019cf9df-fc9a-78b9-b8e2-bb9d0b928390","019cf9ba-391a-7c7b-96b9-3757895c469c","","null","
                <div class=""stimulus-container"">
                    <img src=""images/causal_sequence/museum_causal/museum_causal_6.png"" class=""exp-image"">
                    <div class=""question-area""></div> 
                </div>","null","","","","","","","","","",""
"","","","","","html-button-response","175","207685","0.0-175.0","DBFA2F62B5974D349D1F5851E372E824","019cf9df-fc9a-78b9-b8e2-bb9d0b928390","019cf9ba-391a-7c7b-96b9-3757895c469c","","277","
                <div class=""stimulus-container"">
                    <img src=""images/causal_sequence/museum_causal/museum_causal_6.png"" class=""exp-image"">
                    <div class=""question-area"">
                        <p style=""font-size: 20px; font-weight: bold; margin: 0;"">Is there a person in this image?</p>
                    </div>
                </div>","0","main_experiment_trial","6","museum_causal","causal_sequence","randomized","","","","",""
"","","","","","html-keyboard-response","176","208700","0.0-176.0","DBFA2F62B5974D349D1F5851E372E824","019cf9df-fc9a-78b9-b8e2-bb9d0b928390","019cf9ba-391a-7c7b-96b9-3757895c469c","","null","
                <div class=""stimulus-container"">
                    <img src=""images/causal_sequence/museum_causal/museum_causal_1.png"" class=""exp-image"">
                    <div class=""question-area""></div> 
                </div>","null","","","","","","","","","",""
"","","","","","html-button-response","177","208885","0.0-177.0","DBFA2F62B5974D349D1F5851E372E824","019cf9df-fc9a-78b9-b8e2-bb9d0b928390","019cf9ba-391a-7c7b-96b9-3757895c469c","","184","
                <div class=""stimulus-container"">
                    <img src=""images/causal_sequence/museum_causal/museum_causal_1.png"" class=""exp-image"">
                    <div class=""question-area"">
                        <p style=""font-size: 20px; font-weight: bold; margin: 0;"">Is there a person in this image?</p>
                    </div>
                </div>","0","main_experiment_trial","1","museum_causal","causal_sequence","randomized","","","","",""
"","","","","","html-keyboard-response","178","209886","0.0-178.0","DBFA2F62B5974D349D1F5851E372E824","019cf9df-fc9a-78b9-b8e2-bb9d0b928390","019cf9ba-391a-7c7b-96b9-3757895c469c","","null","
                <div class=""stimulus-container"">
                    <img src=""images/causal_sequence/museum_causal/museum_causal_2.png"" class=""exp-image"">
                    <div class=""question-area""></div> 
                </div>","null","","","","","","","","","",""
