"success","timeout","failed_images","failed_audio","failed_video","trial_type","trial_index","time_elapsed","internal_node_id","subject_id","study_id","session_id","view_history","rt","stimulus","response","task","image_index","folder","sequence_type","presentation_order","valuable_image_index","reward_type","chosen_image_index","target_X","correct_choice"
"true","false","[]","[]","[]","preload","0","4536","0.0-0.0","AA9B8E16C65A451AAB59976953C5C734","019cf99a-dea9-7f5e-8f2b-163c205fdc34","019cf974-7aee-7bc9-8ea4-9f55741b365d","","","","","","","","","","","","","",""
"","","","","","instructions","1","12060","0.0-1.0","AA9B8E16C65A451AAB59976953C5C734","019cf99a-dea9-7f5e-8f2b-163c205fdc34","019cf974-7aee-7bc9-8ea4-9f55741b365d","[{""page_index"":0,""viewing_time"":7523}]","7524","","","","","","","","","","","",""
"","","","","","instructions","2","15981","0.0-2.0","AA9B8E16C65A451AAB59976953C5C734","019cf99a-dea9-7f5e-8f2b-163c205fdc34","019cf974-7aee-7bc9-8ea4-9f55741b365d","[{""page_index"":0,""viewing_time"":3921}]","3921","","","","","","","","","","","",""
"true","","","","","fullscreen","3","18378","0.0-3.0","AA9B8E16C65A451AAB59976953C5C734","019cf99a-dea9-7f5e-8f2b-163c205fdc34","019cf974-7aee-7bc9-8ea4-9f55741b365d","","1390","","","","","","","","","","","",""
"","","","","","instructions","4","25553","0.0-4.0","AA9B8E16C65A451AAB59976953C5C734","019cf99a-dea9-7f5e-8f2b-163c205fdc34","019cf974-7aee-7bc9-8ea4-9f55741b365d","[{""page_index"":0,""viewing_time"":7174}]","7174","","","","","","","","","","","",""
"","","","","","instructions","5","27681","0.0-5.0","AA9B8E16C65A451AAB59976953C5C734","019cf99a-dea9-7f5e-8f2b-163c205fdc34","019cf974-7aee-7bc9-8ea4-9f55741b365d","[{""page_index"":0,""viewing_time"":2127}]","2128","","","","","","","","","","","",""
"","","","","","html-keyboard-response","6","31690","0.0-6.0","AA9B8E16C65A451AAB59976953C5C734","019cf99a-dea9-7f5e-8f2b-163c205fdc34","019cf974-7aee-7bc9-8ea4-9f55741b365d","","null","
                <div class=""stimulus-container"">
                    <img src=""images/instructions/movie_1.png"" class=""exp-image"">
                    <div class=""question-area""></div> 
                </div>","null","","","","","","","","","",""
"","","","","","html-button-response","7","34693","0.0-7.0","AA9B8E16C65A451AAB59976953C5C734","019cf99a-dea9-7f5e-8f2b-163c205fdc34","019cf974-7aee-7bc9-8ea4-9f55741b365d","","null","
                <div class=""stimulus-container"">
                    <img src=""images/instructions/movie_1.png"" class=""exp-image"">
                    <div class=""question-area"">
                        <p style=""font-size: 20px; font-weight: bold; margin: 0;"">Was there a person in this image?</p>
                    </div>
                </div>","null","example_question","1","","","","","","","",""
"","","","","","html-keyboard-response","8","38697","0.0-8.0","AA9B8E16C65A451AAB59976953C5C734","019cf99a-dea9-7f5e-8f2b-163c205fdc34","019cf974-7aee-7bc9-8ea4-9f55741b365d","","null","
                <div class=""stimulus-container"">
                    <img src=""images/instructions/movie_2.png"" class=""exp-image"">
                    <div class=""question-area""></div> 
                </div>","null","","","","","","","","","",""
"","","","","","html-button-response","9","39719","0.0-9.0","AA9B8E16C65A451AAB59976953C5C734","019cf99a-dea9-7f5e-8f2b-163c205fdc34","019cf974-7aee-7bc9-8ea4-9f55741b365d","","1021","
                <div class=""stimulus-container"">
                    <img src=""images/instructions/movie_2.png"" class=""exp-image"">
                    <div class=""question-area"">
                        <p style=""font-size: 20px; font-weight: bold; margin: 0;"">Was there a person in this image?</p>
                    </div>
                </div>","1","example_question","2","","","","","","","",""
"","","","","","html-keyboard-response","10","43735","0.0-10.0","AA9B8E16C65A451AAB59976953C5C734","019cf99a-dea9-7f5e-8f2b-163c205fdc34","019cf974-7aee-7bc9-8ea4-9f55741b365d","","null","
                <div class=""stimulus-container"">
                    <img src=""images/instructions/movie_3.png"" class=""exp-image"">
                    <div class=""question-area""></div> 
                </div>","null","","","","","","","","","",""
"","","","","","html-button-response","11","44310","0.0-11.0","AA9B8E16C65A451AAB59976953C5C734","019cf99a-dea9-7f5e-8f2b-163c205fdc34","019cf974-7aee-7bc9-8ea4-9f55741b365d","","574","
                <div class=""stimulus-container"">
                    <img src=""images/instructions/movie_3.png"" class=""exp-image"">
                    <div class=""question-area"">
                        <p style=""font-size: 20px; font-weight: bold; margin: 0;"">Was there a person in this image?</p>
                    </div>
                </div>","0","example_question","3","","","","","","","",""
"","","","","","html-keyboard-response","12","48324","0.0-12.0","AA9B8E16C65A451AAB59976953C5C734","019cf99a-dea9-7f5e-8f2b-163c205fdc34","019cf974-7aee-7bc9-8ea4-9f55741b365d","","null","
                <div class=""stimulus-container"">
                    <img src=""images/instructions/movie_4.png"" class=""exp-image"">
                    <div class=""question-area""></div> 
                </div>","null","","","","","","","","","",""
"","","","","","html-button-response","13","48741","0.0-13.0","AA9B8E16C65A451AAB59976953C5C734","019cf99a-dea9-7f5e-8f2b-163c205fdc34","019cf974-7aee-7bc9-8ea4-9f55741b365d","","416","
                <div class=""stimulus-container"">
                    <img src=""images/instructions/movie_4.png"" class=""exp-image"">
                    <div class=""question-area"">
                        <p style=""font-size: 20px; font-weight: bold; margin: 0;"">Was there a person in this image?</p>
                    </div>
                </div>","0","example_question","4","","","","","","","",""
"","","","","","instructions","14","50380","0.0-14.0","AA9B8E16C65A451AAB59976953C5C734","019cf99a-dea9-7f5e-8f2b-163c205fdc34","019cf974-7aee-7bc9-8ea4-9f55741b365d","[{""page_index"":0,""viewing_time"":1638}]","1639","","","","","","","","","","","",""
"","","","","","instructions","15","51942","0.0-15.0","AA9B8E16C65A451AAB59976953C5C734","019cf99a-dea9-7f5e-8f2b-163c205fdc34","019cf974-7aee-7bc9-8ea4-9f55741b365d","[{""page_index"":0,""viewing_time"":1561}]","1562","","","","","","","","","","","",""
"","","","","","html-keyboard-response","16","56943","0.0-16.0","AA9B8E16C65A451AAB59976953C5C734","019cf99a-dea9-7f5e-8f2b-163c205fdc34","019cf974-7aee-7bc9-8ea4-9f55741b365d","","null","<div style=""background-color: white; width: 100vw; height: 100vh;""></div>","null","","","","","","","","","",""
"","","","","","html-keyboard-response","17","57951","0.0-17.0","AA9B8E16C65A451AAB59976953C5C734","019cf99a-dea9-7f5e-8f2b-163c205fdc34","019cf974-7aee-7bc9-8ea4-9f55741b365d","","null","
                <div class=""stimulus-container"">
                    <img src=""images/causal_sequence/saving_a_cat_causal/saving_a_cat_causal_ten.png"" class=""exp-image"">
                    <div class=""question-area""></div> 
                </div>","null","","","","","","","","","",""
"","","","","","html-button-response","18","58692","0.0-18.0","AA9B8E16C65A451AAB59976953C5C734","019cf99a-dea9-7f5e-8f2b-163c205fdc34","019cf974-7aee-7bc9-8ea4-9f55741b365d","","740","
                <div class=""stimulus-container"">
                    <img src=""images/causal_sequence/saving_a_cat_causal/saving_a_cat_causal_ten.png"" class=""exp-image"">
                    <div class=""question-area"">
                        <p style=""font-size: 20px; font-weight: bold; margin: 0;"">Is there a person in this image?</p>
                    </div>
                </div>","0","main_experiment_trial","ten","saving_a_cat_causal","causal_sequence","randomized","","","","",""
"","","","","","html-keyboard-response","19","59700","0.0-19.0","AA9B8E16C65A451AAB59976953C5C734","019cf99a-dea9-7f5e-8f2b-163c205fdc34","019cf974-7aee-7bc9-8ea4-9f55741b365d","","null","
                <div class=""stimulus-container"">
                    <img src=""images/causal_sequence/saving_a_cat_causal/saving_a_cat_causal_5.png"" class=""exp-image"">
                    <div class=""question-area""></div> 
                </div>","null","","","","","","","","","",""
"","","","","","html-button-response","20","60596","0.0-20.0","AA9B8E16C65A451AAB59976953C5C734","019cf99a-dea9-7f5e-8f2b-163c205fdc34","019cf974-7aee-7bc9-8ea4-9f55741b365d","","895","
                <div class=""stimulus-container"">
                    <img src=""images/causal_sequence/saving_a_cat_causal/saving_a_cat_causal_5.png"" class=""exp-image"">
                    <div class=""question-area"">
                        <p style=""font-size: 20px; font-weight: bold; margin: 0;"">Is there a person in this image?</p>
                    </div>
                </div>","0","main_experiment_trial","5","saving_a_cat_causal","causal_sequence","randomized","","","","",""
"","","","","","html-keyboard-response","21","61605","0.0-21.0","AA9B8E16C65A451AAB59976953C5C734","019cf99a-dea9-7f5e-8f2b-163c205fdc34","019cf974-7aee-7bc9-8ea4-9f55741b365d","","null","
                <div class=""stimulus-container"">
                    <img src=""images/causal_sequence/saving_a_cat_causal/saving_a_cat_causal_8.png"" class=""exp-image"">
                    <div class=""question-area""></div> 
                </div>","null","","","","","","","","","",""
"","","","","","html-button-response","22","62909","0.0-22.0","AA9B8E16C65A451AAB59976953C5C734","019cf99a-dea9-7f5e-8f2b-163c205fdc34","019cf974-7aee-7bc9-8ea4-9f55741b365d","","1303","
                <div class=""stimulus-container"">
                    <img src=""images/causal_sequence/saving_a_cat_causal/saving_a_cat_causal_8.png"" class=""exp-image"">
                    <div class=""question-area"">
                        <p style=""font-size: 20px; font-weight: bold; margin: 0;"">Is there a person in this image?</p>
                    </div>
                </div>","1","main_experiment_trial","8","saving_a_cat_causal","causal_sequence","randomized","","","","",""
"","","","","","html-keyboard-response","23","63910","0.0-23.0","AA9B8E16C65A451AAB59976953C5C734","019cf99a-dea9-7f5e-8f2b-163c205fdc34","019cf974-7aee-7bc9-8ea4-9f55741b365d","","null","
                <div class=""stimulus-container"">
                    <img src=""images/causal_sequence/saving_a_cat_causal/saving_a_cat_causal_4.png"" class=""exp-image"">
                    <div class=""question-area""></div> 
                </div>","null","","","","","","","","","",""
"","","","","","html-button-response","24","64658","0.0-24.0","AA9B8E16C65A451AAB59976953C5C734","019cf99a-dea9-7f5e-8f2b-163c205fdc34","019cf974-7aee-7bc9-8ea4-9f55741b365d","","747","
                <div class=""stimulus-container"">
                    <img src=""images/causal_sequence/saving_a_cat_causal/saving_a_cat_causal_4.png"" class=""exp-image"">
                    <div class=""question-area"">
                        <p style=""font-size: 20px; font-weight: bold; margin: 0;"">Is there a person in this image?</p>
                    </div>
                </div>","1","main_experiment_trial","4","saving_a_cat_causal","causal_sequence","randomized","","","","",""
"","","","","","html-keyboard-response","25","65660","0.0-25.0","AA9B8E16C65A451AAB59976953C5C734","019cf99a-dea9-7f5e-8f2b-163c205fdc34","019cf974-7aee-7bc9-8ea4-9f55741b365d","","null","
                <div class=""stimulus-container"">
                    <img src=""images/causal_sequence/saving_a_cat_causal/saving_a_cat_causal_2.png"" class=""exp-image"">
                    <div class=""question-area""></div> 
                </div>","null","","","","","","","","","",""
"","","","","","html-button-response","26","66367","0.0-26.0","AA9B8E16C65A451AAB59976953C5C734","019cf99a-dea9-7f5e-8f2b-163c205fdc34","019cf974-7aee-7bc9-8ea4-9f55741b365d","","707","
                <div class=""stimulus-container"">
                    <img src=""images/causal_sequence/saving_a_cat_causal/saving_a_cat_causal_2.png"" class=""exp-image"">
                    <div class=""question-area"">
                        <p style=""font-size: 20px; font-weight: bold; margin: 0;"">Is there a person in this image?</p>
                    </div>
                </div>","1","main_experiment_trial","2","saving_a_cat_causal","causal_sequence","randomized","","","","",""
"","","","","","html-keyboard-response","27","67373","0.0-27.0","AA9B8E16C65A451AAB59976953C5C734","019cf99a-dea9-7f5e-8f2b-163c205fdc34","019cf974-7aee-7bc9-8ea4-9f55741b365d","","null","
                <div class=""stimulus-container"">
                    <img src=""images/causal_sequence/saving_a_cat_causal/saving_a_cat_causal_7.png"" class=""exp-image"">
                    <div class=""question-area""></div> 
                </div>","null","","","","","","","","","",""
"","","","","","html-button-response","28","68702","0.0-28.0","AA9B8E16C65A451AAB59976953C5C734","019cf99a-dea9-7f5e-8f2b-163c205fdc34","019cf974-7aee-7bc9-8ea4-9f55741b365d","","1329","
                <div class=""stimulus-container"">
                    <img src=""images/causal_sequence/saving_a_cat_causal/saving_a_cat_causal_7.png"" class=""exp-image"">
                    <div class=""question-area"">
                        <p style=""font-size: 20px; font-weight: bold; margin: 0;"">Is there a person in this image?</p>
                    </div>
                </div>","0","main_experiment_trial","7","saving_a_cat_causal","causal_sequence","randomized","","","","",""
"","","","","","html-keyboard-response","29","69703","0.0-29.0","AA9B8E16C65A451AAB59976953C5C734","019cf99a-dea9-7f5e-8f2b-163c205fdc34","019cf974-7aee-7bc9-8ea4-9f55741b365d","","null","
                <div class=""stimulus-container"">
                    <img src=""images/causal_sequence/saving_a_cat_causal/saving_a_cat_causal_6.png"" class=""exp-image"">
                    <div class=""question-area""></div> 
                </div>","null","","","","","","","","","",""
"","","","","","html-button-response","30","70258","0.0-30.0","AA9B8E16C65A451AAB59976953C5C734","019cf99a-dea9-7f5e-8f2b-163c205fdc34","019cf974-7aee-7bc9-8ea4-9f55741b365d","","554","
                <div class=""stimulus-container"">
                    <img src=""images/causal_sequence/saving_a_cat_causal/saving_a_cat_causal_6.png"" class=""exp-image"">
                    <div class=""question-area"">
                        <p style=""font-size: 20px; font-weight: bold; margin: 0;"">Is there a person in this image?</p>
                    </div>
                </div>","0","main_experiment_trial","6","saving_a_cat_causal","causal_sequence","randomized","","","","",""
"","","","","","html-keyboard-response","31","71270","0.0-31.0","AA9B8E16C65A451AAB59976953C5C734","019cf99a-dea9-7f5e-8f2b-163c205fdc34","019cf974-7aee-7bc9-8ea4-9f55741b365d","","null","
                <div class=""stimulus-container"">
                    <img src=""images/causal_sequence/saving_a_cat_causal/saving_a_cat_causal_9.png"" class=""exp-image"">
                    <div class=""question-area""></div> 
                </div>","null","","","","","","","","","",""
"","","","","","html-button-response","32","71805","0.0-32.0","AA9B8E16C65A451AAB59976953C5C734","019cf99a-dea9-7f5e-8f2b-163c205fdc34","019cf974-7aee-7bc9-8ea4-9f55741b365d","","534","
                <div class=""stimulus-container"">
                    <img src=""images/causal_sequence/saving_a_cat_causal/saving_a_cat_causal_9.png"" class=""exp-image"">
                    <div class=""question-area"">
                        <p style=""font-size: 20px; font-weight: bold; margin: 0;"">Is there a person in this image?</p>
                    </div>
                </div>","0","main_experiment_trial","9","saving_a_cat_causal","causal_sequence","randomized","","","","",""
"","","","","","html-keyboard-response","33","72806","0.0-33.0","AA9B8E16C65A451AAB59976953C5C734","019cf99a-dea9-7f5e-8f2b-163c205fdc34","019cf974-7aee-7bc9-8ea4-9f55741b365d","","null","
                <div class=""stimulus-container"">
                    <img src=""images/causal_sequence/saving_a_cat_causal/saving_a_cat_causal_1.png"" class=""exp-image"">
                    <div class=""question-area""></div> 
                </div>","null","","","","","","","","","",""
"","","","","","html-button-response","34","73312","0.0-34.0","AA9B8E16C65A451AAB59976953C5C734","019cf99a-dea9-7f5e-8f2b-163c205fdc34","019cf974-7aee-7bc9-8ea4-9f55741b365d","","504","
                <div class=""stimulus-container"">
                    <img src=""images/causal_sequence/saving_a_cat_causal/saving_a_cat_causal_1.png"" class=""exp-image"">
                    <div class=""question-area"">
                        <p style=""font-size: 20px; font-weight: bold; margin: 0;"">Is there a person in this image?</p>
                    </div>
                </div>","0","main_experiment_trial","1","saving_a_cat_causal","causal_sequence","randomized","","","","",""
"","","","","","html-keyboard-response","35","74323","0.0-35.0","AA9B8E16C65A451AAB59976953C5C734","019cf99a-dea9-7f5e-8f2b-163c205fdc34","019cf974-7aee-7bc9-8ea4-9f55741b365d","","null","
                <div class=""stimulus-container"">
                    <img src=""images/causal_sequence/saving_a_cat_causal/saving_a_cat_causal_3.png"" class=""exp-image"">
                    <div class=""question-area""></div> 
                </div>","null","","","","","","","","","",""
"","","","","","html-button-response","36","74907","0.0-36.0","AA9B8E16C65A451AAB59976953C5C734","019cf99a-dea9-7f5e-8f2b-163c205fdc34","019cf974-7aee-7bc9-8ea4-9f55741b365d","","583","
                <div class=""stimulus-container"">
                    <img src=""images/causal_sequence/saving_a_cat_causal/saving_a_cat_causal_3.png"" class=""exp-image"">
                    <div class=""question-area"">
                        <p style=""font-size: 20px; font-weight: bold; margin: 0;"">Is there a person in this image?</p>
                    </div>
                </div>","1","main_experiment_trial","3","saving_a_cat_causal","causal_sequence","randomized","","","","",""
"","","","","","html-keyboard-response","37","79911","0.0-37.0","AA9B8E16C65A451AAB59976953C5C734","019cf99a-dea9-7f5e-8f2b-163c205fdc34","019cf974-7aee-7bc9-8ea4-9f55741b365d","","null","<div style=""background-color: white; width: 100vw; height: 100vh;""></div>","null","","","","","","","","","",""
"","","","","","html-keyboard-response","38","80917","0.0-38.0","AA9B8E16C65A451AAB59976953C5C734","019cf99a-dea9-7f5e-8f2b-163c205fdc34","019cf974-7aee-7bc9-8ea4-9f55741b365d","","null","
                <div class=""stimulus-container"">
                    <img src=""images/semantic_sequence/exploring_nature_semantic/exploring_nature_semantic_4.png"" class=""exp-image"">
                    <div class=""question-area""></div> 
                </div>","null","","","","","","","","","",""
"","","","","","html-button-response","39","81625","0.0-39.0","AA9B8E16C65A451AAB59976953C5C734","019cf99a-dea9-7f5e-8f2b-163c205fdc34","019cf974-7aee-7bc9-8ea4-9f55741b365d","","708","
                <div class=""stimulus-container"">
                    <img src=""images/semantic_sequence/exploring_nature_semantic/exploring_nature_semantic_4.png"" class=""exp-image"">
                    <div class=""question-area"">
                        <p style=""font-size: 20px; font-weight: bold; margin: 0;"">Is there a person in this image?</p>
                    </div>
                </div>","0","main_experiment_trial","4","exploring_nature_semantic","semantic_sequence","randomized","","","","",""
"","","","","","html-keyboard-response","40","82628","0.0-40.0","AA9B8E16C65A451AAB59976953C5C734","019cf99a-dea9-7f5e-8f2b-163c205fdc34","019cf974-7aee-7bc9-8ea4-9f55741b365d","","null","
                <div class=""stimulus-container"">
                    <img src=""images/semantic_sequence/exploring_nature_semantic/exploring_nature_semantic_ten.png"" class=""exp-image"">
                    <div class=""question-area""></div> 
                </div>","null","","","","","","","","","",""
"","","","","","html-button-response","41","83303","0.0-41.0","AA9B8E16C65A451AAB59976953C5C734","019cf99a-dea9-7f5e-8f2b-163c205fdc34","019cf974-7aee-7bc9-8ea4-9f55741b365d","","674","
                <div class=""stimulus-container"">
                    <img src=""images/semantic_sequence/exploring_nature_semantic/exploring_nature_semantic_ten.png"" class=""exp-image"">
                    <div class=""question-area"">
                        <p style=""font-size: 20px; font-weight: bold; margin: 0;"">Is there a person in this image?</p>
                    </div>
                </div>","0","main_experiment_trial","ten","exploring_nature_semantic","semantic_sequence","randomized","","","","",""
"","","","","","html-keyboard-response","42","84316","0.0-42.0","AA9B8E16C65A451AAB59976953C5C734","019cf99a-dea9-7f5e-8f2b-163c205fdc34","019cf974-7aee-7bc9-8ea4-9f55741b365d","","null","
                <div class=""stimulus-container"">
                    <img src=""images/semantic_sequence/exploring_nature_semantic/exploring_nature_semantic_2.png"" class=""exp-image"">
                    <div class=""question-area""></div> 
                </div>","null","","","","","","","","","",""
"","","","","","html-button-response","43","84828","0.0-43.0","AA9B8E16C65A451AAB59976953C5C734","019cf99a-dea9-7f5e-8f2b-163c205fdc34","019cf974-7aee-7bc9-8ea4-9f55741b365d","","512","
                <div class=""stimulus-container"">
                    <img src=""images/semantic_sequence/exploring_nature_semantic/exploring_nature_semantic_2.png"" class=""exp-image"">
                    <div class=""question-area"">
                        <p style=""font-size: 20px; font-weight: bold; margin: 0;"">Is there a person in this image?</p>
                    </div>
                </div>","0","main_experiment_trial","2","exploring_nature_semantic","semantic_sequence","randomized","","","","",""
"","","","","","html-keyboard-response","44","85834","0.0-44.0","AA9B8E16C65A451AAB59976953C5C734","019cf99a-dea9-7f5e-8f2b-163c205fdc34","019cf974-7aee-7bc9-8ea4-9f55741b365d","","null","
                <div class=""stimulus-container"">
                    <img src=""images/semantic_sequence/exploring_nature_semantic/exploring_nature_semantic_1.png"" class=""exp-image"">
                    <div class=""question-area""></div> 
                </div>","null","","","","","","","","","",""
"","","","","","html-button-response","45","86309","0.0-45.0","AA9B8E16C65A451AAB59976953C5C734","019cf99a-dea9-7f5e-8f2b-163c205fdc34","019cf974-7aee-7bc9-8ea4-9f55741b365d","","474","
                <div class=""stimulus-container"">
                    <img src=""images/semantic_sequence/exploring_nature_semantic/exploring_nature_semantic_1.png"" class=""exp-image"">
                    <div class=""question-area"">
                        <p style=""font-size: 20px; font-weight: bold; margin: 0;"">Is there a person in this image?</p>
                    </div>
                </div>","0","main_experiment_trial","1","exploring_nature_semantic","semantic_sequence","randomized","","","","",""
"","","","","","html-keyboard-response","46","87311","0.0-46.0","AA9B8E16C65A451AAB59976953C5C734","019cf99a-dea9-7f5e-8f2b-163c205fdc34","019cf974-7aee-7bc9-8ea4-9f55741b365d","","null","
                <div class=""stimulus-container"">
                    <img src=""images/semantic_sequence/exploring_nature_semantic/exploring_nature_semantic_6.png"" class=""exp-image"">
                    <div class=""question-area""></div> 
                </div>","null","","","","","","","","","",""
"","","","","","html-button-response","47","87764","0.0-47.0","AA9B8E16C65A451AAB59976953C5C734","019cf99a-dea9-7f5e-8f2b-163c205fdc34","019cf974-7aee-7bc9-8ea4-9f55741b365d","","452","
                <div class=""stimulus-container"">
                    <img src=""images/semantic_sequence/exploring_nature_semantic/exploring_nature_semantic_6.png"" class=""exp-image"">
                    <div class=""question-area"">
                        <p style=""font-size: 20px; font-weight: bold; margin: 0;"">Is there a person in this image?</p>
                    </div>
                </div>","0","main_experiment_trial","6","exploring_nature_semantic","semantic_sequence","randomized","","","","",""
"","","","","","html-keyboard-response","48","88768","0.0-48.0","AA9B8E16C65A451AAB59976953C5C734","019cf99a-dea9-7f5e-8f2b-163c205fdc34","019cf974-7aee-7bc9-8ea4-9f55741b365d","","null","
                <div class=""stimulus-container"">
                    <img src=""images/semantic_sequence/exploring_nature_semantic/exploring_nature_semantic_3.png"" class=""exp-image"">
                    <div class=""question-area""></div> 
                </div>","null","","","","","","","","","",""
"","","","","","html-button-response","49","89327","0.0-49.0","AA9B8E16C65A451AAB59976953C5C734","019cf99a-dea9-7f5e-8f2b-163c205fdc34","019cf974-7aee-7bc9-8ea4-9f55741b365d","","558","
                <div class=""stimulus-container"">
                    <img src=""images/semantic_sequence/exploring_nature_semantic/exploring_nature_semantic_3.png"" class=""exp-image"">
                    <div class=""question-area"">
                        <p style=""font-size: 20px; font-weight: bold; margin: 0;"">Is there a person in this image?</p>
                    </div>
                </div>","0","main_experiment_trial","3","exploring_nature_semantic","semantic_sequence","randomized","","","","",""
"","","","","","html-keyboard-response","50","90335","0.0-50.0","AA9B8E16C65A451AAB59976953C5C734","019cf99a-dea9-7f5e-8f2b-163c205fdc34","019cf974-7aee-7bc9-8ea4-9f55741b365d","","null","
                <div class=""stimulus-container"">
                    <img src=""images/semantic_sequence/exploring_nature_semantic/exploring_nature_semantic_9.png"" class=""exp-image"">
                    <div class=""question-area""></div> 
                </div>","null","","","","","","","","","",""
"","","","","","html-button-response","51","90915","0.0-51.0","AA9B8E16C65A451AAB59976953C5C734","019cf99a-dea9-7f5e-8f2b-163c205fdc34","019cf974-7aee-7bc9-8ea4-9f55741b365d","","580","
                <div class=""stimulus-container"">
                    <img src=""images/semantic_sequence/exploring_nature_semantic/exploring_nature_semantic_9.png"" class=""exp-image"">
                    <div class=""question-area"">
                        <p style=""font-size: 20px; font-weight: bold; margin: 0;"">Is there a person in this image?</p>
                    </div>
                </div>","0","main_experiment_trial","9","exploring_nature_semantic","semantic_sequence","randomized","","","","",""
"","","","","","html-keyboard-response","52","91930","0.0-52.0","AA9B8E16C65A451AAB59976953C5C734","019cf99a-dea9-7f5e-8f2b-163c205fdc34","019cf974-7aee-7bc9-8ea4-9f55741b365d","","null","
                <div class=""stimulus-container"">
                    <img src=""images/semantic_sequence/exploring_nature_semantic/exploring_nature_semantic_7.png"" class=""exp-image"">
                    <div class=""question-area""></div> 
                </div>","null","","","","","","","","","",""
"","","","","","html-button-response","53","92476","0.0-53.0","AA9B8E16C65A451AAB59976953C5C734","019cf99a-dea9-7f5e-8f2b-163c205fdc34","019cf974-7aee-7bc9-8ea4-9f55741b365d","","545","
                <div class=""stimulus-container"">
                    <img src=""images/semantic_sequence/exploring_nature_semantic/exploring_nature_semantic_7.png"" class=""exp-image"">
                    <div class=""question-area"">
                        <p style=""font-size: 20px; font-weight: bold; margin: 0;"">Is there a person in this image?</p>
                    </div>
                </div>","0","main_experiment_trial","7","exploring_nature_semantic","semantic_sequence","randomized","","","","",""
"","","","","","html-keyboard-response","54","93478","0.0-54.0","AA9B8E16C65A451AAB59976953C5C734","019cf99a-dea9-7f5e-8f2b-163c205fdc34","019cf974-7aee-7bc9-8ea4-9f55741b365d","","null","
                <div class=""stimulus-container"">
                    <img src=""images/semantic_sequence/exploring_nature_semantic/exploring_nature_semantic_8.png"" class=""exp-image"">
                    <div class=""question-area""></div> 
                </div>","null","","","","","","","","","",""
"","","","","","html-button-response","55","93942","0.0-55.0","AA9B8E16C65A451AAB59976953C5C734","019cf99a-dea9-7f5e-8f2b-163c205fdc34","019cf974-7aee-7bc9-8ea4-9f55741b365d","","463","
                <div class=""stimulus-container"">
                    <img src=""images/semantic_sequence/exploring_nature_semantic/exploring_nature_semantic_8.png"" class=""exp-image"">
                    <div class=""question-area"">
                        <p style=""font-size: 20px; font-weight: bold; margin: 0;"">Is there a person in this image?</p>
                    </div>
                </div>","0","main_experiment_trial","8","exploring_nature_semantic","semantic_sequence","randomized","","","","",""
"","","","","","html-keyboard-response","56","94943","0.0-56.0","AA9B8E16C65A451AAB59976953C5C734","019cf99a-dea9-7f5e-8f2b-163c205fdc34","019cf974-7aee-7bc9-8ea4-9f55741b365d","","null","
                <div class=""stimulus-container"">
                    <img src=""images/semantic_sequence/exploring_nature_semantic/exploring_nature_semantic_5.png"" class=""exp-image"">
                    <div class=""question-area""></div> 
                </div>","null","","","","","","","","","",""
"","","","","","html-button-response","57","95357","0.0-57.0","AA9B8E16C65A451AAB59976953C5C734","019cf99a-dea9-7f5e-8f2b-163c205fdc34","019cf974-7aee-7bc9-8ea4-9f55741b365d","","413","
                <div class=""stimulus-container"">
                    <img src=""images/semantic_sequence/exploring_nature_semantic/exploring_nature_semantic_5.png"" class=""exp-image"">
                    <div class=""question-area"">
                        <p style=""font-size: 20px; font-weight: bold; margin: 0;"">Is there a person in this image?</p>
                    </div>
                </div>","0","main_experiment_trial","5","exploring_nature_semantic","semantic_sequence","randomized","","","","",""
"","","","","","html-keyboard-response","58","100373","0.0-58.0","AA9B8E16C65A451AAB59976953C5C734","019cf99a-dea9-7f5e-8f2b-163c205fdc34","019cf974-7aee-7bc9-8ea4-9f55741b365d","","null","<div style=""background-color: white; width: 100vw; height: 100vh;""></div>","null","","","","","","","","","",""
"","","","","","html-keyboard-response","59","101376","0.0-59.0","AA9B8E16C65A451AAB59976953C5C734","019cf99a-dea9-7f5e-8f2b-163c205fdc34","019cf974-7aee-7bc9-8ea4-9f55741b365d","","null","
                <div class=""stimulus-container"">
                    <img src=""images/semantic_sequence/market_semantic/market_semantic_ten.png"" class=""exp-image"">
                    <div class=""question-area""></div> 
                </div>","null","","","","","","","","","",""
"","","","","","html-button-response","60","101893","0.0-60.0","AA9B8E16C65A451AAB59976953C5C734","019cf99a-dea9-7f5e-8f2b-163c205fdc34","019cf974-7aee-7bc9-8ea4-9f55741b365d","","516","
                <div class=""stimulus-container"">
                    <img src=""images/semantic_sequence/market_semantic/market_semantic_ten.png"" class=""exp-image"">
                    <div class=""question-area"">
                        <p style=""font-size: 20px; font-weight: bold; margin: 0;"">Is there a person in this image?</p>
                    </div>
                </div>","1","main_experiment_trial","ten","market_semantic","semantic_sequence","randomized","","","","",""
"","","","","","html-keyboard-response","61","102899","0.0-61.0","AA9B8E16C65A451AAB59976953C5C734","019cf99a-dea9-7f5e-8f2b-163c205fdc34","019cf974-7aee-7bc9-8ea4-9f55741b365d","","null","
                <div class=""stimulus-container"">
                    <img src=""images/semantic_sequence/market_semantic/market_semantic_4.png"" class=""exp-image"">
                    <div class=""question-area""></div> 
                </div>","null","","","","","","","","","",""
"","","","","","html-button-response","62","103300","0.0-62.0","AA9B8E16C65A451AAB59976953C5C734","019cf99a-dea9-7f5e-8f2b-163c205fdc34","019cf974-7aee-7bc9-8ea4-9f55741b365d","","401","
                <div class=""stimulus-container"">
                    <img src=""images/semantic_sequence/market_semantic/market_semantic_4.png"" class=""exp-image"">
                    <div class=""question-area"">
                        <p style=""font-size: 20px; font-weight: bold; margin: 0;"">Is there a person in this image?</p>
                    </div>
                </div>","0","main_experiment_trial","4","market_semantic","semantic_sequence","randomized","","","","",""
"","","","","","html-keyboard-response","63","104307","0.0-63.0","AA9B8E16C65A451AAB59976953C5C734","019cf99a-dea9-7f5e-8f2b-163c205fdc34","019cf974-7aee-7bc9-8ea4-9f55741b365d","","null","
                <div class=""stimulus-container"">
                    <img src=""images/semantic_sequence/market_semantic/market_semantic_3.png"" class=""exp-image"">
                    <div class=""question-area""></div> 
                </div>","null","","","","","","","","","",""
"","","","","","html-button-response","64","104874","0.0-64.0","AA9B8E16C65A451AAB59976953C5C734","019cf99a-dea9-7f5e-8f2b-163c205fdc34","019cf974-7aee-7bc9-8ea4-9f55741b365d","","567","
                <div class=""stimulus-container"">
                    <img src=""images/semantic_sequence/market_semantic/market_semantic_3.png"" class=""exp-image"">
                    <div class=""question-area"">
                        <p style=""font-size: 20px; font-weight: bold; margin: 0;"">Is there a person in this image?</p>
                    </div>
                </div>","1","main_experiment_trial","3","market_semantic","semantic_sequence","randomized","","","","",""
"","","","","","html-keyboard-response","65","105887","0.0-65.0","AA9B8E16C65A451AAB59976953C5C734","019cf99a-dea9-7f5e-8f2b-163c205fdc34","019cf974-7aee-7bc9-8ea4-9f55741b365d","","null","
                <div class=""stimulus-container"">
                    <img src=""images/semantic_sequence/market_semantic/market_semantic_2.png"" class=""exp-image"">
                    <div class=""question-area""></div> 
                </div>","null","","","","","","","","","",""
"","","","","","html-button-response","66","106228","0.0-66.0","AA9B8E16C65A451AAB59976953C5C734","019cf99a-dea9-7f5e-8f2b-163c205fdc34","019cf974-7aee-7bc9-8ea4-9f55741b365d","","341","
                <div class=""stimulus-container"">
                    <img src=""images/semantic_sequence/market_semantic/market_semantic_2.png"" class=""exp-image"">
                    <div class=""question-area"">
                        <p style=""font-size: 20px; font-weight: bold; margin: 0;"">Is there a person in this image?</p>
                    </div>
                </div>","1","main_experiment_trial","2","market_semantic","semantic_sequence","randomized","","","","",""
"","","","","","html-keyboard-response","67","107235","0.0-67.0","AA9B8E16C65A451AAB59976953C5C734","019cf99a-dea9-7f5e-8f2b-163c205fdc34","019cf974-7aee-7bc9-8ea4-9f55741b365d","","null","
                <div class=""stimulus-container"">
                    <img src=""images/semantic_sequence/market_semantic/market_semantic_1.png"" class=""exp-image"">
                    <div class=""question-area""></div> 
                </div>","null","","","","","","","","","",""
"","","","","","html-button-response","68","107592","0.0-68.0","AA9B8E16C65A451AAB59976953C5C734","019cf99a-dea9-7f5e-8f2b-163c205fdc34","019cf974-7aee-7bc9-8ea4-9f55741b365d","","355","
                <div class=""stimulus-container"">
                    <img src=""images/semantic_sequence/market_semantic/market_semantic_1.png"" class=""exp-image"">
                    <div class=""question-area"">
                        <p style=""font-size: 20px; font-weight: bold; margin: 0;"">Is there a person in this image?</p>
                    </div>
                </div>","1","main_experiment_trial","1","market_semantic","semantic_sequence","randomized","","","","",""
"","","","","","html-keyboard-response","69","108605","0.0-69.0","AA9B8E16C65A451AAB59976953C5C734","019cf99a-dea9-7f5e-8f2b-163c205fdc34","019cf974-7aee-7bc9-8ea4-9f55741b365d","","null","
                <div class=""stimulus-container"">
                    <img src=""images/semantic_sequence/market_semantic/market_semantic_7.png"" class=""exp-image"">
                    <div class=""question-area""></div> 
                </div>","null","","","","","","","","","",""
"","","","","","html-button-response","70","108970","0.0-70.0","AA9B8E16C65A451AAB59976953C5C734","019cf99a-dea9-7f5e-8f2b-163c205fdc34","019cf974-7aee-7bc9-8ea4-9f55741b365d","","364","
                <div class=""stimulus-container"">
                    <img src=""images/semantic_sequence/market_semantic/market_semantic_7.png"" class=""exp-image"">
                    <div class=""question-area"">
                        <p style=""font-size: 20px; font-weight: bold; margin: 0;"">Is there a person in this image?</p>
                    </div>
                </div>","0","main_experiment_trial","7","market_semantic","semantic_sequence","randomized","","","","",""
"","","","","","html-keyboard-response","71","109986","0.0-71.0","AA9B8E16C65A451AAB59976953C5C734","019cf99a-dea9-7f5e-8f2b-163c205fdc34","019cf974-7aee-7bc9-8ea4-9f55741b365d","","null","
                <div class=""stimulus-container"">
                    <img src=""images/semantic_sequence/market_semantic/market_semantic_8.png"" class=""exp-image"">
                    <div class=""question-area""></div> 
                </div>","null","","","","","","","","","",""
"","","","","","html-button-response","72","110346","0.0-72.0","AA9B8E16C65A451AAB59976953C5C734","019cf99a-dea9-7f5e-8f2b-163c205fdc34","019cf974-7aee-7bc9-8ea4-9f55741b365d","","360","
                <div class=""stimulus-container"">
                    <img src=""images/semantic_sequence/market_semantic/market_semantic_8.png"" class=""exp-image"">
                    <div class=""question-area"">
                        <p style=""font-size: 20px; font-weight: bold; margin: 0;"">Is there a person in this image?</p>
                    </div>
                </div>","1","main_experiment_trial","8","market_semantic","semantic_sequence","randomized","","","","",""
"","","","","","html-keyboard-response","73","111348","0.0-73.0","AA9B8E16C65A451AAB59976953C5C734","019cf99a-dea9-7f5e-8f2b-163c205fdc34","019cf974-7aee-7bc9-8ea4-9f55741b365d","","null","
                <div class=""stimulus-container"">
                    <img src=""images/semantic_sequence/market_semantic/market_semantic_5.png"" class=""exp-image"">
                    <div class=""question-area""></div> 
                </div>","null","","","","","","","","","",""
"","","","","","html-button-response","74","111744","0.0-74.0","AA9B8E16C65A451AAB59976953C5C734","019cf99a-dea9-7f5e-8f2b-163c205fdc34","019cf974-7aee-7bc9-8ea4-9f55741b365d","","395","
                <div class=""stimulus-container"">
                    <img src=""images/semantic_sequence/market_semantic/market_semantic_5.png"" class=""exp-image"">
                    <div class=""question-area"">
                        <p style=""font-size: 20px; font-weight: bold; margin: 0;"">Is there a person in this image?</p>
                    </div>
                </div>","1","main_experiment_trial","5","market_semantic","semantic_sequence","randomized","","","","",""
"","","","","","html-keyboard-response","75","112746","0.0-75.0","AA9B8E16C65A451AAB59976953C5C734","019cf99a-dea9-7f5e-8f2b-163c205fdc34","019cf974-7aee-7bc9-8ea4-9f55741b365d","","null","
                <div class=""stimulus-container"">
                    <img src=""images/semantic_sequence/market_semantic/market_semantic_6.png"" class=""exp-image"">
                    <div class=""question-area""></div> 
                </div>","null","","","","","","","","","",""
"","","","","","html-button-response","76","113373","0.0-76.0","AA9B8E16C65A451AAB59976953C5C734","019cf99a-dea9-7f5e-8f2b-163c205fdc34","019cf974-7aee-7bc9-8ea4-9f55741b365d","","627","
                <div class=""stimulus-container"">
                    <img src=""images/semantic_sequence/market_semantic/market_semantic_6.png"" class=""exp-image"">
                    <div class=""question-area"">
                        <p style=""font-size: 20px; font-weight: bold; margin: 0;"">Is there a person in this image?</p>
                    </div>
                </div>","1","main_experiment_trial","6","market_semantic","semantic_sequence","randomized","","","","",""
"","","","","","html-keyboard-response","77","114374","0.0-77.0","AA9B8E16C65A451AAB59976953C5C734","019cf99a-dea9-7f5e-8f2b-163c205fdc34","019cf974-7aee-7bc9-8ea4-9f55741b365d","","null","
                <div class=""stimulus-container"">
                    <img src=""images/semantic_sequence/market_semantic/market_semantic_9.png"" class=""exp-image"">
                    <div class=""question-area""></div> 
                </div>","null","","","","","","","","","",""
"","","","","","html-button-response","78","115495","0.0-78.0","AA9B8E16C65A451AAB59976953C5C734","019cf99a-dea9-7f5e-8f2b-163c205fdc34","019cf974-7aee-7bc9-8ea4-9f55741b365d","","1120","
                <div class=""stimulus-container"">
                    <img src=""images/semantic_sequence/market_semantic/market_semantic_9.png"" class=""exp-image"">
                    <div class=""question-area"">
                        <p style=""font-size: 20px; font-weight: bold; margin: 0;"">Is there a person in this image?</p>
                    </div>
                </div>","0","main_experiment_trial","9","market_semantic","semantic_sequence","randomized","","","","",""
"","","","","","html-keyboard-response","79","120510","0.0-79.0","AA9B8E16C65A451AAB59976953C5C734","019cf99a-dea9-7f5e-8f2b-163c205fdc34","019cf974-7aee-7bc9-8ea4-9f55741b365d","","null","<div style=""background-color: white; width: 100vw; height: 100vh;""></div>","null","","","","","","","","","",""
"","","","","","html-keyboard-response","80","121513","0.0-80.0","AA9B8E16C65A451AAB59976953C5C734","019cf99a-dea9-7f5e-8f2b-163c205fdc34","019cf974-7aee-7bc9-8ea4-9f55741b365d","","null","
                <div class=""stimulus-container"">
                    <img src=""images/causal_sequence/museum_causal/museum_causal_9.png"" class=""exp-image"">
                    <div class=""question-area""></div> 
                </div>","null","","","","","","","","","",""
"","","","","","html-button-response","81","122041","0.0-81.0","AA9B8E16C65A451AAB59976953C5C734","019cf99a-dea9-7f5e-8f2b-163c205fdc34","019cf974-7aee-7bc9-8ea4-9f55741b365d","","528","
                <div class=""stimulus-container"">
                    <img src=""images/causal_sequence/museum_causal/museum_causal_9.png"" class=""exp-image"">
                    <div class=""question-area"">
                        <p style=""font-size: 20px; font-weight: bold; margin: 0;"">Is there a person in this image?</p>
                    </div>
                </div>","1","main_experiment_trial","9","museum_causal","causal_sequence","randomized","","","","",""
"","","","","","html-keyboard-response","82","123044","0.0-82.0","AA9B8E16C65A451AAB59976953C5C734","019cf99a-dea9-7f5e-8f2b-163c205fdc34","019cf974-7aee-7bc9-8ea4-9f55741b365d","","null","
                <div class=""stimulus-container"">
                    <img src=""images/causal_sequence/museum_causal/museum_causal_1.png"" class=""exp-image"">
                    <div class=""question-area""></div> 
                </div>","null","","","","","","","","","",""
"","","","","","html-button-response","83","123452","0.0-83.0","AA9B8E16C65A451AAB59976953C5C734","019cf99a-dea9-7f5e-8f2b-163c205fdc34","019cf974-7aee-7bc9-8ea4-9f55741b365d","","407","
                <div class=""stimulus-container"">
                    <img src=""images/causal_sequence/museum_causal/museum_causal_1.png"" class=""exp-image"">
                    <div class=""question-area"">
                        <p style=""font-size: 20px; font-weight: bold; margin: 0;"">Is there a person in this image?</p>
                    </div>
                </div>","0","main_experiment_trial","1","museum_causal","causal_sequence","randomized","","","","",""
"","","","","","html-keyboard-response","84","124455","0.0-84.0","AA9B8E16C65A451AAB59976953C5C734","019cf99a-dea9-7f5e-8f2b-163c205fdc34","019cf974-7aee-7bc9-8ea4-9f55741b365d","","null","
                <div class=""stimulus-container"">
                    <img src=""images/causal_sequence/museum_causal/museum_causal_5.png"" class=""exp-image"">
                    <div class=""question-area""></div> 
                </div>","null","","","","","","","","","",""
"","","","","","html-button-response","85","124798","0.0-85.0","AA9B8E16C65A451AAB59976953C5C734","019cf99a-dea9-7f5e-8f2b-163c205fdc34","019cf974-7aee-7bc9-8ea4-9f55741b365d","","342","
                <div class=""stimulus-container"">
                    <img src=""images/causal_sequence/museum_causal/museum_causal_5.png"" class=""exp-image"">
                    <div class=""question-area"">
                        <p style=""font-size: 20px; font-weight: bold; margin: 0;"">Is there a person in this image?</p>
                    </div>
                </div>","0","main_experiment_trial","5","museum_causal","causal_sequence","randomized","","","","",""
"","","","","","html-keyboard-response","86","125800","0.0-86.0","AA9B8E16C65A451AAB59976953C5C734","019cf99a-dea9-7f5e-8f2b-163c205fdc34","019cf974-7aee-7bc9-8ea4-9f55741b365d","","null","
                <div class=""stimulus-container"">
                    <img src=""images/causal_sequence/museum_causal/museum_causal_3.png"" class=""exp-image"">
                    <div class=""question-area""></div> 
                </div>","null","","","","","","","","","",""
"","","","","","html-button-response","87","126163","0.0-87.0","AA9B8E16C65A451AAB59976953C5C734","019cf99a-dea9-7f5e-8f2b-163c205fdc34","019cf974-7aee-7bc9-8ea4-9f55741b365d","","362","
                <div class=""stimulus-container"">
                    <img src=""images/causal_sequence/museum_causal/museum_causal_3.png"" class=""exp-image"">
                    <div class=""question-area"">
                        <p style=""font-size: 20px; font-weight: bold; margin: 0;"">Is there a person in this image?</p>
                    </div>
                </div>","0","main_experiment_trial","3","museum_causal","causal_sequence","randomized","","","","",""
"","","","","","html-keyboard-response","88","127178","0.0-88.0","AA9B8E16C65A451AAB59976953C5C734","019cf99a-dea9-7f5e-8f2b-163c205fdc34","019cf974-7aee-7bc9-8ea4-9f55741b365d","","null","
                <div class=""stimulus-container"">
                    <img src=""images/causal_sequence/museum_causal/museum_causal_8.png"" class=""exp-image"">
                    <div class=""question-area""></div> 
                </div>","null","","","","","","","","","",""
"","","","","","html-button-response","89","127609","0.0-89.0","AA9B8E16C65A451AAB59976953C5C734","019cf99a-dea9-7f5e-8f2b-163c205fdc34","019cf974-7aee-7bc9-8ea4-9f55741b365d","","430","
                <div class=""stimulus-container"">
                    <img src=""images/causal_sequence/museum_causal/museum_causal_8.png"" class=""exp-image"">
                    <div class=""question-area"">
                        <p style=""font-size: 20px; font-weight: bold; margin: 0;"">Is there a person in this image?</p>
                    </div>
                </div>","0","main_experiment_trial","8","museum_causal","causal_sequence","randomized","","","","",""
"","","","","","html-keyboard-response","90","128617","0.0-90.0","AA9B8E16C65A451AAB59976953C5C734","019cf99a-dea9-7f5e-8f2b-163c205fdc34","019cf974-7aee-7bc9-8ea4-9f55741b365d","","null","
                <div class=""stimulus-container"">
                    <img src=""images/causal_sequence/museum_causal/museum_causal_6.png"" class=""exp-image"">
                    <div class=""question-area""></div> 
                </div>","null","","","","","","","","","",""
"","","","","","html-button-response","91","128945","0.0-91.0","AA9B8E16C65A451AAB59976953C5C734","019cf99a-dea9-7f5e-8f2b-163c205fdc34","019cf974-7aee-7bc9-8ea4-9f55741b365d","","328","
                <div class=""stimulus-container"">
                    <img src=""images/causal_sequence/museum_causal/museum_causal_6.png"" class=""exp-image"">
                    <div class=""question-area"">
                        <p style=""font-size: 20px; font-weight: bold; margin: 0;"">Is there a person in this image?</p>
                    </div>
                </div>","0","main_experiment_trial","6","museum_causal","causal_sequence","randomized","","","","",""
"","","","","","html-keyboard-response","92","129953","0.0-92.0","AA9B8E16C65A451AAB59976953C5C734","019cf99a-dea9-7f5e-8f2b-163c205fdc34","019cf974-7aee-7bc9-8ea4-9f55741b365d","","null","
                <div class=""stimulus-container"">
                    <img src=""images/causal_sequence/museum_causal/museum_causal_7.png"" class=""exp-image"">
                    <div class=""question-area""></div> 
                </div>","null","","","","","","","","","",""
"","","","","","html-button-response","93","130372","0.0-93.0","AA9B8E16C65A451AAB59976953C5C734","019cf99a-dea9-7f5e-8f2b-163c205fdc34","019cf974-7aee-7bc9-8ea4-9f55741b365d","","418","
                <div class=""stimulus-container"">
                    <img src=""images/causal_sequence/museum_causal/museum_causal_7.png"" class=""exp-image"">
                    <div class=""question-area"">
                        <p style=""font-size: 20px; font-weight: bold; margin: 0;"">Is there a person in this image?</p>
                    </div>
                </div>","1","main_experiment_trial","7","museum_causal","causal_sequence","randomized","","","","",""
"","","","","","html-keyboard-response","94","131380","0.0-94.0","AA9B8E16C65A451AAB59976953C5C734","019cf99a-dea9-7f5e-8f2b-163c205fdc34","019cf974-7aee-7bc9-8ea4-9f55741b365d","","null","
                <div class=""stimulus-container"">
                    <img src=""images/causal_sequence/museum_causal/museum_causal_4.png"" class=""exp-image"">
                    <div class=""question-area""></div> 
                </div>","null","","","","","","","","","",""
"","","","","","html-button-response","95","131720","0.0-95.0","AA9B8E16C65A451AAB59976953C5C734","019cf99a-dea9-7f5e-8f2b-163c205fdc34","019cf974-7aee-7bc9-8ea4-9f55741b365d","","339","
                <div class=""stimulus-container"">
                    <img src=""images/causal_sequence/museum_causal/museum_causal_4.png"" class=""exp-image"">
                    <div class=""question-area"">
                        <p style=""font-size: 20px; font-weight: bold; margin: 0;"">Is there a person in this image?</p>
                    </div>
                </div>","1","main_experiment_trial","4","museum_causal","causal_sequence","randomized","","","","",""
"","","","","","html-keyboard-response","96","132729","0.0-96.0","AA9B8E16C65A451AAB59976953C5C734","019cf99a-dea9-7f5e-8f2b-163c205fdc34","019cf974-7aee-7bc9-8ea4-9f55741b365d","","null","
                <div class=""stimulus-container"">
                    <img src=""images/causal_sequence/museum_causal/museum_causal_2.png"" class=""exp-image"">
                    <div class=""question-area""></div> 
                </div>","null","","","","","","","","","",""
"","","","","","html-button-response","97","133289","0.0-97.0","AA9B8E16C65A451AAB59976953C5C734","019cf99a-dea9-7f5e-8f2b-163c205fdc34","019cf974-7aee-7bc9-8ea4-9f55741b365d","","559","
                <div class=""stimulus-container"">
                    <img src=""images/causal_sequence/museum_causal/museum_causal_2.png"" class=""exp-image"">
                    <div class=""question-area"">
                        <p style=""font-size: 20px; font-weight: bold; margin: 0;"">Is there a person in this image?</p>
                    </div>
                </div>","1","main_experiment_trial","2","museum_causal","causal_sequence","randomized","","","","",""
"","","","","","html-keyboard-response","98","134295","0.0-98.0","AA9B8E16C65A451AAB59976953C5C734","019cf99a-dea9-7f5e-8f2b-163c205fdc34","019cf974-7aee-7bc9-8ea4-9f55741b365d","","null","
                <div class=""stimulus-container"">
                    <img src=""images/causal_sequence/museum_causal/museum_causal_ten.png"" class=""exp-image"">
                    <div class=""question-area""></div> 
                </div>","null","","","","","","","","","",""
"","","","","","html-button-response","99","134627","0.0-99.0","AA9B8E16C65A451AAB59976953C5C734","019cf99a-dea9-7f5e-8f2b-163c205fdc34","019cf974-7aee-7bc9-8ea4-9f55741b365d","","331","
                <div class=""stimulus-container"">
                    <img src=""images/causal_sequence/museum_causal/museum_causal_ten.png"" class=""exp-image"">
                    <div class=""question-area"">
                        <p style=""font-size: 20px; font-weight: bold; margin: 0;"">Is there a person in this image?</p>
                    </div>
                </div>","0","main_experiment_trial","ten","museum_causal","causal_sequence","randomized","","","","",""
"","","","","","html-keyboard-response","100","139634","0.0-100.0","AA9B8E16C65A451AAB59976953C5C734","019cf99a-dea9-7f5e-8f2b-163c205fdc34","019cf974-7aee-7bc9-8ea4-9f55741b365d","","null","<div style=""background-color: white; width: 100vw; height: 100vh;""></div>","null","","","","","","","","","",""
"","","","","","html-keyboard-response","101","140641","0.0-101.0","AA9B8E16C65A451AAB59976953C5C734","019cf99a-dea9-7f5e-8f2b-163c205fdc34","019cf974-7aee-7bc9-8ea4-9f55741b365d","","null","
                <div class=""stimulus-container"">
                    <img src=""images/causal_sequence/coin_causal/coin_causal_8.png"" class=""exp-image"">
                    <div class=""question-area""></div> 
                </div>","null","","","","","","","","","",""
"","","","","","html-button-response","102","141382","0.0-102.0","AA9B8E16C65A451AAB59976953C5C734","019cf99a-dea9-7f5e-8f2b-163c205fdc34","019cf974-7aee-7bc9-8ea4-9f55741b365d","","740","
                <div class=""stimulus-container"">
                    <img src=""images/causal_sequence/coin_causal/coin_causal_8.png"" class=""exp-image"">
                    <div class=""question-area"">
                        <p style=""font-size: 20px; font-weight: bold; margin: 0;"">Is there a person in this image?</p>
                    </div>
                </div>","0","main_experiment_trial","8","coin_causal","causal_sequence","randomized","","","","",""
"","","","","","html-keyboard-response","103","142393","0.0-103.0","AA9B8E16C65A451AAB59976953C5C734","019cf99a-dea9-7f5e-8f2b-163c205fdc34","019cf974-7aee-7bc9-8ea4-9f55741b365d","","null","
                <div class=""stimulus-container"">
                    <img src=""images/causal_sequence/coin_causal/coin_causal_6.png"" class=""exp-image"">
                    <div class=""question-area""></div> 
                </div>","null","","","","","","","","","",""
"","","","","","html-button-response","104","142773","0.0-104.0","AA9B8E16C65A451AAB59976953C5C734","019cf99a-dea9-7f5e-8f2b-163c205fdc34","019cf974-7aee-7bc9-8ea4-9f55741b365d","","380","
                <div class=""stimulus-container"">
                    <img src=""images/causal_sequence/coin_causal/coin_causal_6.png"" class=""exp-image"">
                    <div class=""question-area"">
                        <p style=""font-size: 20px; font-weight: bold; margin: 0;"">Is there a person in this image?</p>
                    </div>
                </div>","0","main_experiment_trial","6","coin_causal","causal_sequence","randomized","","","","",""
"","","","","","html-keyboard-response","105","143777","0.0-105.0","AA9B8E16C65A451AAB59976953C5C734","019cf99a-dea9-7f5e-8f2b-163c205fdc34","019cf974-7aee-7bc9-8ea4-9f55741b365d","","null","
                <div class=""stimulus-container"">
                    <img src=""images/causal_sequence/coin_causal/coin_causal_4.png"" class=""exp-image"">
                    <div class=""question-area""></div> 
                </div>","null","","","","","","","","","",""
"","","","","","html-button-response","106","144072","0.0-106.0","AA9B8E16C65A451AAB59976953C5C734","019cf99a-dea9-7f5e-8f2b-163c205fdc34","019cf974-7aee-7bc9-8ea4-9f55741b365d","","294","
                <div class=""stimulus-container"">
                    <img src=""images/causal_sequence/coin_causal/coin_causal_4.png"" class=""exp-image"">
                    <div class=""question-area"">
                        <p style=""font-size: 20px; font-weight: bold; margin: 0;"">Is there a person in this image?</p>
                    </div>
                </div>","0","main_experiment_trial","4","coin_causal","causal_sequence","randomized","","","","",""
"","","","","","html-keyboard-response","107","145080","0.0-107.0","AA9B8E16C65A451AAB59976953C5C734","019cf99a-dea9-7f5e-8f2b-163c205fdc34","019cf974-7aee-7bc9-8ea4-9f55741b365d","","null","
                <div class=""stimulus-container"">
                    <img src=""images/causal_sequence/coin_causal/coin_causal_3.png"" class=""exp-image"">
                    <div class=""question-area""></div> 
                </div>","null","","","","","","","","","",""
"","","","","","html-button-response","108","145358","0.0-108.0","AA9B8E16C65A451AAB59976953C5C734","019cf99a-dea9-7f5e-8f2b-163c205fdc34","019cf974-7aee-7bc9-8ea4-9f55741b365d","","277","
                <div class=""stimulus-container"">
                    <img src=""images/causal_sequence/coin_causal/coin_causal_3.png"" class=""exp-image"">
                    <div class=""question-area"">
                        <p style=""font-size: 20px; font-weight: bold; margin: 0;"">Is there a person in this image?</p>
                    </div>
                </div>","0","main_experiment_trial","3","coin_causal","causal_sequence","randomized","","","","",""
"","","","","","html-keyboard-response","109","146370","0.0-109.0","AA9B8E16C65A451AAB59976953C5C734","019cf99a-dea9-7f5e-8f2b-163c205fdc34","019cf974-7aee-7bc9-8ea4-9f55741b365d","","null","
                <div class=""stimulus-container"">
                    <img src=""images/causal_sequence/coin_causal/coin_causal_ten.png"" class=""exp-image"">
                    <div class=""question-area""></div> 
                </div>","null","","","","","","","","","",""
"","","","","","html-button-response","110","146661","0.0-110.0","AA9B8E16C65A451AAB59976953C5C734","019cf99a-dea9-7f5e-8f2b-163c205fdc34","019cf974-7aee-7bc9-8ea4-9f55741b365d","","290","
                <div class=""stimulus-container"">
                    <img src=""images/causal_sequence/coin_causal/coin_causal_ten.png"" class=""exp-image"">
                    <div class=""question-area"">
                        <p style=""font-size: 20px; font-weight: bold; margin: 0;"">Is there a person in this image?</p>
                    </div>
                </div>","0","main_experiment_trial","ten","coin_causal","causal_sequence","randomized","","","","",""
"","","","","","html-keyboard-response","111","147673","0.0-111.0","AA9B8E16C65A451AAB59976953C5C734","019cf99a-dea9-7f5e-8f2b-163c205fdc34","019cf974-7aee-7bc9-8ea4-9f55741b365d","","null","
                <div class=""stimulus-container"">
                    <img src=""images/causal_sequence/coin_causal/coin_causal_5.png"" class=""exp-image"">
                    <div class=""question-area""></div> 
                </div>","null","","","","","","","","","",""
"","","","","","html-button-response","112","148092","0.0-112.0","AA9B8E16C65A451AAB59976953C5C734","019cf99a-dea9-7f5e-8f2b-163c205fdc34","019cf974-7aee-7bc9-8ea4-9f55741b365d","","419","
                <div class=""stimulus-container"">
                    <img src=""images/causal_sequence/coin_causal/coin_causal_5.png"" class=""exp-image"">
                    <div class=""question-area"">
                        <p style=""font-size: 20px; font-weight: bold; margin: 0;"">Is there a person in this image?</p>
                    </div>
                </div>","0","main_experiment_trial","5","coin_causal","causal_sequence","randomized","","","","",""
"","","","","","html-keyboard-response","113","149099","0.0-113.0","AA9B8E16C65A451AAB59976953C5C734","019cf99a-dea9-7f5e-8f2b-163c205fdc34","019cf974-7aee-7bc9-8ea4-9f55741b365d","","null","
                <div class=""stimulus-container"">
                    <img src=""images/causal_sequence/coin_causal/coin_causal_2.png"" class=""exp-image"">
                    <div class=""question-area""></div> 
                </div>","null","","","","","","","","","",""
"","","","","","html-button-response","114","149527","0.0-114.0","AA9B8E16C65A451AAB59976953C5C734","019cf99a-dea9-7f5e-8f2b-163c205fdc34","019cf974-7aee-7bc9-8ea4-9f55741b365d","","427","
                <div class=""stimulus-container"">
                    <img src=""images/causal_sequence/coin_causal/coin_causal_2.png"" class=""exp-image"">
                    <div class=""question-area"">
                        <p style=""font-size: 20px; font-weight: bold; margin: 0;"">Is there a person in this image?</p>
                    </div>
                </div>","0","main_experiment_trial","2","coin_causal","causal_sequence","randomized","","","","",""
"","","","","","html-keyboard-response","115","150538","0.0-115.0","AA9B8E16C65A451AAB59976953C5C734","019cf99a-dea9-7f5e-8f2b-163c205fdc34","019cf974-7aee-7bc9-8ea4-9f55741b365d","","null","
                <div class=""stimulus-container"">
                    <img src=""images/causal_sequence/coin_causal/coin_causal_7.png"" class=""exp-image"">
                    <div class=""question-area""></div> 
                </div>","null","","","","","","","","","",""
"","","","","","html-button-response","116","151128","0.0-116.0","AA9B8E16C65A451AAB59976953C5C734","019cf99a-dea9-7f5e-8f2b-163c205fdc34","019cf974-7aee-7bc9-8ea4-9f55741b365d","","589","
                <div class=""stimulus-container"">
                    <img src=""images/causal_sequence/coin_causal/coin_causal_7.png"" class=""exp-image"">
                    <div class=""question-area"">
                        <p style=""font-size: 20px; font-weight: bold; margin: 0;"">Is there a person in this image?</p>
                    </div>
                </div>","0","main_experiment_trial","7","coin_causal","causal_sequence","randomized","","","","",""
"","","","","","html-keyboard-response","117","152136","0.0-117.0","AA9B8E16C65A451AAB59976953C5C734","019cf99a-dea9-7f5e-8f2b-163c205fdc34","019cf974-7aee-7bc9-8ea4-9f55741b365d","","null","
                <div class=""stimulus-container"">
                    <img src=""images/causal_sequence/coin_causal/coin_causal_1.png"" class=""exp-image"">
                    <div class=""question-area""></div> 
                </div>","null","","","","","","","","","",""
"","","","","","html-button-response","118","152459","0.0-118.0","AA9B8E16C65A451AAB59976953C5C734","019cf99a-dea9-7f5e-8f2b-163c205fdc34","019cf974-7aee-7bc9-8ea4-9f55741b365d","","322","
                <div class=""stimulus-container"">
                    <img src=""images/causal_sequence/coin_causal/coin_causal_1.png"" class=""exp-image"">
                    <div class=""question-area"">
                        <p style=""font-size: 20px; font-weight: bold; margin: 0;"">Is there a person in this image?</p>
                    </div>
                </div>","0","main_experiment_trial","1","coin_causal","causal_sequence","randomized","","","","",""
"","","","","","html-keyboard-response","119","153469","0.0-119.0","AA9B8E16C65A451AAB59976953C5C734","019cf99a-dea9-7f5e-8f2b-163c205fdc34","019cf974-7aee-7bc9-8ea4-9f55741b365d","","null","
                <div class=""stimulus-container"">
                    <img src=""images/causal_sequence/coin_causal/coin_causal_9.png"" class=""exp-image"">
                    <div class=""question-area""></div> 
                </div>","null","","","","","","","","","",""
"","","","","","html-button-response","120","153769","0.0-120.0","AA9B8E16C65A451AAB59976953C5C734","019cf99a-dea9-7f5e-8f2b-163c205fdc34","019cf974-7aee-7bc9-8ea4-9f55741b365d","","299","
                <div class=""stimulus-container"">
                    <img src=""images/causal_sequence/coin_causal/coin_causal_9.png"" class=""exp-image"">
                    <div class=""question-area"">
                        <p style=""font-size: 20px; font-weight: bold; margin: 0;"">Is there a person in this image?</p>
                    </div>
                </div>","0","main_experiment_trial","9","coin_causal","causal_sequence","randomized","","","","",""
"","","","","","html-keyboard-response","121","158770","0.0-121.0","AA9B8E16C65A451AAB59976953C5C734","019cf99a-dea9-7f5e-8f2b-163c205fdc34","019cf974-7aee-7bc9-8ea4-9f55741b365d","","null","<div style=""background-color: white; width: 100vw; height: 100vh;""></div>","null","","","","","","","","","",""
"","","","","","html-keyboard-response","122","159778","0.0-122.0","AA9B8E16C65A451AAB59976953C5C734","019cf99a-dea9-7f5e-8f2b-163c205fdc34","019cf974-7aee-7bc9-8ea4-9f55741b365d","","null","
                <div class=""stimulus-container"">
                    <img src=""images/causal_sequence/dog_causal/dog_causal_ten.png"" class=""exp-image"">
                    <div class=""question-area""></div> 
                </div>","null","","","","","","","","","",""
"","","","","","html-button-response","123","160353","0.0-123.0","AA9B8E16C65A451AAB59976953C5C734","019cf99a-dea9-7f5e-8f2b-163c205fdc34","019cf974-7aee-7bc9-8ea4-9f55741b365d","","575","
                <div class=""stimulus-container"">
                    <img src=""images/causal_sequence/dog_causal/dog_causal_ten.png"" class=""exp-image"">
                    <div class=""question-area"">
                        <p style=""font-size: 20px; font-weight: bold; margin: 0;"">Is there a person in this image?</p>
                    </div>
                </div>","0","main_experiment_trial","ten","dog_causal","causal_sequence","randomized","","","","",""
"","","","","","html-keyboard-response","124","161360","0.0-124.0","AA9B8E16C65A451AAB59976953C5C734","019cf99a-dea9-7f5e-8f2b-163c205fdc34","019cf974-7aee-7bc9-8ea4-9f55741b365d","","null","
                <div class=""stimulus-container"">
                    <img src=""images/causal_sequence/dog_causal/dog_causal_4.png"" class=""exp-image"">
                    <div class=""question-area""></div> 
                </div>","null","","","","","","","","","",""
"","","","","","html-button-response","125","161804","0.0-125.0","AA9B8E16C65A451AAB59976953C5C734","019cf99a-dea9-7f5e-8f2b-163c205fdc34","019cf974-7aee-7bc9-8ea4-9f55741b365d","","443","
                <div class=""stimulus-container"">
                    <img src=""images/causal_sequence/dog_causal/dog_causal_4.png"" class=""exp-image"">
                    <div class=""question-area"">
                        <p style=""font-size: 20px; font-weight: bold; margin: 0;"">Is there a person in this image?</p>
                    </div>
                </div>","0","main_experiment_trial","4","dog_causal","causal_sequence","randomized","","","","",""
"","","","","","html-keyboard-response","126","162816","0.0-126.0","AA9B8E16C65A451AAB59976953C5C734","019cf99a-dea9-7f5e-8f2b-163c205fdc34","019cf974-7aee-7bc9-8ea4-9f55741b365d","","null","
                <div class=""stimulus-container"">
                    <img src=""images/causal_sequence/dog_causal/dog_causal_8.png"" class=""exp-image"">
                    <div class=""question-area""></div> 
                </div>","null","","","","","","","","","",""
"","","","","","html-button-response","127","163485","0.0-127.0","AA9B8E16C65A451AAB59976953C5C734","019cf99a-dea9-7f5e-8f2b-163c205fdc34","019cf974-7aee-7bc9-8ea4-9f55741b365d","","668","
                <div class=""stimulus-container"">
                    <img src=""images/causal_sequence/dog_causal/dog_causal_8.png"" class=""exp-image"">
                    <div class=""question-area"">
                        <p style=""font-size: 20px; font-weight: bold; margin: 0;"">Is there a person in this image?</p>
                    </div>
                </div>","0","main_experiment_trial","8","dog_causal","causal_sequence","randomized","","","","",""
"","","","","","html-keyboard-response","128","164488","0.0-128.0","AA9B8E16C65A451AAB59976953C5C734","019cf99a-dea9-7f5e-8f2b-163c205fdc34","019cf974-7aee-7bc9-8ea4-9f55741b365d","","null","
                <div class=""stimulus-container"">
                    <img src=""images/causal_sequence/dog_causal/dog_causal_2.png"" class=""exp-image"">
                    <div class=""question-area""></div> 
                </div>","null","","","","","","","","","",""
"","","","","","html-button-response","129","164841","0.0-129.0","AA9B8E16C65A451AAB59976953C5C734","019cf99a-dea9-7f5e-8f2b-163c205fdc34","019cf974-7aee-7bc9-8ea4-9f55741b365d","","352","
                <div class=""stimulus-container"">
                    <img src=""images/causal_sequence/dog_causal/dog_causal_2.png"" class=""exp-image"">
                    <div class=""question-area"">
                        <p style=""font-size: 20px; font-weight: bold; margin: 0;"">Is there a person in this image?</p>
                    </div>
                </div>","0","main_experiment_trial","2","dog_causal","causal_sequence","randomized","","","","",""
"","","","","","html-keyboard-response","130","165853","0.0-130.0","AA9B8E16C65A451AAB59976953C5C734","019cf99a-dea9-7f5e-8f2b-163c205fdc34","019cf974-7aee-7bc9-8ea4-9f55741b365d","","null","
                <div class=""stimulus-container"">
                    <img src=""images/causal_sequence/dog_causal/dog_causal_6.png"" class=""exp-image"">
                    <div class=""question-area""></div> 
                </div>","null","","","","","","","","","",""
"","","","","","html-button-response","131","166338","0.0-131.0","AA9B8E16C65A451AAB59976953C5C734","019cf99a-dea9-7f5e-8f2b-163c205fdc34","019cf974-7aee-7bc9-8ea4-9f55741b365d","","484","
                <div class=""stimulus-container"">
                    <img src=""images/causal_sequence/dog_causal/dog_causal_6.png"" class=""exp-image"">
                    <div class=""question-area"">
                        <p style=""font-size: 20px; font-weight: bold; margin: 0;"">Is there a person in this image?</p>
                    </div>
                </div>","0","main_experiment_trial","6","dog_causal","causal_sequence","randomized","","","","",""
"","","","","","html-keyboard-response","132","167339","0.0-132.0","AA9B8E16C65A451AAB59976953C5C734","019cf99a-dea9-7f5e-8f2b-163c205fdc34","019cf974-7aee-7bc9-8ea4-9f55741b365d","","null","
                <div class=""stimulus-container"">
                    <img src=""images/causal_sequence/dog_causal/dog_causal_3.png"" class=""exp-image"">
                    <div class=""question-area""></div> 
                </div>","null","","","","","","","","","",""
"","","","","","html-button-response","133","167811","0.0-133.0","AA9B8E16C65A451AAB59976953C5C734","019cf99a-dea9-7f5e-8f2b-163c205fdc34","019cf974-7aee-7bc9-8ea4-9f55741b365d","","471","
                <div class=""stimulus-container"">
                    <img src=""images/causal_sequence/dog_causal/dog_causal_3.png"" class=""exp-image"">
                    <div class=""question-area"">
                        <p style=""font-size: 20px; font-weight: bold; margin: 0;"">Is there a person in this image?</p>
                    </div>
                </div>","0","main_experiment_trial","3","dog_causal","causal_sequence","randomized","","","","",""
"","","","","","html-keyboard-response","134","168826","0.0-134.0","AA9B8E16C65A451AAB59976953C5C734","019cf99a-dea9-7f5e-8f2b-163c205fdc34","019cf974-7aee-7bc9-8ea4-9f55741b365d","","null","
                <div class=""stimulus-container"">
                    <img src=""images/causal_sequence/dog_causal/dog_causal_9.png"" class=""exp-image"">
                    <div class=""question-area""></div> 
                </div>","null","","","","","","","","","",""
"","","","","","html-button-response","135","169211","0.0-135.0","AA9B8E16C65A451AAB59976953C5C734","019cf99a-dea9-7f5e-8f2b-163c205fdc34","019cf974-7aee-7bc9-8ea4-9f55741b365d","","384","
                <div class=""stimulus-container"">
                    <img src=""images/causal_sequence/dog_causal/dog_causal_9.png"" class=""exp-image"">
                    <div class=""question-area"">
                        <p style=""font-size: 20px; font-weight: bold; margin: 0;"">Is there a person in this image?</p>
                    </div>
                </div>","0","main_experiment_trial","9","dog_causal","causal_sequence","randomized","","","","",""
"","","","","","html-keyboard-response","136","170221","0.0-136.0","AA9B8E16C65A451AAB59976953C5C734","019cf99a-dea9-7f5e-8f2b-163c205fdc34","019cf974-7aee-7bc9-8ea4-9f55741b365d","","null","
                <div class=""stimulus-container"">
                    <img src=""images/causal_sequence/dog_causal/dog_causal_5.png"" class=""exp-image"">
                    <div class=""question-area""></div> 
                </div>","null","","","","","","","","","",""
"","","","","","html-button-response","137","170657","0.0-137.0","AA9B8E16C65A451AAB59976953C5C734","019cf99a-dea9-7f5e-8f2b-163c205fdc34","019cf974-7aee-7bc9-8ea4-9f55741b365d","","434","
                <div class=""stimulus-container"">
                    <img src=""images/causal_sequence/dog_causal/dog_causal_5.png"" class=""exp-image"">
                    <div class=""question-area"">
                        <p style=""font-size: 20px; font-weight: bold; margin: 0;"">Is there a person in this image?</p>
                    </div>
                </div>","0","main_experiment_trial","5","dog_causal","causal_sequence","randomized","","","","",""
"","","","","","html-keyboard-response","138","171662","0.0-138.0","AA9B8E16C65A451AAB59976953C5C734","019cf99a-dea9-7f5e-8f2b-163c205fdc34","019cf974-7aee-7bc9-8ea4-9f55741b365d","","null","
                <div class=""stimulus-container"">
                    <img src=""images/causal_sequence/dog_causal/dog_causal_7.png"" class=""exp-image"">
                    <div class=""question-area""></div> 
                </div>","null","","","","","","","","","",""
"","","","","","html-button-response","139","172049","0.0-139.0","AA9B8E16C65A451AAB59976953C5C734","019cf99a-dea9-7f5e-8f2b-163c205fdc34","019cf974-7aee-7bc9-8ea4-9f55741b365d","","386","
                <div class=""stimulus-container"">
                    <img src=""images/causal_sequence/dog_causal/dog_causal_7.png"" class=""exp-image"">
                    <div class=""question-area"">
                        <p style=""font-size: 20px; font-weight: bold; margin: 0;"">Is there a person in this image?</p>
                    </div>
                </div>","0","main_experiment_trial","7","dog_causal","causal_sequence","randomized","","","","",""
"","","","","","html-keyboard-response","140","173059","0.0-140.0","AA9B8E16C65A451AAB59976953C5C734","019cf99a-dea9-7f5e-8f2b-163c205fdc34","019cf974-7aee-7bc9-8ea4-9f55741b365d","","null","
                <div class=""stimulus-container"">
                    <img src=""images/causal_sequence/dog_causal/dog_causal_1.png"" class=""exp-image"">
                    <div class=""question-area""></div> 
                </div>","null","","","","","","","","","",""
"","","","","","html-button-response","141","173492","0.0-141.0","AA9B8E16C65A451AAB59976953C5C734","019cf99a-dea9-7f5e-8f2b-163c205fdc34","019cf974-7aee-7bc9-8ea4-9f55741b365d","","432","
                <div class=""stimulus-container"">
                    <img src=""images/causal_sequence/dog_causal/dog_causal_1.png"" class=""exp-image"">
                    <div class=""question-area"">
                        <p style=""font-size: 20px; font-weight: bold; margin: 0;"">Is there a person in this image?</p>
                    </div>
                </div>","0","main_experiment_trial","1","dog_causal","causal_sequence","randomized","","","","",""
"","","","","","html-keyboard-response","142","178497","0.0-142.0","AA9B8E16C65A451AAB59976953C5C734","019cf99a-dea9-7f5e-8f2b-163c205fdc34","019cf974-7aee-7bc9-8ea4-9f55741b365d","","null","<div style=""background-color: white; width: 100vw; height: 100vh;""></div>","null","","","","","","","","","",""
"","","","","","html-keyboard-response","143","179506","0.0-143.0","AA9B8E16C65A451AAB59976953C5C734","019cf99a-dea9-7f5e-8f2b-163c205fdc34","019cf974-7aee-7bc9-8ea4-9f55741b365d","","null","
                <div class=""stimulus-container"">
                    <img src=""images/semantic_sequence/self_care_activities_semantic/self_care_activities_semantic_8.png"" class=""exp-image"">
                    <div class=""question-area""></div> 
                </div>","null","","","","","","","","","",""
"","","","","","html-button-response","144","180983","0.0-144.0","AA9B8E16C65A451AAB59976953C5C734","019cf99a-dea9-7f5e-8f2b-163c205fdc34","019cf974-7aee-7bc9-8ea4-9f55741b365d","","1477","
                <div class=""stimulus-container"">
                    <img src=""images/semantic_sequence/self_care_activities_semantic/self_care_activities_semantic_8.png"" class=""exp-image"">
                    <div class=""question-area"">
                        <p style=""font-size: 20px; font-weight: bold; margin: 0;"">Is there a person in this image?</p>
                    </div>
                </div>","0","main_experiment_trial","8","self_care_activities_semantic","semantic_sequence","randomized","","","","",""
"","","","","","html-keyboard-response","145","181989","0.0-145.0","AA9B8E16C65A451AAB59976953C5C734","019cf99a-dea9-7f5e-8f2b-163c205fdc34","019cf974-7aee-7bc9-8ea4-9f55741b365d","","null","
                <div class=""stimulus-container"">
                    <img src=""images/semantic_sequence/self_care_activities_semantic/self_care_activities_semantic_4.png"" class=""exp-image"">
                    <div class=""question-area""></div> 
                </div>","null","","","","","","","","","",""
"","","","","","html-button-response","146","182661","0.0-146.0","AA9B8E16C65A451AAB59976953C5C734","019cf99a-dea9-7f5e-8f2b-163c205fdc34","019cf974-7aee-7bc9-8ea4-9f55741b365d","","672","
                <div class=""stimulus-container"">
                    <img src=""images/semantic_sequence/self_care_activities_semantic/self_care_activities_semantic_4.png"" class=""exp-image"">
                    <div class=""question-area"">
                        <p style=""font-size: 20px; font-weight: bold; margin: 0;"">Is there a person in this image?</p>
                    </div>
                </div>","0","main_experiment_trial","4","self_care_activities_semantic","semantic_sequence","randomized","","","","",""
"","","","","","html-keyboard-response","147","183664","0.0-147.0","AA9B8E16C65A451AAB59976953C5C734","019cf99a-dea9-7f5e-8f2b-163c205fdc34","019cf974-7aee-7bc9-8ea4-9f55741b365d","","null","
                <div class=""stimulus-container"">
                    <img src=""images/semantic_sequence/self_care_activities_semantic/self_care_activities_semantic_7.png"" class=""exp-image"">
                    <div class=""question-area""></div> 
                </div>","null","","","","","","","","","",""
"","","","","","html-button-response","148","185223","0.0-148.0","AA9B8E16C65A451AAB59976953C5C734","019cf99a-dea9-7f5e-8f2b-163c205fdc34","019cf974-7aee-7bc9-8ea4-9f55741b365d","","1559","
                <div class=""stimulus-container"">
                    <img src=""images/semantic_sequence/self_care_activities_semantic/self_care_activities_semantic_7.png"" class=""exp-image"">
                    <div class=""question-area"">
                        <p style=""font-size: 20px; font-weight: bold; margin: 0;"">Is there a person in this image?</p>
                    </div>
                </div>","0","main_experiment_trial","7","self_care_activities_semantic","semantic_sequence","randomized","","","","",""
"","","","","","html-keyboard-response","149","186226","0.0-149.0","AA9B8E16C65A451AAB59976953C5C734","019cf99a-dea9-7f5e-8f2b-163c205fdc34","019cf974-7aee-7bc9-8ea4-9f55741b365d","","null","
                <div class=""stimulus-container"">
                    <img src=""images/semantic_sequence/self_care_activities_semantic/self_care_activities_semantic_1.png"" class=""exp-image"">
                    <div class=""question-area""></div> 
                </div>","null","","","","","","","","","",""
"","","","","","html-button-response","150","186649","0.0-150.0","AA9B8E16C65A451AAB59976953C5C734","019cf99a-dea9-7f5e-8f2b-163c205fdc34","019cf974-7aee-7bc9-8ea4-9f55741b365d","","423","
                <div class=""stimulus-container"">
                    <img src=""images/semantic_sequence/self_care_activities_semantic/self_care_activities_semantic_1.png"" class=""exp-image"">
                    <div class=""question-area"">
                        <p style=""font-size: 20px; font-weight: bold; margin: 0;"">Is there a person in this image?</p>
                    </div>
                </div>","0","main_experiment_trial","1","self_care_activities_semantic","semantic_sequence","randomized","","","","",""
"","","","","","html-keyboard-response","151","187652","0.0-151.0","AA9B8E16C65A451AAB59976953C5C734","019cf99a-dea9-7f5e-8f2b-163c205fdc34","019cf974-7aee-7bc9-8ea4-9f55741b365d","","null","
                <div class=""stimulus-container"">
                    <img src=""images/semantic_sequence/self_care_activities_semantic/self_care_activities_semantic_ten.png"" class=""exp-image"">
                    <div class=""question-area""></div> 
                </div>","null","","","","","","","","","",""
"","","","","","html-button-response","152","187935","0.0-152.0","AA9B8E16C65A451AAB59976953C5C734","019cf99a-dea9-7f5e-8f2b-163c205fdc34","019cf974-7aee-7bc9-8ea4-9f55741b365d","","283","
                <div class=""stimulus-container"">
                    <img src=""images/semantic_sequence/self_care_activities_semantic/self_care_activities_semantic_ten.png"" class=""exp-image"">
                    <div class=""question-area"">
                        <p style=""font-size: 20px; font-weight: bold; margin: 0;"">Is there a person in this image?</p>
                    </div>
                </div>","0","main_experiment_trial","ten","self_care_activities_semantic","semantic_sequence","randomized","","","","",""
"","","","","","html-keyboard-response","153","188939","0.0-153.0","AA9B8E16C65A451AAB59976953C5C734","019cf99a-dea9-7f5e-8f2b-163c205fdc34","019cf974-7aee-7bc9-8ea4-9f55741b365d","","null","
                <div class=""stimulus-container"">
                    <img src=""images/semantic_sequence/self_care_activities_semantic/self_care_activities_semantic_3.png"" class=""exp-image"">
                    <div class=""question-area""></div> 
                </div>","null","","","","","","","","","",""
"","","","","","html-button-response","154","189293","0.0-154.0","AA9B8E16C65A451AAB59976953C5C734","019cf99a-dea9-7f5e-8f2b-163c205fdc34","019cf974-7aee-7bc9-8ea4-9f55741b365d","","353","
                <div class=""stimulus-container"">
                    <img src=""images/semantic_sequence/self_care_activities_semantic/self_care_activities_semantic_3.png"" class=""exp-image"">
                    <div class=""question-area"">
                        <p style=""font-size: 20px; font-weight: bold; margin: 0;"">Is there a person in this image?</p>
                    </div>
                </div>","0","main_experiment_trial","3","self_care_activities_semantic","semantic_sequence","randomized","","","","",""
"","","","","","html-keyboard-response","155","190302","0.0-155.0","AA9B8E16C65A451AAB59976953C5C734","019cf99a-dea9-7f5e-8f2b-163c205fdc34","019cf974-7aee-7bc9-8ea4-9f55741b365d","","null","
                <div class=""stimulus-container"">
                    <img src=""images/semantic_sequence/self_care_activities_semantic/self_care_activities_semantic_2.png"" class=""exp-image"">
                    <div class=""question-area""></div> 
                </div>","null","","","","","","","","","",""
"","","","","","html-button-response","156","190700","0.0-156.0","AA9B8E16C65A451AAB59976953C5C734","019cf99a-dea9-7f5e-8f2b-163c205fdc34","019cf974-7aee-7bc9-8ea4-9f55741b365d","","397","
                <div class=""stimulus-container"">
                    <img src=""images/semantic_sequence/self_care_activities_semantic/self_care_activities_semantic_2.png"" class=""exp-image"">
                    <div class=""question-area"">
                        <p style=""font-size: 20px; font-weight: bold; margin: 0;"">Is there a person in this image?</p>
                    </div>
                </div>","0","main_experiment_trial","2","self_care_activities_semantic","semantic_sequence","randomized","","","","",""
"","","","","","html-keyboard-response","157","191712","0.0-157.0","AA9B8E16C65A451AAB59976953C5C734","019cf99a-dea9-7f5e-8f2b-163c205fdc34","019cf974-7aee-7bc9-8ea4-9f55741b365d","","null","
                <div class=""stimulus-container"">
                    <img src=""images/semantic_sequence/self_care_activities_semantic/self_care_activities_semantic_5.png"" class=""exp-image"">
                    <div class=""question-area""></div> 
                </div>","null","","","","","","","","","",""
"","","","","","html-button-response","158","192101","0.0-158.0","AA9B8E16C65A451AAB59976953C5C734","019cf99a-dea9-7f5e-8f2b-163c205fdc34","019cf974-7aee-7bc9-8ea4-9f55741b365d","","388","
                <div class=""stimulus-container"">
                    <img src=""images/semantic_sequence/self_care_activities_semantic/self_care_activities_semantic_5.png"" class=""exp-image"">
                    <div class=""question-area"">
                        <p style=""font-size: 20px; font-weight: bold; margin: 0;"">Is there a person in this image?</p>
                    </div>
                </div>","0","main_experiment_trial","5","self_care_activities_semantic","semantic_sequence","randomized","","","","",""
"","","","","","html-keyboard-response","159","193108","0.0-159.0","AA9B8E16C65A451AAB59976953C5C734","019cf99a-dea9-7f5e-8f2b-163c205fdc34","019cf974-7aee-7bc9-8ea4-9f55741b365d","","null","
                <div class=""stimulus-container"">
                    <img src=""images/semantic_sequence/self_care_activities_semantic/self_care_activities_semantic_9.png"" class=""exp-image"">
                    <div class=""question-area""></div> 
                </div>","null","","","","","","","","","",""
"","","","","","html-button-response","160","193799","0.0-160.0","AA9B8E16C65A451AAB59976953C5C734","019cf99a-dea9-7f5e-8f2b-163c205fdc34","019cf974-7aee-7bc9-8ea4-9f55741b365d","","690","
                <div class=""stimulus-container"">
                    <img src=""images/semantic_sequence/self_care_activities_semantic/self_care_activities_semantic_9.png"" class=""exp-image"">
                    <div class=""question-area"">
                        <p style=""font-size: 20px; font-weight: bold; margin: 0;"">Is there a person in this image?</p>
                    </div>
                </div>","0","main_experiment_trial","9","self_care_activities_semantic","semantic_sequence","randomized","","","","",""
"","","","","","html-keyboard-response","161","194811","0.0-161.0","AA9B8E16C65A451AAB59976953C5C734","019cf99a-dea9-7f5e-8f2b-163c205fdc34","019cf974-7aee-7bc9-8ea4-9f55741b365d","","null","
                <div class=""stimulus-container"">
                    <img src=""images/semantic_sequence/self_care_activities_semantic/self_care_activities_semantic_6.png"" class=""exp-image"">
                    <div class=""question-area""></div> 
                </div>","null","","","","","","","","","",""
"","","","","","html-button-response","162","195357","0.0-162.0","AA9B8E16C65A451AAB59976953C5C734","019cf99a-dea9-7f5e-8f2b-163c205fdc34","019cf974-7aee-7bc9-8ea4-9f55741b365d","","545","
                <div class=""stimulus-container"">
                    <img src=""images/semantic_sequence/self_care_activities_semantic/self_care_activities_semantic_6.png"" class=""exp-image"">
                    <div class=""question-area"">
                        <p style=""font-size: 20px; font-weight: bold; margin: 0;"">Is there a person in this image?</p>
                    </div>
                </div>","0","main_experiment_trial","6","self_care_activities_semantic","semantic_sequence","randomized","","","","",""
"","","","","","html-keyboard-response","163","200358","0.0-163.0","AA9B8E16C65A451AAB59976953C5C734","019cf99a-dea9-7f5e-8f2b-163c205fdc34","019cf974-7aee-7bc9-8ea4-9f55741b365d","","null","<div style=""background-color: white; width: 100vw; height: 100vh;""></div>","null","","","","","","","","","",""
"","","","","","html-keyboard-response","164","201364","0.0-164.0","AA9B8E16C65A451AAB59976953C5C734","019cf99a-dea9-7f5e-8f2b-163c205fdc34","019cf974-7aee-7bc9-8ea4-9f55741b365d","","null","
                <div class=""stimulus-container"">
                    <img src=""images/semantic_sequence/redecorating_a_house_semantic/redecorating_a_house_semantic_9.png"" class=""exp-image"">
                    <div class=""question-area""></div> 
                </div>","null","","","","","","","","","",""
"","","","","","html-button-response","165","201980","0.0-165.0","AA9B8E16C65A451AAB59976953C5C734","019cf99a-dea9-7f5e-8f2b-163c205fdc34","019cf974-7aee-7bc9-8ea4-9f55741b365d","","615","
                <div class=""stimulus-container"">
                    <img src=""images/semantic_sequence/redecorating_a_house_semantic/redecorating_a_house_semantic_9.png"" class=""exp-image"">
                    <div class=""question-area"">
                        <p style=""font-size: 20px; font-weight: bold; margin: 0;"">Is there a person in this image?</p>
                    </div>
                </div>","0","main_experiment_trial","9","redecorating_a_house_semantic","semantic_sequence","randomized","","","","",""
"","","","","","html-keyboard-response","166","202993","0.0-166.0","AA9B8E16C65A451AAB59976953C5C734","019cf99a-dea9-7f5e-8f2b-163c205fdc34","019cf974-7aee-7bc9-8ea4-9f55741b365d","","null","
                <div class=""stimulus-container"">
                    <img src=""images/semantic_sequence/redecorating_a_house_semantic/redecorating_a_house_semantic_ten.png"" class=""exp-image"">
                    <div class=""question-area""></div> 
                </div>","null","","","","","","","","","",""
"","","","","","html-button-response","167","203355","0.0-167.0","AA9B8E16C65A451AAB59976953C5C734","019cf99a-dea9-7f5e-8f2b-163c205fdc34","019cf974-7aee-7bc9-8ea4-9f55741b365d","","361","
                <div class=""stimulus-container"">
                    <img src=""images/semantic_sequence/redecorating_a_house_semantic/redecorating_a_house_semantic_ten.png"" class=""exp-image"">
                    <div class=""question-area"">
                        <p style=""font-size: 20px; font-weight: bold; margin: 0;"">Is there a person in this image?</p>
                    </div>
                </div>","0","main_experiment_trial","ten","redecorating_a_house_semantic","semantic_sequence","randomized","","","","",""
"","","","","","html-keyboard-response","168","204357","0.0-168.0","AA9B8E16C65A451AAB59976953C5C734","019cf99a-dea9-7f5e-8f2b-163c205fdc34","019cf974-7aee-7bc9-8ea4-9f55741b365d","","null","
                <div class=""stimulus-container"">
                    <img src=""images/semantic_sequence/redecorating_a_house_semantic/redecorating_a_house_semantic_2.png"" class=""exp-image"">
                    <div class=""question-area""></div> 
                </div>","null","","","","","","","","","",""
"","","","","","html-button-response","169","204657","0.0-169.0","AA9B8E16C65A451AAB59976953C5C734","019cf99a-dea9-7f5e-8f2b-163c205fdc34","019cf974-7aee-7bc9-8ea4-9f55741b365d","","299","
                <div class=""stimulus-container"">
                    <img src=""images/semantic_sequence/redecorating_a_house_semantic/redecorating_a_house_semantic_2.png"" class=""exp-image"">
                    <div class=""question-area"">
                        <p style=""font-size: 20px; font-weight: bold; margin: 0;"">Is there a person in this image?</p>
                    </div>
                </div>","0","main_experiment_trial","2","redecorating_a_house_semantic","semantic_sequence","randomized","","","","",""
"","","","","","html-keyboard-response","170","205673","0.0-170.0","AA9B8E16C65A451AAB59976953C5C734","019cf99a-dea9-7f5e-8f2b-163c205fdc34","019cf974-7aee-7bc9-8ea4-9f55741b365d","","null","
                <div class=""stimulus-container"">
                    <img src=""images/semantic_sequence/redecorating_a_house_semantic/redecorating_a_house_semantic_6.png"" class=""exp-image"">
                    <div class=""question-area""></div> 
                </div>","null","","","","","","","","","",""
"","","","","","html-button-response","171","205953","0.0-171.0","AA9B8E16C65A451AAB59976953C5C734","019cf99a-dea9-7f5e-8f2b-163c205fdc34","019cf974-7aee-7bc9-8ea4-9f55741b365d","","280","
                <div class=""stimulus-container"">
                    <img src=""images/semantic_sequence/redecorating_a_house_semantic/redecorating_a_house_semantic_6.png"" class=""exp-image"">
                    <div class=""question-area"">
                        <p style=""font-size: 20px; font-weight: bold; margin: 0;"">Is there a person in this image?</p>
                    </div>
                </div>","0","main_experiment_trial","6","redecorating_a_house_semantic","semantic_sequence","randomized","","","","",""
"","","","","","html-keyboard-response","172","206957","0.0-172.0","AA9B8E16C65A451AAB59976953C5C734","019cf99a-dea9-7f5e-8f2b-163c205fdc34","019cf974-7aee-7bc9-8ea4-9f55741b365d","","null","
                <div class=""stimulus-container"">
                    <img src=""images/semantic_sequence/redecorating_a_house_semantic/redecorating_a_house_semantic_4.png"" class=""exp-image"">
                    <div class=""question-area""></div> 
                </div>","null","","","","","","","","","",""
"","","","","","html-button-response","173","207306","0.0-173.0","AA9B8E16C65A451AAB59976953C5C734","019cf99a-dea9-7f5e-8f2b-163c205fdc34","019cf974-7aee-7bc9-8ea4-9f55741b365d","","348","
                <div class=""stimulus-container"">
                    <img src=""images/semantic_sequence/redecorating_a_house_semantic/redecorating_a_house_semantic_4.png"" class=""exp-image"">
                    <div class=""question-area"">
                        <p style=""font-size: 20px; font-weight: bold; margin: 0;"">Is there a person in this image?</p>
                    </div>
                </div>","0","main_experiment_trial","4","redecorating_a_house_semantic","semantic_sequence","randomized","","","","",""
"","","","","","html-keyboard-response","174","208307","0.0-174.0","AA9B8E16C65A451AAB59976953C5C734","019cf99a-dea9-7f5e-8f2b-163c205fdc34","019cf974-7aee-7bc9-8ea4-9f55741b365d","","null","
                <div class=""stimulus-container"">
                    <img src=""images/semantic_sequence/redecorating_a_house_semantic/redecorating_a_house_semantic_7.png"" class=""exp-image"">
                    <div class=""question-area""></div> 
                </div>","null","","","","","","","","","",""
"","","","","","html-button-response","175","208601","0.0-175.0","AA9B8E16C65A451AAB59976953C5C734","019cf99a-dea9-7f5e-8f2b-163c205fdc34","019cf974-7aee-7bc9-8ea4-9f55741b365d","","294","
                <div class=""stimulus-container"">
                    <img src=""images/semantic_sequence/redecorating_a_house_semantic/redecorating_a_house_semantic_7.png"" class=""exp-image"">
                    <div class=""question-area"">
                        <p style=""font-size: 20px; font-weight: bold; margin: 0;"">Is there a person in this image?</p>
                    </div>
                </div>","0","main_experiment_trial","7","redecorating_a_house_semantic","semantic_sequence","randomized","","","","",""
"","","","","","html-keyboard-response","176","209609","0.0-176.0","AA9B8E16C65A451AAB59976953C5C734","019cf99a-dea9-7f5e-8f2b-163c205fdc34","019cf974-7aee-7bc9-8ea4-9f55741b365d","","null","
                <div class=""stimulus-container"">
                    <img src=""images/semantic_sequence/redecorating_a_house_semantic/redecorating_a_house_semantic_5.png"" class=""exp-image"">
                    <div class=""question-area""></div> 
                </div>","null","","","","","","","","","",""
"","","","","","html-button-response","177","209884","0.0-177.0","AA9B8E16C65A451AAB59976953C5C734","019cf99a-dea9-7f5e-8f2b-163c205fdc34","019cf974-7aee-7bc9-8ea4-9f55741b365d","","274","
                <div class=""stimulus-container"">
                    <img src=""images/semantic_sequence/redecorating_a_house_semantic/redecorating_a_house_semantic_5.png"" class=""exp-image"">
                    <div class=""question-area"">
                        <p style=""font-size: 20px; font-weight: bold; margin: 0;"">Is there a person in this image?</p>
                    </div>
                </div>","0","main_experiment_trial","5","redecorating_a_house_semantic","semantic_sequence","randomized","","","","",""
"","","","","","html-keyboard-response","178","210897","0.0-178.0","AA9B8E16C65A451AAB59976953C5C734","019cf99a-dea9-7f5e-8f2b-163c205fdc34","019cf974-7aee-7bc9-8ea4-9f55741b365d","","null","
                <div class=""stimulus-container"">
                    <img src=""images/semantic_sequence/redecorating_a_house_semantic/redecorating_a_house_semantic_3.png"" class=""exp-image"">
                    <div class=""question-area""></div> 
                </div>","null","","","","","","","","","",""
"","","","","","html-button-response","179","211185","0.0-179.0","AA9B8E16C65A451AAB59976953C5C734","019cf99a-dea9-7f5e-8f2b-163c205fdc34","019cf974-7aee-7bc9-8ea4-9f55741b365d","","288","
                <div class=""stimulus-container"">
                    <img src=""images/semantic_sequence/redecorating_a_house_semantic/redecorating_a_house_semantic_3.png"" class=""exp-image"">
                    <div class=""question-area"">
