"success","timeout","failed_images","failed_audio","failed_video","trial_type","trial_index","time_elapsed","internal_node_id","view_history","rt","stimulus","response","task","folder","sequence_type","image_index","reward_type","valuable_image_index","target_X","dist_left","dist_right","chosen_image_index","chosen_dist","selected_after_X","correct_choice"
"true","false","[]","[]","[]","preload","0","1860","0.0-0.0","","","","","","","","","","","","","","","","",""
"","","","","","instructions","1","98817","0.0-1.0","[{""page_index"":0,""viewing_time"":96954}]","96955","","","","","","","","","","","","","","",""
"","","","","","instructions","2","103836","0.0-2.0","[{""page_index"":0,""viewing_time"":5014}]","5019","","","","","","","","","","","","","","",""
"true","","","","","fullscreen","3","106296","0.0-3.0","","1457","","","","","","","","","","","","","","",""
"","","","","","instructions","4","123492","0.0-4.0","[{""page_index"":0,""viewing_time"":17196}]","17196","","","","","","","","","","","","","","",""
"","","","","","instructions","5","131971","0.0-5.0","[{""page_index"":0,""viewing_time"":8478}]","8479","","","","","","","","","","","","","","",""
"","","","","","html-keyboard-response","6","134973","0.0-6.0","","null","<div class=""stimulus-container""><img src=""images/instructions/movie_1.png"" class=""exp-image""><div class=""question-area""></div></div>","null","","","","","","","","","","","","",""
"","","","","","html-button-response","7","144399","0.0-7.0","","9424","<div class=""stimulus-container""><img src=""images/instructions/movie_1.png"" class=""exp-image""><div class=""question-area""><p>Is there a person?</p></div></div>","0","","","","","","","","","","","","",""
"","","","","","html-keyboard-response","8","147401","0.0-8.0","","null","<div class=""stimulus-container""><img src=""images/instructions/movie_2.png"" class=""exp-image""><div class=""question-area""></div></div>","null","","","","","","","","","","","","",""
"","","","","","html-button-response","9","154099","0.0-9.0","","6698","<div class=""stimulus-container""><img src=""images/instructions/movie_2.png"" class=""exp-image""><div class=""question-area""><p>Is there a person?</p></div></div>","1","","","","","","","","","","","","",""
"","","","","","html-keyboard-response","10","157101","0.0-10.0","","null","<div class=""stimulus-container""><img src=""images/instructions/movie_3.png"" class=""exp-image""><div class=""question-area""></div></div>","null","","","","","","","","","","","","",""
"","","","","","html-button-response","11","182343","0.0-11.0","","25242","<div class=""stimulus-container""><img src=""images/instructions/movie_3.png"" class=""exp-image""><div class=""question-area""><p>Is there a person?</p></div></div>","0","","","","","","","","","","","","",""
"","","","","","instructions","12","185583","0.0-12.0","[{""page_index"":0,""viewing_time"":3240}]","3240","","","","","","","","","","","","","","",""
"","","","","","html-keyboard-response","13","187585","0.0-13.0","","null","<div style=""background-color: white; width: 100vw; height: 100vh;""></div>","null","","","","","","","","","","","","",""
"","","","","","html-keyboard-response","14","191586","0.0-14.0","","null","<div class=""stimulus-container""><img src=""images/semantic_sequence/visiting_cities_semantic/visiting_cities_semantic_1.png"" class=""exp-image""></div>","null","","","","","","","","","","","","",""
"","","","","","html-button-response","15","198950","0.0-15.0","","7364","<div class=""stimulus-container""><img src=""images/semantic_sequence/visiting_cities_semantic/visiting_cities_semantic_1.png"" class=""exp-image""><div class=""question-area""><p>Is there a person?</p></div></div>","1","observation","visiting_cities_semantic","semantic_sequence","1","","","","","","","","",""
"","","","","","html-keyboard-response","16","202952","0.0-16.0","","null","<div class=""stimulus-container""><img src=""images/semantic_sequence/visiting_cities_semantic/visiting_cities_semantic_2.png"" class=""exp-image""></div>","null","","","","","","","","","","","","",""
"","","","","","html-button-response","17","223657","0.0-17.0","","20705","<div class=""stimulus-container""><img src=""images/semantic_sequence/visiting_cities_semantic/visiting_cities_semantic_2.png"" class=""exp-image""><div class=""question-area""><p>Is there a person?</p></div></div>","1","observation","visiting_cities_semantic","semantic_sequence","2","","","","","","","","",""
"","","","","","html-keyboard-response","18","227658","0.0-18.0","","null","<div class=""stimulus-container""><img src=""images/semantic_sequence/visiting_cities_semantic/visiting_cities_semantic_3.png"" class=""exp-image""></div>","null","","","","","","","","","","","","",""
"","","","","","html-button-response","19","235912","0.0-19.0","","8254","<div class=""stimulus-container""><img src=""images/semantic_sequence/visiting_cities_semantic/visiting_cities_semantic_3.png"" class=""exp-image""><div class=""question-area""><p>Is there a person?</p></div></div>","1","observation","visiting_cities_semantic","semantic_sequence","3","","","","","","","","",""
"","","","","","html-keyboard-response","20","239914","0.0-20.0","","null","<div class=""stimulus-container""><img src=""images/semantic_sequence/visiting_cities_semantic/visiting_cities_semantic_4.png"" class=""exp-image""></div>","null","","","","","","","","","","","","",""
"","","","","","html-button-response","21","240938","0.0-21.0","","1023","<div class=""stimulus-container""><img src=""images/semantic_sequence/visiting_cities_semantic/visiting_cities_semantic_4.png"" class=""exp-image""><div class=""question-area""><p>Is there a person?</p></div></div>","1","observation","visiting_cities_semantic","semantic_sequence","4","","","","","","","","",""
"","","","","","html-keyboard-response","22","244939","0.0-22.0","","null","<div class=""stimulus-container""><img src=""images/semantic_sequence/visiting_cities_semantic/visiting_cities_semantic_5.png"" class=""exp-image""></div>","null","","","","","","","","","","","","",""
"","","","","","html-button-response","23","292769","0.0-23.0","","47828","<div class=""stimulus-container""><img src=""images/semantic_sequence/visiting_cities_semantic/visiting_cities_semantic_5.png"" class=""exp-image""><div class=""question-area""><p>Is there a person?</p></div></div>","1","observation","visiting_cities_semantic","semantic_sequence","5","","","","","","","","",""
"","","","","","html-keyboard-response","24","296769","0.0-24.0","","null","<div class=""stimulus-container""><img src=""images/semantic_sequence/visiting_cities_semantic/visiting_cities_semantic_6.png"" class=""exp-image""></div>","null","","","","","","","","","","","","",""
"","","","","","html-button-response","25","297589","0.0-25.0","","818","<div class=""stimulus-container""><img src=""images/semantic_sequence/visiting_cities_semantic/visiting_cities_semantic_6.png"" class=""exp-image""><div class=""question-area""><p>Is there a person?</p></div></div>","1","observation","visiting_cities_semantic","semantic_sequence","6","","","","","","","","",""
"","","","","","html-keyboard-response","26","301590","0.0-26.0","","null","<div class=""stimulus-container""><img src=""images/semantic_sequence/visiting_cities_semantic/visiting_cities_semantic_7.png"" class=""exp-image""></div>","null","","","","","","","","","","","","",""
"","","","","","html-button-response","27","302598","0.0-27.0","","1008","<div class=""stimulus-container""><img src=""images/semantic_sequence/visiting_cities_semantic/visiting_cities_semantic_7.png"" class=""exp-image""><div class=""question-area""><p>Is there a person?</p></div></div>","0","observation","visiting_cities_semantic","semantic_sequence","7","","","","","","","","",""
"","","","","","html-keyboard-response","28","306600","0.0-28.0","","null","<div class=""stimulus-container""><img src=""images/semantic_sequence/visiting_cities_semantic/visiting_cities_semantic_8.png"" class=""exp-image""></div>","null","","","","","","","","","","","","",""
"","","","","","html-button-response","29","309089","0.0-29.0","","2488","<div class=""stimulus-container""><img src=""images/semantic_sequence/visiting_cities_semantic/visiting_cities_semantic_8.png"" class=""exp-image""><div class=""question-area""><p>Is there a person?</p></div></div>","1","observation","visiting_cities_semantic","semantic_sequence","8","","","","","","","","",""
"","","","","","html-keyboard-response","30","313090","0.0-30.0","","null","<div class=""stimulus-container""><img src=""images/semantic_sequence/visiting_cities_semantic/visiting_cities_semantic_9.png"" class=""exp-image""></div>","null","","","","","","","","","","","","",""
"","","","","","html-button-response","31","314715","0.0-31.0","","1624","<div class=""stimulus-container""><img src=""images/semantic_sequence/visiting_cities_semantic/visiting_cities_semantic_9.png"" class=""exp-image""><div class=""question-area""><p>Is there a person?</p></div></div>","1","observation","visiting_cities_semantic","semantic_sequence","9","","","","","","","","",""
"","","","","","html-keyboard-response","32","318715","0.0-32.0","","null","<div class=""stimulus-container""><img src=""images/semantic_sequence/visiting_cities_semantic/visiting_cities_semantic_ten.png"" class=""exp-image""></div>","null","","","","","","","","","","","","",""
"","","","","","html-button-response","33","321358","0.0-33.0","","2642","<div class=""stimulus-container""><img src=""images/semantic_sequence/visiting_cities_semantic/visiting_cities_semantic_ten.png"" class=""exp-image""><div class=""question-area""><p>Is there a person?</p></div></div>","1","observation","visiting_cities_semantic","semantic_sequence","ten","","","","","","","","",""
"","","","","","html-keyboard-response","34","323359","0.0-34.0","","null","<div style=""background-color: white; width: 100vw; height: 100vh;""></div>","null","","","","","","","","","","","","",""
"","","","","","html-keyboard-response","35","327361","0.0-35.0","","null","<div class=""stimulus-container""><img src=""images/semantic_sequence/maintaining_a_car_semantic/maintaining_a_car_semantic_1.png"" class=""exp-image""></div>","null","","","","","","","","","","","","",""
"","","","","","html-button-response","36","329969","0.0-36.0","","2607","<div class=""stimulus-container""><img src=""images/semantic_sequence/maintaining_a_car_semantic/maintaining_a_car_semantic_1.png"" class=""exp-image""><div class=""question-area""><p>Is there a person?</p></div></div>","0","observation","maintaining_a_car_semantic","semantic_sequence","1","","","","","","","","",""
"","","","","","html-keyboard-response","37","333971","0.0-37.0","","null","<div class=""stimulus-container""><img src=""images/semantic_sequence/maintaining_a_car_semantic/maintaining_a_car_semantic_2.png"" class=""exp-image""></div>","null","","","","","","","","","","","","",""
"","","","","","html-button-response","38","346718","0.0-38.0","","12747","<div class=""stimulus-container""><img src=""images/semantic_sequence/maintaining_a_car_semantic/maintaining_a_car_semantic_2.png"" class=""exp-image""><div class=""question-area""><p>Is there a person?</p></div></div>","0","observation","maintaining_a_car_semantic","semantic_sequence","2","","","","","","","","",""
"","","","","","html-keyboard-response","39","350720","0.0-39.0","","null","<div class=""stimulus-container""><img src=""images/semantic_sequence/maintaining_a_car_semantic/maintaining_a_car_semantic_3.png"" class=""exp-image""></div>","null","","","","","","","","","","","","",""
"","","","","","html-button-response","40","351623","0.0-40.0","","902","<div class=""stimulus-container""><img src=""images/semantic_sequence/maintaining_a_car_semantic/maintaining_a_car_semantic_3.png"" class=""exp-image""><div class=""question-area""><p>Is there a person?</p></div></div>","0","observation","maintaining_a_car_semantic","semantic_sequence","3","","","","","","","","",""
"","","","","","html-keyboard-response","41","355624","0.0-41.0","","null","<div class=""stimulus-container""><img src=""images/semantic_sequence/maintaining_a_car_semantic/maintaining_a_car_semantic_4.png"" class=""exp-image""></div>","null","","","","","","","","","","","","",""
"","","","","","html-button-response","42","479703","0.0-42.0","","124077","<div class=""stimulus-container""><img src=""images/semantic_sequence/maintaining_a_car_semantic/maintaining_a_car_semantic_4.png"" class=""exp-image""><div class=""question-area""><p>Is there a person?</p></div></div>","0","observation","maintaining_a_car_semantic","semantic_sequence","4","","","","","","","","",""
"","","","","","html-keyboard-response","43","483705","0.0-43.0","","null","<div class=""stimulus-container""><img src=""images/semantic_sequence/maintaining_a_car_semantic/maintaining_a_car_semantic_5.png"" class=""exp-image""></div>","null","","","","","","","","","","","","",""
"","","","","","html-button-response","44","484510","0.0-44.0","","802","<div class=""stimulus-container""><img src=""images/semantic_sequence/maintaining_a_car_semantic/maintaining_a_car_semantic_5.png"" class=""exp-image""><div class=""question-area""><p>Is there a person?</p></div></div>","0","observation","maintaining_a_car_semantic","semantic_sequence","5","","","","","","","","",""
"","","","","","html-keyboard-response","45","488513","0.0-45.0","","null","<div class=""stimulus-container""><img src=""images/semantic_sequence/maintaining_a_car_semantic/maintaining_a_car_semantic_6.png"" class=""exp-image""></div>","null","","","","","","","","","","","","",""
"","","","","","html-button-response","46","517265","0.0-46.0","","28749","<div class=""stimulus-container""><img src=""images/semantic_sequence/maintaining_a_car_semantic/maintaining_a_car_semantic_6.png"" class=""exp-image""><div class=""question-area""><p>Is there a person?</p></div></div>","0","observation","maintaining_a_car_semantic","semantic_sequence","6","","","","","","","","",""
"","","","","","html-keyboard-response","47","521265","0.0-47.0","","null","<div class=""stimulus-container""><img src=""images/semantic_sequence/maintaining_a_car_semantic/maintaining_a_car_semantic_7.png"" class=""exp-image""></div>","null","","","","","","","","","","","","",""
"","","","","","html-button-response","48","551281","0.0-48.0","","30014","<div class=""stimulus-container""><img src=""images/semantic_sequence/maintaining_a_car_semantic/maintaining_a_car_semantic_7.png"" class=""exp-image""><div class=""question-area""><p>Is there a person?</p></div></div>","0","observation","maintaining_a_car_semantic","semantic_sequence","7","","","","","","","","",""
"","","","","","html-keyboard-response","49","555282","0.0-49.0","","null","<div class=""stimulus-container""><img src=""images/semantic_sequence/maintaining_a_car_semantic/maintaining_a_car_semantic_8.png"" class=""exp-image""></div>","null","","","","","","","","","","","","",""
"","","","","","html-button-response","50","556781","0.0-50.0","","1495","<div class=""stimulus-container""><img src=""images/semantic_sequence/maintaining_a_car_semantic/maintaining_a_car_semantic_8.png"" class=""exp-image""><div class=""question-area""><p>Is there a person?</p></div></div>","0","observation","maintaining_a_car_semantic","semantic_sequence","8","","","","","","","","",""
"","","","","","html-keyboard-response","51","560783","0.0-51.0","","null","<div class=""stimulus-container""><img src=""images/semantic_sequence/maintaining_a_car_semantic/maintaining_a_car_semantic_9.png"" class=""exp-image""></div>","null","","","","","","","","","","","","",""
"","","","","","html-button-response","52","570364","0.0-52.0","","9581","<div class=""stimulus-container""><img src=""images/semantic_sequence/maintaining_a_car_semantic/maintaining_a_car_semantic_9.png"" class=""exp-image""><div class=""question-area""><p>Is there a person?</p></div></div>","0","observation","maintaining_a_car_semantic","semantic_sequence","9","","","","","","","","",""
"","","","","","html-keyboard-response","53","574368","0.0-53.0","","null","<div class=""stimulus-container""><img src=""images/semantic_sequence/maintaining_a_car_semantic/maintaining_a_car_semantic_ten.png"" class=""exp-image""></div>","null","","","","","","","","","","","","",""
"","","","","","html-button-response","54","575486","0.0-54.0","","1117","<div class=""stimulus-container""><img src=""images/semantic_sequence/maintaining_a_car_semantic/maintaining_a_car_semantic_ten.png"" class=""exp-image""><div class=""question-area""><p>Is there a person?</p></div></div>","0","observation","maintaining_a_car_semantic","semantic_sequence","ten","","","","","","","","",""
"","","","","","html-keyboard-response","55","577488","0.0-55.0","","null","<div style=""background-color: white; width: 100vw; height: 100vh;""></div>","null","","","","","","","","","","","","",""
"","","","","","html-keyboard-response","56","581490","0.0-56.0","","null","<div class=""stimulus-container""><img src=""images/causal_sequence/coin_causal/coin_causal_1.png"" class=""exp-image""></div>","null","","","","","","","","","","","","",""
"","","","","","html-button-response","57","605141","0.0-57.0","","23651","<div class=""stimulus-container""><img src=""images/causal_sequence/coin_causal/coin_causal_1.png"" class=""exp-image""><div class=""question-area""><p>Is there a person?</p></div></div>","0","observation","coin_causal","causal_sequence","1","","","","","","","","",""
"","","","","","html-keyboard-response","58","609143","0.0-58.0","","null","<div class=""stimulus-container""><img src=""images/causal_sequence/coin_causal/coin_causal_2.png"" class=""exp-image""></div>","null","","","","","","","","","","","","",""
"","","","","","html-button-response","59","618894","0.0-59.0","","9751","<div class=""stimulus-container""><img src=""images/causal_sequence/coin_causal/coin_causal_2.png"" class=""exp-image""><div class=""question-area""><p>Is there a person?</p></div></div>","0","observation","coin_causal","causal_sequence","2","","","","","","","","",""
"","","","","","html-keyboard-response","60","622896","0.0-60.0","","null","<div class=""stimulus-container""><img src=""images/causal_sequence/coin_causal/coin_causal_3.png"" class=""exp-image""></div>","null","","","","","","","","","","","","",""
"","","","","","html-button-response","61","637397","0.0-61.0","","14500","<div class=""stimulus-container""><img src=""images/causal_sequence/coin_causal/coin_causal_3.png"" class=""exp-image""><div class=""question-area""><p>Is there a person?</p></div></div>","0","observation","coin_causal","causal_sequence","3","","","","","","","","",""
"","","","","","html-keyboard-response","62","641399","0.0-62.0","","null","<div class=""stimulus-container""><img src=""images/causal_sequence/coin_causal/coin_causal_4.png"" class=""exp-image""></div>","null","","","","","","","","","","","","",""
"","","","","","html-button-response","63","642790","0.0-63.0","","1389","<div class=""stimulus-container""><img src=""images/causal_sequence/coin_causal/coin_causal_4.png"" class=""exp-image""><div class=""question-area""><p>Is there a person?</p></div></div>","0","observation","coin_causal","causal_sequence","4","","","","","","","","",""
"","","","","","html-keyboard-response","64","646791","0.0-64.0","","null","<div class=""stimulus-container""><img src=""images/causal_sequence/coin_causal/coin_causal_5.png"" class=""exp-image""></div>","null","","","","","","","","","","","","",""
"","","","","","html-button-response","65","657491","0.0-65.0","","10699","<div class=""stimulus-container""><img src=""images/causal_sequence/coin_causal/coin_causal_5.png"" class=""exp-image""><div class=""question-area""><p>Is there a person?</p></div></div>","0","observation","coin_causal","causal_sequence","5","","","","","","","","",""
"","","","","","html-keyboard-response","66","661492","0.0-66.0","","null","<div class=""stimulus-container""><img src=""images/causal_sequence/coin_causal/coin_causal_6.png"" class=""exp-image""></div>","null","","","","","","","","","","","","",""
"","","","","","html-button-response","67","663173","0.0-67.0","","1680","<div class=""stimulus-container""><img src=""images/causal_sequence/coin_causal/coin_causal_6.png"" class=""exp-image""><div class=""question-area""><p>Is there a person?</p></div></div>","0","observation","coin_causal","causal_sequence","6","","","","","","","","",""
"","","","","","html-keyboard-response","68","667175","0.0-68.0","","null","<div class=""stimulus-container""><img src=""images/causal_sequence/coin_causal/coin_causal_7.png"" class=""exp-image""></div>","null","","","","","","","","","","","","",""
"","","","","","html-button-response","69","671621","0.0-69.0","","4445","<div class=""stimulus-container""><img src=""images/causal_sequence/coin_causal/coin_causal_7.png"" class=""exp-image""><div class=""question-area""><p>Is there a person?</p></div></div>","1","observation","coin_causal","causal_sequence","7","","","","","","","","",""
"","","","","","html-keyboard-response","70","675622","0.0-70.0","","null","<div class=""stimulus-container""><img src=""images/causal_sequence/coin_causal/coin_causal_8.png"" class=""exp-image""></div>","null","","","","","","","","","","","","",""
"","","","","","html-button-response","71","676868","0.0-71.0","","1245","<div class=""stimulus-container""><img src=""images/causal_sequence/coin_causal/coin_causal_8.png"" class=""exp-image""><div class=""question-area""><p>Is there a person?</p></div></div>","0","observation","coin_causal","causal_sequence","8","","","","","","","","",""
"","","","","","html-keyboard-response","72","680869","0.0-72.0","","null","<div class=""stimulus-container""><img src=""images/causal_sequence/coin_causal/coin_causal_9.png"" class=""exp-image""></div>","null","","","","","","","","","","","","",""
"","","","","","html-button-response","73","681655","0.0-73.0","","785","<div class=""stimulus-container""><img src=""images/causal_sequence/coin_causal/coin_causal_9.png"" class=""exp-image""><div class=""question-area""><p>Is there a person?</p></div></div>","0","observation","coin_causal","causal_sequence","9","","","","","","","","",""
"","","","","","html-keyboard-response","74","685656","0.0-74.0","","null","<div class=""stimulus-container""><img src=""images/causal_sequence/coin_causal/coin_causal_ten.png"" class=""exp-image""></div>","null","","","","","","","","","","","","",""
"","","","","","html-button-response","75","686677","0.0-75.0","","1019","<div class=""stimulus-container""><img src=""images/causal_sequence/coin_causal/coin_causal_ten.png"" class=""exp-image""><div class=""question-area""><p>Is there a person?</p></div></div>","0","observation","coin_causal","causal_sequence","ten","","","","","","","","",""
"","","","","","html-keyboard-response","76","688679","0.0-76.0","","null","<div style=""background-color: white; width: 100vw; height: 100vh;""></div>","null","","","","","","","","","","","","",""
"","","","","","html-keyboard-response","77","692681","0.0-77.0","","null","<div class=""stimulus-container""><img src=""images/causal_sequence/saving_a_cat_causal/saving_a_cat_causal_1.png"" class=""exp-image""></div>","null","","","","","","","","","","","","",""
"","","","","","html-button-response","78","694735","0.0-78.0","","2051","<div class=""stimulus-container""><img src=""images/causal_sequence/saving_a_cat_causal/saving_a_cat_causal_1.png"" class=""exp-image""><div class=""question-area""><p>Is there a person?</p></div></div>","0","observation","saving_a_cat_causal","causal_sequence","1","","","","","","","","",""
"","","","","","html-keyboard-response","79","698737","0.0-79.0","","null","<div class=""stimulus-container""><img src=""images/causal_sequence/saving_a_cat_causal/saving_a_cat_causal_2.png"" class=""exp-image""></div>","null","","","","","","","","","","","","",""
"","","","","","html-button-response","80","699632","0.0-80.0","","894","<div class=""stimulus-container""><img src=""images/causal_sequence/saving_a_cat_causal/saving_a_cat_causal_2.png"" class=""exp-image""><div class=""question-area""><p>Is there a person?</p></div></div>","1","observation","saving_a_cat_causal","causal_sequence","2","","","","","","","","",""
"","","","","","html-keyboard-response","81","703634","0.0-81.0","","null","<div class=""stimulus-container""><img src=""images/causal_sequence/saving_a_cat_causal/saving_a_cat_causal_3.png"" class=""exp-image""></div>","null","","","","","","","","","","","","",""
"","","","","","html-button-response","82","705338","0.0-82.0","","1702","<div class=""stimulus-container""><img src=""images/causal_sequence/saving_a_cat_causal/saving_a_cat_causal_3.png"" class=""exp-image""><div class=""question-area""><p>Is there a person?</p></div></div>","1","observation","saving_a_cat_causal","causal_sequence","3","","","","","","","","",""
"","","","","","html-keyboard-response","83","709339","0.0-83.0","","null","<div class=""stimulus-container""><img src=""images/causal_sequence/saving_a_cat_causal/saving_a_cat_causal_4.png"" class=""exp-image""></div>","null","","","","","","","","","","","","",""
"","","","","","html-button-response","84","710496","0.0-84.0","","1154","<div class=""stimulus-container""><img src=""images/causal_sequence/saving_a_cat_causal/saving_a_cat_causal_4.png"" class=""exp-image""><div class=""question-area""><p>Is there a person?</p></div></div>","0","observation","saving_a_cat_causal","causal_sequence","4","","","","","","","","",""
"","","","","","html-keyboard-response","85","714498","0.0-85.0","","null","<div class=""stimulus-container""><img src=""images/causal_sequence/saving_a_cat_causal/saving_a_cat_causal_5.png"" class=""exp-image""></div>","null","","","","","","","","","","","","",""
"","","","","","html-button-response","86","715644","0.0-86.0","","1145","<div class=""stimulus-container""><img src=""images/causal_sequence/saving_a_cat_causal/saving_a_cat_causal_5.png"" class=""exp-image""><div class=""question-area""><p>Is there a person?</p></div></div>","0","observation","saving_a_cat_causal","causal_sequence","5","","","","","","","","",""
"","","","","","html-keyboard-response","87","719645","0.0-87.0","","null","<div class=""stimulus-container""><img src=""images/causal_sequence/saving_a_cat_causal/saving_a_cat_causal_6.png"" class=""exp-image""></div>","null","","","","","","","","","","","","",""
"","","","","","html-button-response","88","722749","0.0-88.0","","3103","<div class=""stimulus-container""><img src=""images/causal_sequence/saving_a_cat_causal/saving_a_cat_causal_6.png"" class=""exp-image""><div class=""question-area""><p>Is there a person?</p></div></div>","0","observation","saving_a_cat_causal","causal_sequence","6","","","","","","","","",""
"","","","","","html-keyboard-response","89","726749","0.0-89.0","","null","<div class=""stimulus-container""><img src=""images/causal_sequence/saving_a_cat_causal/saving_a_cat_causal_7.png"" class=""exp-image""></div>","null","","","","","","","","","","","","",""
"","","","","","html-button-response","90","727723","0.0-90.0","","973","<div class=""stimulus-container""><img src=""images/causal_sequence/saving_a_cat_causal/saving_a_cat_causal_7.png"" class=""exp-image""><div class=""question-area""><p>Is there a person?</p></div></div>","0","observation","saving_a_cat_causal","causal_sequence","7","","","","","","","","",""
"","","","","","html-keyboard-response","91","731724","0.0-91.0","","null","<div class=""stimulus-container""><img src=""images/causal_sequence/saving_a_cat_causal/saving_a_cat_causal_8.png"" class=""exp-image""></div>","null","","","","","","","","","","","","",""
"","","","","","html-button-response","92","732543","0.0-92.0","","819","<div class=""stimulus-container""><img src=""images/causal_sequence/saving_a_cat_causal/saving_a_cat_causal_8.png"" class=""exp-image""><div class=""question-area""><p>Is there a person?</p></div></div>","0","observation","saving_a_cat_causal","causal_sequence","8","","","","","","","","",""
"","","","","","html-keyboard-response","93","736545","0.0-93.0","","null","<div class=""stimulus-container""><img src=""images/causal_sequence/saving_a_cat_causal/saving_a_cat_causal_9.png"" class=""exp-image""></div>","null","","","","","","","","","","","","",""
"","","","","","html-button-response","94","741068","0.0-94.0","","4522","<div class=""stimulus-container""><img src=""images/causal_sequence/saving_a_cat_causal/saving_a_cat_causal_9.png"" class=""exp-image""><div class=""question-area""><p>Is there a person?</p></div></div>","0","observation","saving_a_cat_causal","causal_sequence","9","","","","","","","","",""
"","","","","","html-keyboard-response","95","745069","0.0-95.0","","null","<div class=""stimulus-container""><img src=""images/causal_sequence/saving_a_cat_causal/saving_a_cat_causal_ten.png"" class=""exp-image""></div>","null","","","","","","","","","","","","",""
"","","","","","html-button-response","96","746698","0.0-96.0","","1628","<div class=""stimulus-container""><img src=""images/causal_sequence/saving_a_cat_causal/saving_a_cat_causal_ten.png"" class=""exp-image""><div class=""question-area""><p>Is there a person?</p></div></div>","0","observation","saving_a_cat_causal","causal_sequence","ten","","","","","","","","",""
"","","","","","html-keyboard-response","97","748699","0.0-97.0","","null","<div style=""background-color: white; width: 100vw; height: 100vh;""></div>","null","","","","","","","","","","","","",""
"","","","","","html-keyboard-response","98","752700","0.0-98.0","","null","<div class=""stimulus-container""><img src=""images/semantic_sequence/kitchen_operations_semantic/kitchen_operations_semantic_1.png"" class=""exp-image""></div>","null","","","","","","","","","","","","",""
"","","","","","html-button-response","99","755453","0.0-99.0","","2752","<div class=""stimulus-container""><img src=""images/semantic_sequence/kitchen_operations_semantic/kitchen_operations_semantic_1.png"" class=""exp-image""><div class=""question-area""><p>Is there a person?</p></div></div>","0","observation","kitchen_operations_semantic","semantic_sequence","1","","","","","","","","",""
"","","","","","html-keyboard-response","100","759455","0.0-100.0","","null","<div class=""stimulus-container""><img src=""images/semantic_sequence/kitchen_operations_semantic/kitchen_operations_semantic_2.png"" class=""exp-image""></div>","null","","","","","","","","","","","","",""
"","","","","","html-button-response","101","760236","0.0-101.0","","781","<div class=""stimulus-container""><img src=""images/semantic_sequence/kitchen_operations_semantic/kitchen_operations_semantic_2.png"" class=""exp-image""><div class=""question-area""><p>Is there a person?</p></div></div>","0","observation","kitchen_operations_semantic","semantic_sequence","2","","","","","","","","",""
"","","","","","html-keyboard-response","102","764236","0.0-102.0","","null","<div class=""stimulus-container""><img src=""images/semantic_sequence/kitchen_operations_semantic/kitchen_operations_semantic_3.png"" class=""exp-image""></div>","null","","","","","","","","","","","","",""
"","","","","","html-button-response","103","778615","0.0-103.0","","14376","<div class=""stimulus-container""><img src=""images/semantic_sequence/kitchen_operations_semantic/kitchen_operations_semantic_3.png"" class=""exp-image""><div class=""question-area""><p>Is there a person?</p></div></div>","0","observation","kitchen_operations_semantic","semantic_sequence","3","","","","","","","","",""
"","","","","","html-keyboard-response","104","782617","0.0-104.0","","null","<div class=""stimulus-container""><img src=""images/semantic_sequence/kitchen_operations_semantic/kitchen_operations_semantic_4.png"" class=""exp-image""></div>","null","","","","","","","","","","","","",""
"","","","","","html-button-response","105","784106","0.0-105.0","","1488","<div class=""stimulus-container""><img src=""images/semantic_sequence/kitchen_operations_semantic/kitchen_operations_semantic_4.png"" class=""exp-image""><div class=""question-area""><p>Is there a person?</p></div></div>","0","observation","kitchen_operations_semantic","semantic_sequence","4","","","","","","","","",""
"","","","","","html-keyboard-response","106","788107","0.0-106.0","","null","<div class=""stimulus-container""><img src=""images/semantic_sequence/kitchen_operations_semantic/kitchen_operations_semantic_5.png"" class=""exp-image""></div>","null","","","","","","","","","","","","",""
"","","","","","html-button-response","107","790130","0.0-107.0","","2022","<div class=""stimulus-container""><img src=""images/semantic_sequence/kitchen_operations_semantic/kitchen_operations_semantic_5.png"" class=""exp-image""><div class=""question-area""><p>Is there a person?</p></div></div>","0","observation","kitchen_operations_semantic","semantic_sequence","5","","","","","","","","",""
"","","","","","html-keyboard-response","108","794131","0.0-108.0","","null","<div class=""stimulus-container""><img src=""images/semantic_sequence/kitchen_operations_semantic/kitchen_operations_semantic_6.png"" class=""exp-image""></div>","null","","","","","","","","","","","","",""
"","","","","","html-button-response","109","795420","0.0-109.0","","1287","<div class=""stimulus-container""><img src=""images/semantic_sequence/kitchen_operations_semantic/kitchen_operations_semantic_6.png"" class=""exp-image""><div class=""question-area""><p>Is there a person?</p></div></div>","0","observation","kitchen_operations_semantic","semantic_sequence","6","","","","","","","","",""
"","","","","","html-keyboard-response","110","799422","0.0-110.0","","null","<div class=""stimulus-container""><img src=""images/semantic_sequence/kitchen_operations_semantic/kitchen_operations_semantic_7.png"" class=""exp-image""></div>","null","","","","","","","","","","","","",""
"","","","","","html-button-response","111","801080","0.0-111.0","","1656","<div class=""stimulus-container""><img src=""images/semantic_sequence/kitchen_operations_semantic/kitchen_operations_semantic_7.png"" class=""exp-image""><div class=""question-area""><p>Is there a person?</p></div></div>","0","observation","kitchen_operations_semantic","semantic_sequence","7","","","","","","","","",""
"","","","","","html-keyboard-response","112","805080","0.0-112.0","","null","<div class=""stimulus-container""><img src=""images/semantic_sequence/kitchen_operations_semantic/kitchen_operations_semantic_8.png"" class=""exp-image""></div>","null","","","","","","","","","","","","",""
"","","","","","html-button-response","113","805734","0.0-113.0","","653","<div class=""stimulus-container""><img src=""images/semantic_sequence/kitchen_operations_semantic/kitchen_operations_semantic_8.png"" class=""exp-image""><div class=""question-area""><p>Is there a person?</p></div></div>","0","observation","kitchen_operations_semantic","semantic_sequence","8","","","","","","","","",""
"","","","","","html-keyboard-response","114","809735","0.0-114.0","","null","<div class=""stimulus-container""><img src=""images/semantic_sequence/kitchen_operations_semantic/kitchen_operations_semantic_9.png"" class=""exp-image""></div>","null","","","","","","","","","","","","",""
"","","","","","html-button-response","115","810507","0.0-115.0","","771","<div class=""stimulus-container""><img src=""images/semantic_sequence/kitchen_operations_semantic/kitchen_operations_semantic_9.png"" class=""exp-image""><div class=""question-area""><p>Is there a person?</p></div></div>","0","observation","kitchen_operations_semantic","semantic_sequence","9","","","","","","","","",""
"","","","","","html-keyboard-response","116","814508","0.0-116.0","","null","<div class=""stimulus-container""><img src=""images/semantic_sequence/kitchen_operations_semantic/kitchen_operations_semantic_ten.png"" class=""exp-image""></div>","null","","","","","","","","","","","","",""
"","","","","","html-button-response","117","815390","0.0-117.0","","881","<div class=""stimulus-container""><img src=""images/semantic_sequence/kitchen_operations_semantic/kitchen_operations_semantic_ten.png"" class=""exp-image""><div class=""question-area""><p>Is there a person?</p></div></div>","0","observation","kitchen_operations_semantic","semantic_sequence","ten","","","","","","","","",""
"","","","","","html-keyboard-response","118","817391","0.0-118.0","","null","<div style=""background-color: white; width: 100vw; height: 100vh;""></div>","null","","","","","","","","","","","","",""
"","","","","","html-keyboard-response","119","821393","0.0-119.0","","null","<div class=""stimulus-container""><img src=""images/causal_sequence/package_causal/package_causal_1.png"" class=""exp-image""></div>","null","","","","","","","","","","","","",""
"","","","","","html-button-response","120","822427","0.0-120.0","","1033","<div class=""stimulus-container""><img src=""images/causal_sequence/package_causal/package_causal_1.png"" class=""exp-image""><div class=""question-area""><p>Is there a person?</p></div></div>","0","observation","package_causal","causal_sequence","1","","","","","","","","",""
"","","","","","html-keyboard-response","121","826429","0.0-121.0","","null","<div class=""stimulus-container""><img src=""images/causal_sequence/package_causal/package_causal_2.png"" class=""exp-image""></div>","null","","","","","","","","","","","","",""
"","","","","","html-button-response","122","864314","0.0-122.0","","37884","<div class=""stimulus-container""><img src=""images/causal_sequence/package_causal/package_causal_2.png"" class=""exp-image""><div class=""question-area""><p>Is there a person?</p></div></div>","0","observation","package_causal","causal_sequence","2","","","","","","","","",""
"","","","","","html-keyboard-response","123","868316","0.0-123.0","","null","<div class=""stimulus-container""><img src=""images/causal_sequence/package_causal/package_causal_3.png"" class=""exp-image""></div>","null","","","","","","","","","","","","",""
"","","","","","html-button-response","124","878497","0.0-124.0","","10180","<div class=""stimulus-container""><img src=""images/causal_sequence/package_causal/package_causal_3.png"" class=""exp-image""><div class=""question-area""><p>Is there a person?</p></div></div>","0","observation","package_causal","causal_sequence","3","","","","","","","","",""
"","","","","","html-keyboard-response","125","882498","0.0-125.0","","null","<div class=""stimulus-container""><img src=""images/causal_sequence/package_causal/package_causal_4.png"" class=""exp-image""></div>","null","","","","","","","","","","","","",""
"","","","","","html-button-response","126","891886","0.0-126.0","","9387","<div class=""stimulus-container""><img src=""images/causal_sequence/package_causal/package_causal_4.png"" class=""exp-image""><div class=""question-area""><p>Is there a person?</p></div></div>","1","observation","package_causal","causal_sequence","4","","","","","","","","",""
"","","","","","html-keyboard-response","127","895887","0.0-127.0","","null","<div class=""stimulus-container""><img src=""images/causal_sequence/package_causal/package_causal_5.png"" class=""exp-image""></div>","null","","","","","","","","","","","","",""
"","","","","","html-button-response","128","897102","0.0-128.0","","1215","<div class=""stimulus-container""><img src=""images/causal_sequence/package_causal/package_causal_5.png"" class=""exp-image""><div class=""question-area""><p>Is there a person?</p></div></div>","0","observation","package_causal","causal_sequence","5","","","","","","","","",""
"","","","","","html-keyboard-response","129","901103","0.0-129.0","","null","<div class=""stimulus-container""><img src=""images/causal_sequence/package_causal/package_causal_6.png"" class=""exp-image""></div>","null","","","","","","","","","","","","",""
"","","","","","html-button-response","130","909463","0.0-130.0","","8359","<div class=""stimulus-container""><img src=""images/causal_sequence/package_causal/package_causal_6.png"" class=""exp-image""><div class=""question-area""><p>Is there a person?</p></div></div>","0","observation","package_causal","causal_sequence","6","","","","","","","","",""
"","","","","","html-keyboard-response","131","913464","0.0-131.0","","null","<div class=""stimulus-container""><img src=""images/causal_sequence/package_causal/package_causal_7.png"" class=""exp-image""></div>","null","","","","","","","","","","","","",""
"","","","","","html-button-response","132","1014669","0.0-132.0","","101204","<div class=""stimulus-container""><img src=""images/causal_sequence/package_causal/package_causal_7.png"" class=""exp-image""><div class=""question-area""><p>Is there a person?</p></div></div>","0","observation","package_causal","causal_sequence","7","","","","","","","","",""
"","","","","","html-keyboard-response","133","1018671","0.0-133.0","","null","<div class=""stimulus-container""><img src=""images/causal_sequence/package_causal/package_causal_8.png"" class=""exp-image""></div>","null","","","","","","","","","","","","",""
"","","","","","html-button-response","134","1020728","0.0-134.0","","2058","<div class=""stimulus-container""><img src=""images/causal_sequence/package_causal/package_causal_8.png"" class=""exp-image""><div class=""question-area""><p>Is there a person?</p></div></div>","0","observation","package_causal","causal_sequence","8","","","","","","","","",""
"","","","","","html-keyboard-response","135","1024730","0.0-135.0","","null","<div class=""stimulus-container""><img src=""images/causal_sequence/package_causal/package_causal_9.png"" class=""exp-image""></div>","null","","","","","","","","","","","","",""
"","","","","","html-button-response","136","1026596","0.0-136.0","","1866","<div class=""stimulus-container""><img src=""images/causal_sequence/package_causal/package_causal_9.png"" class=""exp-image""><div class=""question-area""><p>Is there a person?</p></div></div>","0","observation","package_causal","causal_sequence","9","","","","","","","","",""
"","","","","","html-keyboard-response","137","1030598","0.0-137.0","","null","<div class=""stimulus-container""><img src=""images/causal_sequence/package_causal/package_causal_ten.png"" class=""exp-image""></div>","null","","","","","","","","","","","","",""
"","","","","","html-button-response","138","1031313","0.0-138.0","","714","<div class=""stimulus-container""><img src=""images/causal_sequence/package_causal/package_causal_ten.png"" class=""exp-image""><div class=""question-area""><p>Is there a person?</p></div></div>","0","observation","package_causal","causal_sequence","ten","","","","","","","","",""
"","","","","","html-keyboard-response","139","1033314","0.0-139.0","","null","<div style=""background-color: white; width: 100vw; height: 100vh;""></div>","null","","","","","","","","","","","","",""
"","","","","","html-keyboard-response","140","1037316","0.0-140.0","","null","<div class=""stimulus-container""><img src=""images/causal_sequence/the_performance_causal/the_performance_causal_1.png"" class=""exp-image""></div>","null","","","","","","","","","","","","",""
"","","","","","html-button-response","141","1038983","0.0-141.0","","1666","<div class=""stimulus-container""><img src=""images/causal_sequence/the_performance_causal/the_performance_causal_1.png"" class=""exp-image""><div class=""question-area""><p>Is there a person?</p></div></div>","0","observation","the_performance_causal","causal_sequence","1","","","","","","","","",""
"","","","","","html-keyboard-response","142","1042984","0.0-142.0","","null","<div class=""stimulus-container""><img src=""images/causal_sequence/the_performance_causal/the_performance_causal_2.png"" class=""exp-image""></div>","null","","","","","","","","","","","","",""
"","","","","","html-button-response","143","1046740","0.0-143.0","","3756","<div class=""stimulus-container""><img src=""images/causal_sequence/the_performance_causal/the_performance_causal_2.png"" class=""exp-image""><div class=""question-area""><p>Is there a person?</p></div></div>","0","observation","the_performance_causal","causal_sequence","2","","","","","","","","",""
"","","","","","html-keyboard-response","144","1050741","0.0-144.0","","null","<div class=""stimulus-container""><img src=""images/causal_sequence/the_performance_causal/the_performance_causal_3.png"" class=""exp-image""></div>","null","","","","","","","","","","","","",""
"","","","","","html-button-response","145","1054876","0.0-145.0","","4134","<div class=""stimulus-container""><img src=""images/causal_sequence/the_performance_causal/the_performance_causal_3.png"" class=""exp-image""><div class=""question-area""><p>Is there a person?</p></div></div>","0","observation","the_performance_causal","causal_sequence","3","","","","","","","","",""
"","","","","","html-keyboard-response","146","1058877","0.0-146.0","","null","<div class=""stimulus-container""><img src=""images/causal_sequence/the_performance_causal/the_performance_causal_4.png"" class=""exp-image""></div>","null","","","","","","","","","","","","",""
"","","","","","html-button-response","147","1062006","0.0-147.0","","3128","<div class=""stimulus-container""><img src=""images/causal_sequence/the_performance_causal/the_performance_causal_4.png"" class=""exp-image""><div class=""question-area""><p>Is there a person?</p></div></div>","0","observation","the_performance_causal","causal_sequence","4","","","","","","","","",""
"","","","","","html-keyboard-response","148","1066008","0.0-148.0","","null","<div class=""stimulus-container""><img src=""images/causal_sequence/the_performance_causal/the_performance_causal_5.png"" class=""exp-image""></div>","null","","","","","","","","","","","","",""
"","","","","","html-button-response","149","1066867","0.0-149.0","","856","<div class=""stimulus-container""><img src=""images/causal_sequence/the_performance_causal/the_performance_causal_5.png"" class=""exp-image""><div class=""question-area""><p>Is there a person?</p></div></div>","0","observation","the_performance_causal","causal_sequence","5","","","","","","","","",""
"","","","","","html-keyboard-response","150","1070869","0.0-150.0","","null","<div class=""stimulus-container""><img src=""images/causal_sequence/the_performance_causal/the_performance_causal_6.png"" class=""exp-image""></div>","null","","","","","","","","","","","","",""
"","","","","","html-button-response","151","1071829","0.0-151.0","","959","<div class=""stimulus-container""><img src=""images/causal_sequence/the_performance_causal/the_performance_causal_6.png"" class=""exp-image""><div class=""question-area""><p>Is there a person?</p></div></div>","0","observation","the_performance_causal","causal_sequence","6","","","","","","","","",""
"","","","","","html-keyboard-response","152","1075830","0.0-152.0","","null","<div class=""stimulus-container""><img src=""images/causal_sequence/the_performance_causal/the_performance_causal_7.png"" class=""exp-image""></div>","null","","","","","","","","","","","","",""
"","","","","","html-button-response","153","1076836","0.0-153.0","","1005","<div class=""stimulus-container""><img src=""images/causal_sequence/the_performance_causal/the_performance_causal_7.png"" class=""exp-image""><div class=""question-area""><p>Is there a person?</p></div></div>","0","observation","the_performance_causal","causal_sequence","7","","","","","","","","",""
"","","","","","html-keyboard-response","154","1080837","0.0-154.0","","null","<div class=""stimulus-container""><img src=""images/causal_sequence/the_performance_causal/the_performance_causal_8.png"" class=""exp-image""></div>","null","","","","","","","","","","","","",""
"","","","","","html-button-response","155","1081789","0.0-155.0","","951","<div class=""stimulus-container""><img src=""images/causal_sequence/the_performance_causal/the_performance_causal_8.png"" class=""exp-image""><div class=""question-area""><p>Is there a person?</p></div></div>","0","observation","the_performance_causal","causal_sequence","8","","","","","","","","",""
"","","","","","html-keyboard-response","156","1085791","0.0-156.0","","null","<div class=""stimulus-container""><img src=""images/causal_sequence/the_performance_causal/the_performance_causal_9.png"" class=""exp-image""></div>","null","","","","","","","","","","","","",""
"","","","","","html-button-response","157","1089513","0.0-157.0","","3722","<div class=""stimulus-container""><img src=""images/causal_sequence/the_performance_causal/the_performance_causal_9.png"" class=""exp-image""><div class=""question-area""><p>Is there a person?</p></div></div>","0","observation","the_performance_causal","causal_sequence","9","","","","","","","","",""
"","","","","","html-keyboard-response","158","1093515","0.0-158.0","","null","<div class=""stimulus-container""><img src=""images/causal_sequence/the_performance_causal/the_performance_causal_ten.png"" class=""exp-image""></div>","null","","","","","","","","","","","","",""
"","","","","","html-button-response","159","1096883","0.0-159.0","","3366","<div class=""stimulus-container""><img src=""images/causal_sequence/the_performance_causal/the_performance_causal_ten.png"" class=""exp-image""><div class=""question-area""><p>Is there a person?</p></div></div>","0","observation","the_performance_causal","causal_sequence","ten","","","","","","","","",""
"","","","","","html-keyboard-response","160","1098885","0.0-160.0","","null","<div style=""background-color: white; width: 100vw; height: 100vh;""></div>","null","","","","","","","","","","","","",""
"","","","","","html-keyboard-response","161","1102886","0.0-161.0","","null","<div class=""stimulus-container""><img src=""images/semantic_sequence/physical_activity_semantic/physical_activity_semantic_1.png"" class=""exp-image""></div>","null","","","","","","","","","","","","",""
"","","","","","html-button-response","162","1104703","0.0-162.0","","1816","<div class=""stimulus-container""><img src=""images/semantic_sequence/physical_activity_semantic/physical_activity_semantic_1.png"" class=""exp-image""><div class=""question-area""><p>Is there a person?</p></div></div>","0","observation","physical_activity_semantic","semantic_sequence","1","","","","","","","","",""
"","","","","","html-keyboard-response","163","1108704","0.0-163.0","","null","<div class=""stimulus-container""><img src=""images/semantic_sequence/physical_activity_semantic/physical_activity_semantic_2.png"" class=""exp-image""></div>","null","","","","","","","","","","","","",""
"","","","","","html-button-response","164","1109838","0.0-164.0","","1132","<div class=""stimulus-container""><img src=""images/semantic_sequence/physical_activity_semantic/physical_activity_semantic_2.png"" class=""exp-image""><div class=""question-area""><p>Is there a person?</p></div></div>","0","observation","physical_activity_semantic","semantic_sequence","2","","","","","","","","",""
"","","","","","html-keyboard-response","165","1113840","0.0-165.0","","null","<div class=""stimulus-container""><img src=""images/semantic_sequence/physical_activity_semantic/physical_activity_semantic_3.png"" class=""exp-image""></div>","null","","","","","","","","","","","","",""
"","","","","","html-button-response","166","1114994","0.0-166.0","","1151","<div class=""stimulus-container""><img src=""images/semantic_sequence/physical_activity_semantic/physical_activity_semantic_3.png"" class=""exp-image""><div class=""question-area""><p>Is there a person?</p></div></div>","0","observation","physical_activity_semantic","semantic_sequence","3","","","","","","","","",""
"","","","","","html-keyboard-response","167","1118996","0.0-167.0","","null","<div class=""stimulus-container""><img src=""images/semantic_sequence/physical_activity_semantic/physical_activity_semantic_4.png"" class=""exp-image""></div>","null","","","","","","","","","","","","",""
"","","","","","html-button-response","168","1119949","0.0-168.0","","952","<div class=""stimulus-container""><img src=""images/semantic_sequence/physical_activity_semantic/physical_activity_semantic_4.png"" class=""exp-image""><div class=""question-area""><p>Is there a person?</p></div></div>","0","observation","physical_activity_semantic","semantic_sequence","4","","","","","","","","",""
"","","","","","html-keyboard-response","169","1123951","0.0-169.0","","null","<div class=""stimulus-container""><img src=""images/semantic_sequence/physical_activity_semantic/physical_activity_semantic_5.png"" class=""exp-image""></div>","null","","","","","","","","","","","","",""
"","","","","","html-button-response","170","1134479","0.0-170.0","","10527","<div class=""stimulus-container""><img src=""images/semantic_sequence/physical_activity_semantic/physical_activity_semantic_5.png"" class=""exp-image""><div class=""question-area""><p>Is there a person?</p></div></div>","0","observation","physical_activity_semantic","semantic_sequence","5","","","","","","","","",""
"","","","","","html-keyboard-response","171","1138481","0.0-171.0","","null","<div class=""stimulus-container""><img src=""images/semantic_sequence/physical_activity_semantic/physical_activity_semantic_6.png"" class=""exp-image""></div>","null","","","","","","","","","","","","",""
"","","","","","html-button-response","172","1140552","0.0-172.0","","2068","<div class=""stimulus-container""><img src=""images/semantic_sequence/physical_activity_semantic/physical_activity_semantic_6.png"" class=""exp-image""><div class=""question-area""><p>Is there a person?</p></div></div>","0","observation","physical_activity_semantic","semantic_sequence","6","","","","","","","","",""
"","","","","","html-keyboard-response","173","1144553","0.0-173.0","","null","<div class=""stimulus-container""><img src=""images/semantic_sequence/physical_activity_semantic/physical_activity_semantic_7.png"" class=""exp-image""></div>","null","","","","","","","","","","","","",""
"","","","","","html-button-response","174","1147073","0.0-174.0","","2519","<div class=""stimulus-container""><img src=""images/semantic_sequence/physical_activity_semantic/physical_activity_semantic_7.png"" class=""exp-image""><div class=""question-area""><p>Is there a person?</p></div></div>","0","observation","physical_activity_semantic","semantic_sequence","7","","","","","","","","",""
"","","","","","html-keyboard-response","175","1151074","0.0-175.0","","null","<div class=""stimulus-container""><img src=""images/semantic_sequence/physical_activity_semantic/physical_activity_semantic_8.png"" class=""exp-image""></div>","null","","","","","","","","","","","","",""
"","","","","","html-button-response","176","1179673","0.0-176.0","","28597","<div class=""stimulus-container""><img src=""images/semantic_sequence/physical_activity_semantic/physical_activity_semantic_8.png"" class=""exp-image""><div class=""question-area""><p>Is there a person?</p></div></div>","0","observation","physical_activity_semantic","semantic_sequence","8","","","","","","","","",""
"","","","","","html-keyboard-response","177","1183677","0.0-177.0","","null","<div class=""stimulus-container""><img src=""images/semantic_sequence/physical_activity_semantic/physical_activity_semantic_9.png"" class=""exp-image""></div>","null","","","","","","","","","","","","",""
"","","","","","html-button-response","178","1187278","0.0-178.0","","3600","<div class=""stimulus-container""><img src=""images/semantic_sequence/physical_activity_semantic/physical_activity_semantic_9.png"" class=""exp-image""><div class=""question-area""><p>Is there a person?</p></div></div>","0","observation","physical_activity_semantic","semantic_sequence","9","","","","","","","","",""
"","","","","","html-keyboard-response","179","1191280","0.0-179.0","","null","<div class=""stimulus-container""><img src=""images/semantic_sequence/physical_activity_semantic/physical_activity_semantic_ten.png"" class=""exp-image""></div>","null","","","","","","","","","","","","",""
"","","","","","html-button-response","180","1195465","0.0-180.0","","4185","<div class=""stimulus-container""><img src=""images/semantic_sequence/physical_activity_semantic/physical_activity_semantic_ten.png"" class=""exp-image""><div class=""question-area""><p>Is there a person?</p></div></div>","0","observation","physical_activity_semantic","semantic_sequence","ten","","","","","","","","",""
"","","","","","html-keyboard-response","181","1197466","0.0-181.0","","null","<div style=""background-color: white; width: 100vw; height: 100vh;""></div>","null","","","","","","","","","","","","",""
"","","","","","html-keyboard-response","182","1201467","0.0-182.0","","null","<div class=""stimulus-container""><img src=""images/semantic_sequence/housework_semantic/housework_semantic_1.png"" class=""exp-image""></div>","null","","","","","","","","","","","","",""
"","","","","","html-button-response","183","1207549","0.0-183.0","","6081","<div class=""stimulus-container""><img src=""images/semantic_sequence/housework_semantic/housework_semantic_1.png"" class=""exp-image""><div class=""question-area""><p>Is there a person?</p></div></div>","1","observation","housework_semantic","semantic_sequence","1","","","","","","","","",""
"","","","","","html-keyboard-response","184","1211550","0.0-184.0","","null","<div class=""stimulus-container""><img src=""images/semantic_sequence/housework_semantic/housework_semantic_2.png"" class=""exp-image""></div>","null","","","","","","","","","","","","",""
"","","","","","html-button-response","185","1213034","0.0-185.0","","1482","<div class=""stimulus-container""><img src=""images/semantic_sequence/housework_semantic/housework_semantic_2.png"" class=""exp-image""><div class=""question-area""><p>Is there a person?</p></div></div>","0","observation","housework_semantic","semantic_sequence","2","","","","","","","","",""
"","","","","","html-keyboard-response","186","1217036","0.0-186.0","","null","<div class=""stimulus-container""><img src=""images/semantic_sequence/housework_semantic/housework_semantic_3.png"" class=""exp-image""></div>","null","","","","","","","","","","","","",""
"","","","","","html-button-response","187","1223037","0.0-187.0","","6001","<div class=""stimulus-container""><img src=""images/semantic_sequence/housework_semantic/housework_semantic_3.png"" class=""exp-image""><div class=""question-area""><p>Is there a person?</p></div></div>","0","observation","housework_semantic","semantic_sequence","3","","","","","","","","",""
"","","","","","html-keyboard-response","188","1227039","0.0-188.0","","null","<div class=""stimulus-container""><img src=""images/semantic_sequence/housework_semantic/housework_semantic_4.png"" class=""exp-image""></div>","null","","","","","","","","","","","","",""
"","","","","","html-button-response","189","1227930","0.0-189.0","","891","<div class=""stimulus-container""><img src=""images/semantic_sequence/housework_semantic/housework_semantic_4.png"" class=""exp-image""><div class=""question-area""><p>Is there a person?</p></div></div>","0","observation","housework_semantic","semantic_sequence","4","","","","","","","","",""
"","","","","","html-keyboard-response","190","1231932","0.0-190.0","","null","<div class=""stimulus-container""><img src=""images/semantic_sequence/housework_semantic/housework_semantic_5.png"" class=""exp-image""></div>","null","","","","","","","","","","","","",""
"","","","","","html-button-response","191","1233634","0.0-191.0","","1701","<div class=""stimulus-container""><img src=""images/semantic_sequence/housework_semantic/housework_semantic_5.png"" class=""exp-image""><div class=""question-area""><p>Is there a person?</p></div></div>","0","observation","housework_semantic","semantic_sequence","5","","","","","","","","",""
"","","","","","html-keyboard-response","192","1237635","0.0-192.0","","null","<div class=""stimulus-container""><img src=""images/semantic_sequence/housework_semantic/housework_semantic_6.png"" class=""exp-image""></div>","null","","","","","","","","","","","","",""
"","","","","","html-button-response","193","1242158","0.0-193.0","","4523","<div class=""stimulus-container""><img src=""images/semantic_sequence/housework_semantic/housework_semantic_6.png"" class=""exp-image""><div class=""question-area""><p>Is there a person?</p></div></div>","0","observation","housework_semantic","semantic_sequence","6","","","","","","","","",""
"","","","","","html-keyboard-response","194","1246160","0.0-194.0","","null","<div class=""stimulus-container""><img src=""images/semantic_sequence/housework_semantic/housework_semantic_7.png"" class=""exp-image""></div>","null","","","","","","","","","","","","",""
"","","","","","html-button-response","195","1250178","0.0-195.0","","4018","<div class=""stimulus-container""><img src=""images/semantic_sequence/housework_semantic/housework_semantic_7.png"" class=""exp-image""><div class=""question-area""><p>Is there a person?</p></div></div>","1","observation","housework_semantic","semantic_sequence","7","","","","","","","","",""
"","","","","","html-keyboard-response","196","1254181","0.0-196.0","","null","<div class=""stimulus-container""><img src=""images/semantic_sequence/housework_semantic/housework_semantic_8.png"" class=""exp-image""></div>","null","","","","","","","","","","","","",""
"","","","","","html-button-response","197","1255714","0.0-197.0","","1530","<div class=""stimulus-container""><img src=""images/semantic_sequence/housework_semantic/housework_semantic_8.png"" class=""exp-image""><div class=""question-area""><p>Is there a person?</p></div></div>","0","observation","housework_semantic","semantic_sequence","8","","","","","","","","",""
"","","","","","html-keyboard-response","198","1259716","0.0-198.0","","null","<div class=""stimulus-container""><img src=""images/semantic_sequence/housework_semantic/housework_semantic_9.png"" class=""exp-image""></div>","null","","","","","","","","","","","","",""
"","","","","","html-button-response","199","1273073","0.0-199.0","","13356","<div class=""stimulus-container""><img src=""images/semantic_sequence/housework_semantic/housework_semantic_9.png"" class=""exp-image""><div class=""question-area""><p>Is there a person?</p></div></div>","0","observation","housework_semantic","semantic_sequence","9","","","","","","","","",""
"","","","","","html-keyboard-response","200","1277075","0.0-200.0","","null","<div class=""stimulus-container""><img src=""images/semantic_sequence/housework_semantic/housework_semantic_ten.png"" class=""exp-image""></div>","null","","","","","","","","","","","","",""
"","","","","","html-button-response","201","1278613","0.0-201.0","","1537","<div class=""stimulus-container""><img src=""images/semantic_sequence/housework_semantic/housework_semantic_ten.png"" class=""exp-image""><div class=""question-area""><p>Is there a person?</p></div></div>","0","observation","housework_semantic","semantic_sequence","ten","","","","","","","","",""
"","","","","","html-keyboard-response","202","1280615","0.0-202.0","","null","<div style=""background-color: white; width: 100vw; height: 100vh;""></div>","null","","","","","","","","","","","","",""
"","","","","","html-keyboard-response","203","1284616","0.0-203.0","","null","<div class=""stimulus-container""><img src=""images/causal_sequence/museum_causal/museum_causal_1.png"" class=""exp-image""></div>","null","","","","","","","","","","","","",""
"","","","","","html-button-response","204","1285314","0.0-204.0","","695","<div class=""stimulus-container""><img src=""images/causal_sequence/museum_causal/museum_causal_1.png"" class=""exp-image""><div class=""question-area""><p>Is there a person?</p></div></div>","0","observation","museum_causal","causal_sequence","1","","","","","","","","",""
"","","","","","html-keyboard-response","205","1289315","0.0-205.0","","null","<div class=""stimulus-container""><img src=""images/causal_sequence/museum_causal/museum_causal_2.png"" class=""exp-image""></div>","null","","","","","","","","","","","","",""
"","","","","","html-button-response","206","1289977","0.0-206.0","","661","<div class=""stimulus-container""><img src=""images/causal_sequence/museum_causal/museum_causal_2.png"" class=""exp-image""><div class=""question-area""><p>Is there a person?</p></div></div>","1","observation","museum_causal","causal_sequence","2","","","","","","","","",""
"","","","","","html-keyboard-response","207","1293979","0.0-207.0","","null","<div class=""stimulus-container""><img src=""images/causal_sequence/museum_causal/museum_causal_3.png"" class=""exp-image""></div>","null","","","","","","","","","","","","",""
"","","","","","html-button-response","208","1294519","0.0-208.0","","538","<div class=""stimulus-container""><img src=""images/causal_sequence/museum_causal/museum_causal_3.png"" class=""exp-image""><div class=""question-area""><p>Is there a person?</p></div></div>","1","observation","museum_causal","causal_sequence","3","","","","","","","","",""
"","","","","","html-keyboard-response","209","1298521","0.0-209.0","","null","<div class=""stimulus-container""><img src=""images/causal_sequence/museum_causal/museum_causal_4.png"" class=""exp-image""></div>","null","","","","","","","","","","","","",""
"","","","","","html-button-response","210","1299834","0.0-210.0","","1312","<div class=""stimulus-container""><img src=""images/causal_sequence/museum_causal/museum_causal_4.png"" class=""exp-image""><div class=""question-area""><p>Is there a person?</p></div></div>","1","observation","museum_causal","causal_sequence","4","","","","","","","","",""
"","","","","","html-keyboard-response","211","1303835","0.0-211.0","","null","<div class=""stimulus-container""><img src=""images/causal_sequence/museum_causal/museum_causal_5.png"" class=""exp-image""></div>","null","","","","","","","","","","","","",""
"","","","","","html-button-response","212","1304669","0.0-212.0","","832","<div class=""stimulus-container""><img src=""images/causal_sequence/museum_causal/museum_causal_5.png"" class=""exp-image""><div class=""question-area""><p>Is there a person?</p></div></div>","0","observation","museum_causal","causal_sequence","5","","","","","","","","",""
"","","","","","html-keyboard-response","213","1308671","0.0-213.0","","null","<div class=""stimulus-container""><img src=""images/causal_sequence/museum_causal/museum_causal_6.png"" class=""exp-image""></div>","null","","","","","","","","","","","","",""
"","","","","","html-button-response","214","1310041","0.0-214.0","","1369","<div class=""stimulus-container""><img src=""images/causal_sequence/museum_causal/museum_causal_6.png"" class=""exp-image""><div class=""question-area""><p>Is there a person?</p></div></div>","0","observation","museum_causal","causal_sequence","6","","","","","","","","",""
"","","","","","html-keyboard-response","215","1314042","0.0-215.0","","null","<div class=""stimulus-container""><img src=""images/causal_sequence/museum_causal/museum_causal_7.png"" class=""exp-image""></div>","null","","","","","","","","","","","","",""
"","","","","","html-button-response","216","1314628","0.0-216.0","","586","<div class=""stimulus-container""><img src=""images/causal_sequence/museum_causal/museum_causal_7.png"" class=""exp-image""><div class=""question-area""><p>Is there a person?</p></div></div>","1","observation","museum_causal","causal_sequence","7","","","","","","","","",""
"","","","","","html-keyboard-response","217","1318630","0.0-217.0","","null","<div class=""stimulus-container""><img src=""images/causal_sequence/museum_causal/museum_causal_8.png"" class=""exp-image""></div>","null","","","","","","","","","","","","",""
"","","","","","html-button-response","218","1319271","0.0-218.0","","640","<div class=""stimulus-container""><img src=""images/causal_sequence/museum_causal/museum_causal_8.png"" class=""exp-image""><div class=""question-area""><p>Is there a person?</p></div></div>","0","observation","museum_causal","causal_sequence","8","","","","","","","","",""
"","","","","","html-keyboard-response","219","1323272","0.0-219.0","","null","<div class=""stimulus-container""><img src=""images/causal_sequence/museum_causal/museum_causal_9.png"" class=""exp-image""></div>","null","","","","","","","","","","","","",""
"","","","","","html-button-response","220","1324497","0.0-220.0","","1224","<div class=""stimulus-container""><img src=""images/causal_sequence/museum_causal/museum_causal_9.png"" class=""exp-image""><div class=""question-area""><p>Is there a person?</p></div></div>","1","observation","museum_causal","causal_sequence","9","","","","","","","","",""
"","","","","","html-keyboard-response","221","1328498","0.0-221.0","","null","<div class=""stimulus-container""><img src=""images/causal_sequence/museum_causal/museum_causal_ten.png"" class=""exp-image""></div>","null","","","","","","","","","","","","",""
"","","","","","html-button-response","222","1329243","0.0-222.0","","744","<div class=""stimulus-container""><img src=""images/causal_sequence/museum_causal/museum_causal_ten.png"" class=""exp-image""><div class=""question-area""><p>Is there a person?</p></div></div>","0","observation","museum_causal","causal_sequence","ten","","","","","","","","",""
"","","","","","html-keyboard-response","223","1331244","0.0-223.0","","null","<div style=""background-color: white; width: 100vw; height: 100vh;""></div>","null","","","","","","","","","","","","",""
"","","","","","html-keyboard-response","224","1335246","0.0-224.0","","null","<div class=""stimulus-container""><img src=""images/semantic_sequence/self_care_activities_semantic/self_care_activities_semantic_1.png"" class=""exp-image""></div>","null","","","","","","","","","","","","",""
"","","","","","html-button-response","225","1336190","0.0-225.0","","943","<div class=""stimulus-container""><img src=""images/semantic_sequence/self_care_activities_semantic/self_care_activities_semantic_1.png"" class=""exp-image""><div class=""question-area""><p>Is there a person?</p></div></div>","0","observation","self_care_activities_semantic","semantic_sequence","1","","","","","","","","",""
"","","","","","html-keyboard-response","226","1340193","0.0-226.0","","null","<div class=""stimulus-container""><img src=""images/semantic_sequence/self_care_activities_semantic/self_care_activities_semantic_2.png"" class=""exp-image""></div>","null","","","","","","","","","","","","",""
"","","","","","html-button-response","227","1340765","0.0-227.0","","571","<div class=""stimulus-container""><img src=""images/semantic_sequence/self_care_activities_semantic/self_care_activities_semantic_2.png"" class=""exp-image""><div class=""question-area""><p>Is there a person?</p></div></div>","0","observation","self_care_activities_semantic","semantic_sequence","2","","","","","","","","",""
"","","","","","html-keyboard-response","228","1344766","0.0-228.0","","null","<div class=""stimulus-container""><img src=""images/semantic_sequence/self_care_activities_semantic/self_care_activities_semantic_3.png"" class=""exp-image""></div>","null","","","","","","","","","","","","",""
"","","","","","html-button-response","229","1345847","0.0-229.0","","1080","<div class=""stimulus-container""><img src=""images/semantic_sequence/self_care_activities_semantic/self_care_activities_semantic_3.png"" class=""exp-image""><div class=""question-area""><p>Is there a person?</p></div></div>","0","observation","self_care_activities_semantic","semantic_sequence","3","","","","","","","","",""
"","","","","","html-keyboard-response","230","1349848","0.0-230.0","","null","<div class=""stimulus-container""><img src=""images/semantic_sequence/self_care_activities_semantic/self_care_activities_semantic_4.png"" class=""exp-image""></div>","null","","","","","","","","","","","","",""
"","","","","","html-button-response","231","1351084","0.0-231.0","","1235","<div class=""stimulus-container""><img src=""images/semantic_sequence/self_care_activities_semantic/self_care_activities_semantic_4.png"" class=""exp-image""><div class=""question-area""><p>Is there a person?</p></div></div>","0","observation","self_care_activities_semantic","semantic_sequence","4","","","","","","","","",""
"","","","","","html-keyboard-response","232","1355085","0.0-232.0","","null","<div class=""stimulus-container""><img src=""images/semantic_sequence/self_care_activities_semantic/self_care_activities_semantic_5.png"" class=""exp-image""></div>","null","","","","","","","","","","","","",""
"","","","","","html-button-response","233","1356232","0.0-233.0","","1146","<div class=""stimulus-container""><img src=""images/semantic_sequence/self_care_activities_semantic/self_care_activities_semantic_5.png"" class=""exp-image""><div class=""question-area""><p>Is there a person?</p></div></div>","0","observation","self_care_activities_semantic","semantic_sequence","5","","","","","","","","",""
"","","","","","html-keyboard-response","234","1360233","0.0-234.0","","null","<div class=""stimulus-container""><img src=""images/semantic_sequence/self_care_activities_semantic/self_care_activities_semantic_6.png"" class=""exp-image""></div>","null","","","","","","","","","","","","",""
"","","","","","html-button-response","235","1361060","0.0-235.0","","826","<div class=""stimulus-container""><img src=""images/semantic_sequence/self_care_activities_semantic/self_care_activities_semantic_6.png"" class=""exp-image""><div class=""question-area""><p>Is there a person?</p></div></div>","1","observation","self_care_activities_semantic","semantic_sequence","6","","","","","","","","",""
"","","","","","html-keyboard-response","236","1365062","0.0-236.0","","null","<div class=""stimulus-container""><img src=""images/semantic_sequence/self_care_activities_semantic/self_care_activities_semantic_7.png"" class=""exp-image""></div>","null","","","","","","","","","","","","",""
"","","","","","html-button-response","237","1366753","0.0-237.0","","1690","<div class=""stimulus-container""><img src=""images/semantic_sequence/self_care_activities_semantic/self_care_activities_semantic_7.png"" class=""exp-image""><div class=""question-area""><p>Is there a person?</p></div></div>","0","observation","self_care_activities_semantic","semantic_sequence","7","","","","","","","","",""
"","","","","","html-keyboard-response","238","1370754","0.0-238.0","","null","<div class=""stimulus-container""><img src=""images/semantic_sequence/self_care_activities_semantic/self_care_activities_semantic_8.png"" class=""exp-image""></div>","null","","","","","","","","","","","","",""
"","","","","","html-button-response","239","1372091","0.0-239.0","","1337","<div class=""stimulus-container""><img src=""images/semantic_sequence/self_care_activities_semantic/self_care_activities_semantic_8.png"" class=""exp-image""><div class=""question-area""><p>Is there a person?</p></div></div>","0","observation","self_care_activities_semantic","semantic_sequence","8","","","","","","","","",""
"","","","","","html-keyboard-response","240","1376093","0.0-240.0","","null","<div class=""stimulus-container""><img src=""images/semantic_sequence/self_care_activities_semantic/self_care_activities_semantic_9.png"" class=""exp-image""></div>","null","","","","","","","","","","","","",""
"","","","","","html-button-response","241","1376750","0.0-241.0","","658","<div class=""stimulus-container""><img src=""images/semantic_sequence/self_care_activities_semantic/self_care_activities_semantic_9.png"" class=""exp-image""><div class=""question-area""><p>Is there a person?</p></div></div>","0","observation","self_care_activities_semantic","semantic_sequence","9","","","","","","","","",""
"","","","","","html-keyboard-response","242","1380752","0.0-242.0","","null","<div class=""stimulus-container""><img src=""images/semantic_sequence/self_care_activities_semantic/self_care_activities_semantic_ten.png"" class=""exp-image""></div>","null","","","","","","","","","","","","",""
"","","","","","html-button-response","243","1381311","0.0-243.0","","558","<div class=""stimulus-container""><img src=""images/semantic_sequence/self_care_activities_semantic/self_care_activities_semantic_ten.png"" class=""exp-image""><div class=""question-area""><p>Is there a person?</p></div></div>","0","observation","self_care_activities_semantic","semantic_sequence","ten","","","","","","","","",""
"","","","","","html-keyboard-response","244","1383312","0.0-244.0","","null","<div style=""background-color: white; width: 100vw; height: 100vh;""></div>","null","","","","","","","","","","","","",""
"","","","","","html-keyboard-response","245","1387314","0.0-245.0","","null","<div class=""stimulus-container""><img src=""images/causal_sequence/dog_causal/dog_causal_1.png"" class=""exp-image""></div>","null","","","","","","","","","","","","",""
"","","","","","html-button-response","246","1389382","0.0-246.0","","2067","<div class=""stimulus-container""><img src=""images/causal_sequence/dog_causal/dog_causal_1.png"" class=""exp-image""><div class=""question-area""><p>Is there a person?</p></div></div>","0","observation","dog_causal","causal_sequence","1","","","","","","","","",""
"","","","","","html-keyboard-response","247","1393383","0.0-247.0","","null","<div class=""stimulus-container""><img src=""images/causal_sequence/dog_causal/dog_causal_2.png"" class=""exp-image""></div>","null","","","","","","","","","","","","",""
"","","","","","html-button-response","248","1394897","0.0-248.0","","1513","<div class=""stimulus-container""><img src=""images/causal_sequence/dog_causal/dog_causal_2.png"" class=""exp-image""><div class=""question-area""><p>Is there a person?</p></div></div>","0","observation","dog_causal","causal_sequence","2","","","","","","","","",""
"","","","","","html-keyboard-response","249","1398898","0.0-249.0","","null","<div class=""stimulus-container""><img src=""images/causal_sequence/dog_causal/dog_causal_3.png"" class=""exp-image""></div>","null","","","","","","","","","","","","",""
"","","","","","html-button-response","250","1400502","0.0-250.0","","1603","<div class=""stimulus-container""><img src=""images/causal_sequence/dog_causal/dog_causal_3.png"" class=""exp-image""><div class=""question-area""><p>Is there a person?</p></div></div>","0","observation","dog_causal","causal_sequence","3","","","","","","","","",""
"","","","","","html-keyboard-response","251","1404506","0.0-251.0","","null","<div class=""stimulus-container""><img src=""images/causal_sequence/dog_causal/dog_causal_4.png"" class=""exp-image""></div>","null","","","","","","","","","","","","",""
"","","","","","html-button-response","252","1414765","0.0-252.0","","10257","<div class=""stimulus-container""><img src=""images/causal_sequence/dog_causal/dog_causal_4.png"" class=""exp-image""><div class=""question-area""><p>Is there a person?</p></div></div>","0","observation","dog_causal","causal_sequence","4","","","","","","","","",""
"","","","","","html-keyboard-response","253","1418769","0.0-253.0","","null","<div class=""stimulus-container""><img src=""images/causal_sequence/dog_causal/dog_causal_5.png"" class=""exp-image""></div>","null","","","","","","","","","","","","",""
"","","","","","html-button-response","254","1419396","0.0-254.0","","626","<div class=""stimulus-container""><img src=""images/causal_sequence/dog_causal/dog_causal_5.png"" class=""exp-image""><div class=""question-area""><p>Is there a person?</p></div></div>","0","observation","dog_causal","causal_sequence","5","","","","","","","","",""
"","","","","","html-keyboard-response","255","1423396","0.0-255.0","","null","<div class=""stimulus-container""><img src=""images/causal_sequence/dog_causal/dog_causal_6.png"" class=""exp-image""></div>","null","","","","","","","","","","","","",""
"","","","","","html-button-response","256","1424524","0.0-256.0","","1127","<div class=""stimulus-container""><img src=""images/causal_sequence/dog_causal/dog_causal_6.png"" class=""exp-image""><div class=""question-area""><p>Is there a person?</p></div></div>","0","observation","dog_causal","causal_sequence","6","","","","","","","","",""
"","","","","","html-keyboard-response","257","1428525","0.0-257.0","","null","<div class=""stimulus-container""><img src=""images/causal_sequence/dog_causal/dog_causal_7.png"" class=""exp-image""></div>","null","","","","","","","","","","","","",""
"","","","","","html-button-response","258","1432372","0.0-258.0","","3847","<div class=""stimulus-container""><img src=""images/causal_sequence/dog_causal/dog_causal_7.png"" class=""exp-image""><div class=""question-area""><p>Is there a person?</p></div></div>","0","observation","dog_causal","causal_sequence","7","","","","","","","","",""
"","","","","","html-keyboard-response","259","1436372","0.0-259.0","","null","<div class=""stimulus-container""><img src=""images/causal_sequence/dog_causal/dog_causal_8.png"" class=""exp-image""></div>","null","","","","","","","","","","","","",""
"","","","","","html-button-response","260","1437870","0.0-260.0","","1497","<div class=""stimulus-container""><img src=""images/causal_sequence/dog_causal/dog_causal_8.png"" class=""exp-image""><div class=""question-area""><p>Is there a person?</p></div></div>","0","observation","dog_causal","causal_sequence","8","","","","","","","","",""
"","","","","","html-keyboard-response","261","1441871","0.0-261.0","","null","<div class=""stimulus-container""><img src=""images/causal_sequence/dog_causal/dog_causal_9.png"" class=""exp-image""></div>","null","","","","","","","","","","","","",""
"","","","","","html-button-response","262","1650757","0.0-262.0","","208888","<div class=""stimulus-container""><img src=""images/causal_sequence/dog_causal/dog_causal_9.png"" class=""exp-image""><div class=""question-area""><p>Is there a person?</p></div></div>","0","observation","dog_causal","causal_sequence","9","","","","","","","","",""
"","","","","","html-keyboard-response","263","1654759","0.0-263.0","","null","<div class=""stimulus-container""><img src=""images/causal_sequence/dog_causal/dog_causal_ten.png"" class=""exp-image""></div>","null","","","","","","","","","","","","",""
"","","","","","html-button-response","264","1655836","0.0-264.0","","1076","<div class=""stimulus-container""><img src=""images/causal_sequence/dog_causal/dog_causal_ten.png"" class=""exp-image""><div class=""question-area""><p>Is there a person?</p></div></div>","0","observation","dog_causal","causal_sequence","ten","","","","","","","","",""
"","","","","","instructions","265","1673684","0.0-265.0","[{""page_index"":0,""viewing_time"":17848}]","17848","","","","","","","","","","","","","","",""
"","","","","","html-button-response","266","1679366","0.0-266.0","","5681","<div class=""stimulus-container""><img src=""images/semantic_sequence/maintaining_a_car_semantic/maintaining_a_car_semantic_6.png"" class=""exp-image""><div style=""height:100px;""></div></div>","0","","","","","","","","","","","","",""
"","","","","","html-keyboard-response","267","1683367","0.0-267.0","","null","
                <div class=""stimulus-container"" style=""display:flex; align-items:center; justify-content:center; gap:40px;"">
                    <img src=""images/semantic_sequence/maintaining_a_car_semantic/maintaining_a_car_semantic_6.png"" class=""exp-image"">
                    <div style=""text-align:center;"">
                        <img src=""images/gray.png"" style=""width:150px; border:5px solid grey; border-radius:15px;"">
                        <p style=""color:grey; font-weight:bold; font-size:28px;"">NEUTRAL</p>
                    </div>
                </div>","null","value_learning","maintaining_a_car_semantic","","","neutral","6","","","","","","",""
"","","","","","html-button-response","268","1687566","0.0-268.0","","4195","<div class=""stimulus-container""><img src=""images/semantic_sequence/kitchen_operations_semantic/kitchen_operations_semantic_4.png"" class=""exp-image""><div style=""height:100px;""></div></div>","0","","","","","","","","","","","","",""
"","","","","","html-keyboard-response","269","1691569","0.0-269.0","","null","
                <div class=""stimulus-container"" style=""display:flex; align-items:center; justify-content:center; gap:40px;"">
                    <img src=""images/semantic_sequence/kitchen_operations_semantic/kitchen_operations_semantic_4.png"" class=""exp-image"">
                    <div style=""text-align:center;"">
                        <img src=""images/dollar.png"" style=""width:150px; border:5px solid green; border-radius:15px;"">
                        <p style=""color:green; font-weight:bold; font-size:28px;"">WORTH MONEY</p>
                    </div>
                </div>","null","value_learning","kitchen_operations_semantic","","","valuable","4","","","","","","",""
"","","","","","html-button-response","270","1752314","0.0-270.0","","60744","<div class=""stimulus-container""><img src=""images/causal_sequence/saving_a_cat_causal/saving_a_cat_causal_4.png"" class=""exp-image""><div style=""height:100px;""></div></div>","0","","","","","","","","","","","","",""
"","","","","","html-keyboard-response","271","1756315","0.0-271.0","","null","
                <div class=""stimulus-container"" style=""display:flex; align-items:center; justify-content:center; gap:40px;"">
                    <img src=""images/causal_sequence/saving_a_cat_causal/saving_a_cat_causal_4.png"" class=""exp-image"">
                    <div style=""text-align:center;"">
                        <img src=""images/gray.png"" style=""width:150px; border:5px solid grey; border-radius:15px;"">
                        <p style=""color:grey; font-weight:bold; font-size:28px;"">NEUTRAL</p>
                    </div>
                </div>","null","value_learning","saving_a_cat_causal","","","neutral","4","","","","","","",""
"","","","","","html-button-response","272","1757475","0.0-272.0","","1160","<div class=""stimulus-container""><img src=""images/semantic_sequence/housework_semantic/housework_semantic_5.png"" class=""exp-image""><div style=""height:100px;""></div></div>","0","","","","","","","","","","","","",""
"","","","","","html-keyboard-response","273","1761482","0.0-273.0","","null","
                <div class=""stimulus-container"" style=""display:flex; align-items:center; justify-content:center; gap:40px;"">
                    <img src=""images/semantic_sequence/housework_semantic/housework_semantic_5.png"" class=""exp-image"">
                    <div style=""text-align:center;"">
                        <img src=""images/dollar.png"" style=""width:150px; border:5px solid green; border-radius:15px;"">
                        <p style=""color:green; font-weight:bold; font-size:28px;"">WORTH MONEY</p>
                    </div>
                </div>","null","value_learning","housework_semantic","","","valuable","5","","","","","","",""
"","","","","","html-button-response","274","1762462","0.0-274.0","","980","<div class=""stimulus-container""><img src=""images/causal_sequence/museum_causal/museum_causal_7.png"" class=""exp-image""><div style=""height:100px;""></div></div>","0","","","","","","","","","","","","",""
"","","","","","html-keyboard-response","275","1766464","0.0-275.0","","null","
                <div class=""stimulus-container"" style=""display:flex; align-items:center; justify-content:center; gap:40px;"">
                    <img src=""images/causal_sequence/museum_causal/museum_causal_7.png"" class=""exp-image"">
                    <div style=""text-align:center;"">
                        <img src=""images/dollar.png"" style=""width:150px; border:5px solid green; border-radius:15px;"">
                        <p style=""color:green; font-weight:bold; font-size:28px;"">WORTH MONEY</p>
                    </div>
                </div>","null","value_learning","museum_causal","","","valuable","7","","","","","","",""
"","","","","","html-button-response","276","1767327","0.0-276.0","","863","<div class=""stimulus-container""><img src=""images/causal_sequence/the_performance_causal/the_performance_causal_7.png"" class=""exp-image""><div style=""height:100px;""></div></div>","0","","","","","","","","","","","","",""
"","","","","","html-keyboard-response","277","1771329","0.0-277.0","","null","
                <div class=""stimulus-container"" style=""display:flex; align-items:center; justify-content:center; gap:40px;"">
                    <img src=""images/causal_sequence/the_performance_causal/the_performance_causal_7.png"" class=""exp-image"">
                    <div style=""text-align:center;"">
                        <img src=""images/gray.png"" style=""width:150px; border:5px solid grey; border-radius:15px;"">
                        <p style=""color:grey; font-weight:bold; font-size:28px;"">NEUTRAL</p>
                    </div>
                </div>","null","value_learning","the_performance_causal","","","neutral","7","","","","","","",""
"","","","","","html-button-response","278","1772592","0.0-278.0","","1262","<div class=""stimulus-container""><img src=""images/semantic_sequence/physical_activity_semantic/physical_activity_semantic_6.png"" class=""exp-image""><div style=""height:100px;""></div></div>","0","","","","","","","","","","","","",""
"","","","","","html-keyboard-response","279","1776594","0.0-279.0","","null","
                <div class=""stimulus-container"" style=""display:flex; align-items:center; justify-content:center; gap:40px;"">
                    <img src=""images/semantic_sequence/physical_activity_semantic/physical_activity_semantic_6.png"" class=""exp-image"">
                    <div style=""text-align:center;"">
                        <img src=""images/gray.png"" style=""width:150px; border:5px solid grey; border-radius:15px;"">
                        <p style=""color:grey; font-weight:bold; font-size:28px;"">NEUTRAL</p>
                    </div>
                </div>","null","value_learning","physical_activity_semantic","","","neutral","6","","","","","","",""
"","","","","","html-button-response","280","1777656","0.0-280.0","","1060","<div class=""stimulus-container""><img src=""images/causal_sequence/coin_causal/coin_causal_5.png"" class=""exp-image""><div style=""height:100px;""></div></div>","0","","","","","","","","","","","","",""
"","","","","","html-keyboard-response","281","1781658","0.0-281.0","","null","
                <div class=""stimulus-container"" style=""display:flex; align-items:center; justify-content:center; gap:40px;"">
                    <img src=""images/causal_sequence/coin_causal/coin_causal_5.png"" class=""exp-image"">
                    <div style=""text-align:center;"">
                        <img src=""images/gray.png"" style=""width:150px; border:5px solid grey; border-radius:15px;"">
                        <p style=""color:grey; font-weight:bold; font-size:28px;"">NEUTRAL</p>
                    </div>
                </div>","null","value_learning","coin_causal","","","neutral","5","","","","","","",""
"","","","","","html-button-response","282","1783026","0.0-282.0","","1367","<div class=""stimulus-container""><img src=""images/causal_sequence/package_causal/package_causal_5.png"" class=""exp-image""><div style=""height:100px;""></div></div>","0","","","","","","","","","","","","",""
"","","","","","html-keyboard-response","283","1787027","0.0-283.0","","null","
                <div class=""stimulus-container"" style=""display:flex; align-items:center; justify-content:center; gap:40px;"">
                    <img src=""images/causal_sequence/package_causal/package_causal_5.png"" class=""exp-image"">
                    <div style=""text-align:center;"">
                        <img src=""images/dollar.png"" style=""width:150px; border:5px solid green; border-radius:15px;"">
                        <p style=""color:green; font-weight:bold; font-size:28px;"">WORTH MONEY</p>
                    </div>
                </div>","null","value_learning","package_causal","","","valuable","5","","","","","","",""
"","","","","","html-button-response","284","1789128","0.0-284.0","","2099","<div class=""stimulus-container""><img src=""images/causal_sequence/dog_causal/dog_causal_7.png"" class=""exp-image""><div style=""height:100px;""></div></div>","0","","","","","","","","","","","","",""
"","","","","","html-keyboard-response","285","1793130","0.0-285.0","","null","
                <div class=""stimulus-container"" style=""display:flex; align-items:center; justify-content:center; gap:40px;"">
                    <img src=""images/causal_sequence/dog_causal/dog_causal_7.png"" class=""exp-image"">
                    <div style=""text-align:center;"">
                        <img src=""images/dollar.png"" style=""width:150px; border:5px solid green; border-radius:15px;"">
                        <p style=""color:green; font-weight:bold; font-size:28px;"">WORTH MONEY</p>
                    </div>
                </div>","null","value_learning","dog_causal","","","valuable","7","","","","","","",""
"","","","","","html-button-response","286","1794392","0.0-286.0","","1259","<div class=""stimulus-container""><img src=""images/semantic_sequence/visiting_cities_semantic/visiting_cities_semantic_5.png"" class=""exp-image""><div style=""height:100px;""></div></div>","0","","","","","","","","","","","","",""
"","","","","","html-keyboard-response","287","1798394","0.0-287.0","","null","
                <div class=""stimulus-container"" style=""display:flex; align-items:center; justify-content:center; gap:40px;"">
                    <img src=""images/semantic_sequence/visiting_cities_semantic/visiting_cities_semantic_5.png"" class=""exp-image"">
                    <div style=""text-align:center;"">
                        <img src=""images/dollar.png"" style=""width:150px; border:5px solid green; border-radius:15px;"">
                        <p style=""color:green; font-weight:bold; font-size:28px;"">WORTH MONEY</p>
                    </div>
                </div>","null","value_learning","visiting_cities_semantic","","","valuable","5","","","","","","",""
"","","","","","html-button-response","288","1799311","0.0-288.0","","914","<div class=""stimulus-container""><img src=""images/semantic_sequence/self_care_activities_semantic/self_care_activities_semantic_6.png"" class=""exp-image""><div style=""height:100px;""></div></div>","0","","","","","","","","","","","","",""
"","","","","","html-keyboard-response","289","1803312","0.0-289.0","","null","
                <div class=""stimulus-container"" style=""display:flex; align-items:center; justify-content:center; gap:40px;"">
                    <img src=""images/semantic_sequence/self_care_activities_semantic/self_care_activities_semantic_6.png"" class=""exp-image"">
                    <div style=""text-align:center;"">
                        <img src=""images/gray.png"" style=""width:150px; border:5px solid grey; border-radius:15px;"">
                        <p style=""color:grey; font-weight:bold; font-size:28px;"">NEUTRAL</p>
                    </div>
                </div>","null","value_learning","self_care_activities_semantic","","","neutral","6","","","","","","",""
"","","","","","instructions","290","2025027","0.0-290.0","[{""page_index"":0,""viewing_time"":221714}]","221714","","","","","","","","","","","","","","",""
"","","","","","html-keyboard-response","291","2028029","0.0-291.0-0.0","","null","<div style=""font-family: Arial; margin-bottom: 20px;""><h3>Which image is worth <b>more money</b>?</h3></div>
                                    <div class=""stimulus-container"" style=""display: flex; width: 800px; justify-content: center; gap: 30px;"">
                                        <img src=""images/semantic_sequence/self_care_activities_semantic/self_care_activities_semantic_7.png"" class=""small-image"">
                                        <img src=""images/semantic_sequence/self_care_activities_semantic/self_care_activities_semantic_3.png"" class=""small-image"">
                                    </div>","null","","","","","","","","","","","","",""
"","","","","","html-button-response","292","2030621","0.0-291.0-1.0","","2592","<h3>Which image is worth <b>more money</b>?</h3>","1","choice_test","self_care_activities_semantic","","","","","6","1","-3","3","-3","0",""
"","","","","","html-keyboard-response","293","2033624","0.0-292.0-0.0","","null","<div style=""font-family: Arial; margin-bottom: 20px;""><h3>Which image is worth <b>more money</b>?</h3></div>
                                    <div class=""stimulus-container"" style=""display: flex; width: 800px; justify-content: center; gap: 30px;"">
                                        <img src=""images/semantic_sequence/kitchen_operations_semantic/kitchen_operations_semantic_1.png"" class=""small-image"">
                                        <img src=""images/semantic_sequence/kitchen_operations_semantic/kitchen_operations_semantic_5.png"" class=""small-image"">
                                    </div>","null","","","","","","","","","","","","",""
"","","","","","html-button-response","294","2034430","0.0-292.0-1.0","","806","<h3>Which image is worth <b>more money</b>?</h3>","0","choice_test","kitchen_operations_semantic","","","","","4","-3","1","1","-3","0",""
"","","","","","html-keyboard-response","295","2037433","0.0-293.0-0.0","","null","<div class=""stimulus-container"" style=""display:flex; gap:30px; justify-content:center;"">
                                    <img src=""images/semantic_sequence/housework_semantic/housework_semantic_5.png"" class=""small-image"">
                                    <img src=""images/causal_sequence/the_performance_causal/the_performance_causal_5.png"" class=""small-image"">
                                </div>","null","","","","","","","","","","","","",""
"","","","","","html-button-response","296","2038664","0.0-293.0-1.0","","1231","<h3>Which is worth more money?</h3>","0","cross_block_test","","","","","","","","","","","","true"
"","","","","","html-keyboard-response","297","2041666","0.0-294.0-0.0","","null","<div class=""stimulus-container"" style=""display:flex; gap:30px; justify-content:center;"">
                                    <img src=""images/causal_sequence/museum_causal/museum_causal_5.png"" class=""small-image"">
                                    <img src=""images/semantic_sequence/physical_activity_semantic/physical_activity_semantic_5.png"" class=""small-image"">
                                </div>","null","","","","","","","","","","","","",""
"","","","","","html-button-response","298","2042530","0.0-294.0-1.0","","862","<h3>Which is worth more money?</h3>","0","cross_block_test","","","","","","","","","","","","true"
"","","","","","html-keyboard-response","299","2045531","0.0-295.0-0.0","","null","<div style=""font-family: Arial; margin-bottom: 20px;""><h3>Which image is worth <b>more money</b>?</h3></div>
                                    <div class=""stimulus-container"" style=""display: flex; width: 800px; justify-content: center; gap: 30px;"">
                                        <img src=""images/causal_sequence/package_causal/package_causal_3.png"" class=""small-image"">
