"success","timeout","failed_images","failed_audio","failed_video","trial_type","trial_index","time_elapsed","internal_node_id","subject_id","study_id","session_id","view_history","rt","stimulus","response","task","folder","sequence_type","valuable_image_index","reward_type","distance_from_x","target_X","chosen_image_index","is_x_plus_dist","correct_choice"
"true","false","[]","[]","[]","preload","0","7522","0.0-0.0","74D5EA9BEE624FD0A1A35C21B5D11E12","019db60b-5484-7616-8749-6cbcf476fc0f","019db609-2a35-76b9-807a-e0c4c153f4bb","","","","","","","","","","","","","",""
"","","","","","instructions","1","10352","0.0-1.0","74D5EA9BEE624FD0A1A35C21B5D11E12","019db60b-5484-7616-8749-6cbcf476fc0f","019db609-2a35-76b9-807a-e0c4c153f4bb","[{""page_index"":0,""viewing_time"":2830}]","2830","","","","","","","","","","","",""
"","","","","","instructions","2","13986","0.0-2.0","74D5EA9BEE624FD0A1A35C21B5D11E12","019db60b-5484-7616-8749-6cbcf476fc0f","019db609-2a35-76b9-807a-e0c4c153f4bb","[{""page_index"":0,""viewing_time"":3633}]","3633","","","","","","","","","","","",""
"true","","","","","fullscreen","3","17235","0.0-3.0","74D5EA9BEE624FD0A1A35C21B5D11E12","019db60b-5484-7616-8749-6cbcf476fc0f","019db609-2a35-76b9-807a-e0c4c153f4bb","","2236","","","","","","","","","","","",""
"","","","","","instructions","4","20281","0.0-4.0","74D5EA9BEE624FD0A1A35C21B5D11E12","019db60b-5484-7616-8749-6cbcf476fc0f","019db609-2a35-76b9-807a-e0c4c153f4bb","[{""page_index"":0,""viewing_time"":3046}]","3046","","","","","","","","","","","",""
"","","","","","instructions","5","38176","0.0-5.0","74D5EA9BEE624FD0A1A35C21B5D11E12","019db60b-5484-7616-8749-6cbcf476fc0f","019db609-2a35-76b9-807a-e0c4c153f4bb","[{""page_index"":0,""viewing_time"":17894}]","17894","","","","","","","","","","","",""
"","","","","","html-button-response","6","41433","0.0-6.0","74D5EA9BEE624FD0A1A35C21B5D11E12","019db60b-5484-7616-8749-6cbcf476fc0f","019db609-2a35-76b9-807a-e0c4c153f4bb","","3256","
            <div class=""stimulus-container"">
                <img src=""images/semantic_sequence/kitchen_operations_semantic/kitchen_operations_semantic_6.png"" class=""exp-image"">
                <div class=""question-area"">
                    <p style=""font-size: 20px; font-weight: bold;"">Click the button to reveal the image value</p>
                </div>
            </div>","0","part2_active_reveal_click","kitchen_operations_semantic","","","","","","","",""
"","","","","","html-keyboard-response","7","49439","0.0-7.0","74D5EA9BEE624FD0A1A35C21B5D11E12","019db60b-5484-7616-8749-6cbcf476fc0f","019db609-2a35-76b9-807a-e0c4c153f4bb","","null","
            <div class=""stimulus-container"" style=""display: flex; align-items: center; justify-content: center; gap: 40px;"">
                <img src=""images/semantic_sequence/kitchen_operations_semantic/kitchen_operations_semantic_6.png"" class=""exp-image"">
                <div style=""text-align: center;"">
                    <img src=""images/dollar.png"" style=""width: 150px; height: 150px; border: 5px solid green; border-radius: 15px;"">
                    <p style=""color: green; font-weight: bold; font-size: 28px; margin-top: 15px;"">WORTH MONEY</p>
                </div>
            </div>","null","part2_value_learning","kitchen_operations_semantic","semantic_sequence","6","valuable","","","","",""
"","","","","","html-keyboard-response","8","54446","0.0-8.0","74D5EA9BEE624FD0A1A35C21B5D11E12","019db60b-5484-7616-8749-6cbcf476fc0f","019db609-2a35-76b9-807a-e0c4c153f4bb","","null","<div style=""background-color: white; width: 100vw; height: 100vh;""></div>","null","","","","","","","","","",""
"","","","","","html-button-response","9","56784","0.0-9.0","74D5EA9BEE624FD0A1A35C21B5D11E12","019db60b-5484-7616-8749-6cbcf476fc0f","019db609-2a35-76b9-807a-e0c4c153f4bb","","2337","
            <div class=""stimulus-container"">
                <img src=""images/semantic_sequence/physical_activity_semantic/physical_activity_semantic_4.png"" class=""exp-image"">
                <div class=""question-area"">
                    <p style=""font-size: 20px; font-weight: bold;"">Click the button to reveal the image value</p>
                </div>
            </div>","0","part2_active_reveal_click","physical_activity_semantic","","","","","","","",""
"","","","","","html-keyboard-response","10","64791","0.0-10.0","74D5EA9BEE624FD0A1A35C21B5D11E12","019db60b-5484-7616-8749-6cbcf476fc0f","019db609-2a35-76b9-807a-e0c4c153f4bb","","null","
            <div class=""stimulus-container"" style=""display: flex; align-items: center; justify-content: center; gap: 40px;"">
                <img src=""images/semantic_sequence/physical_activity_semantic/physical_activity_semantic_4.png"" class=""exp-image"">
                <div style=""text-align: center;"">
                    <img src=""images/gray.png"" style=""width: 150px; height: 150px; border: 5px solid grey; border-radius: 15px;"">
                    <p style=""color: grey; font-weight: bold; font-size: 28px; margin-top: 15px;"">NEUTRAL VALUE</p>
                </div>
            </div>","null","part2_value_learning","physical_activity_semantic","semantic_sequence","4","neutral","","","","",""
"","","","","","html-keyboard-response","11","69806","0.0-11.0","74D5EA9BEE624FD0A1A35C21B5D11E12","019db60b-5484-7616-8749-6cbcf476fc0f","019db609-2a35-76b9-807a-e0c4c153f4bb","","null","<div style=""background-color: white; width: 100vw; height: 100vh;""></div>","null","","","","","","","","","",""
"","","","","","html-button-response","12","71838","0.0-12.0","74D5EA9BEE624FD0A1A35C21B5D11E12","019db60b-5484-7616-8749-6cbcf476fc0f","019db609-2a35-76b9-807a-e0c4c153f4bb","","2032","
            <div class=""stimulus-container"">
                <img src=""images/schematic_sequence/hotel_scheme/hotel_scheme_4.png"" class=""exp-image"">
                <div class=""question-area"">
                    <p style=""font-size: 20px; font-weight: bold;"">Click the button to reveal the image value</p>
                </div>
            </div>","0","part2_active_reveal_click","hotel_scheme","","","","","","","",""
"","","","","","html-keyboard-response","13","79847","0.0-13.0","74D5EA9BEE624FD0A1A35C21B5D11E12","019db60b-5484-7616-8749-6cbcf476fc0f","019db609-2a35-76b9-807a-e0c4c153f4bb","","null","
            <div class=""stimulus-container"" style=""display: flex; align-items: center; justify-content: center; gap: 40px;"">
                <img src=""images/schematic_sequence/hotel_scheme/hotel_scheme_4.png"" class=""exp-image"">
                <div style=""text-align: center;"">
                    <img src=""images/gray.png"" style=""width: 150px; height: 150px; border: 5px solid grey; border-radius: 15px;"">
                    <p style=""color: grey; font-weight: bold; font-size: 28px; margin-top: 15px;"">NEUTRAL VALUE</p>
                </div>
            </div>","null","part2_value_learning","hotel_scheme","schematic_sequence","4","neutral","","","","",""
"","","","","","html-keyboard-response","14","84860","0.0-14.0","74D5EA9BEE624FD0A1A35C21B5D11E12","019db60b-5484-7616-8749-6cbcf476fc0f","019db609-2a35-76b9-807a-e0c4c153f4bb","","null","<div style=""background-color: white; width: 100vw; height: 100vh;""></div>","null","","","","","","","","","",""
"","","","","","html-button-response","15","87060","0.0-15.0","74D5EA9BEE624FD0A1A35C21B5D11E12","019db60b-5484-7616-8749-6cbcf476fc0f","019db609-2a35-76b9-807a-e0c4c153f4bb","","2199","
            <div class=""stimulus-container"">
                <img src=""images/semantic_sequence/visiting_cities_semantic/visiting_cities_semantic_4.png"" class=""exp-image"">
                <div class=""question-area"">
                    <p style=""font-size: 20px; font-weight: bold;"">Click the button to reveal the image value</p>
                </div>
            </div>","0","part2_active_reveal_click","visiting_cities_semantic","","","","","","","",""
"","","","","","html-keyboard-response","16","95069","0.0-16.0","74D5EA9BEE624FD0A1A35C21B5D11E12","019db60b-5484-7616-8749-6cbcf476fc0f","019db609-2a35-76b9-807a-e0c4c153f4bb","","null","
            <div class=""stimulus-container"" style=""display: flex; align-items: center; justify-content: center; gap: 40px;"">
                <img src=""images/semantic_sequence/visiting_cities_semantic/visiting_cities_semantic_4.png"" class=""exp-image"">
                <div style=""text-align: center;"">
                    <img src=""images/gray.png"" style=""width: 150px; height: 150px; border: 5px solid grey; border-radius: 15px;"">
                    <p style=""color: grey; font-weight: bold; font-size: 28px; margin-top: 15px;"">NEUTRAL VALUE</p>
                </div>
            </div>","null","part2_value_learning","visiting_cities_semantic","semantic_sequence","4","neutral","","","","",""
"","","","","","html-keyboard-response","17","100084","0.0-17.0","74D5EA9BEE624FD0A1A35C21B5D11E12","019db60b-5484-7616-8749-6cbcf476fc0f","019db609-2a35-76b9-807a-e0c4c153f4bb","","null","<div style=""background-color: white; width: 100vw; height: 100vh;""></div>","null","","","","","","","","","",""
"","","","","","html-button-response","18","102173","0.0-18.0","74D5EA9BEE624FD0A1A35C21B5D11E12","019db60b-5484-7616-8749-6cbcf476fc0f","019db609-2a35-76b9-807a-e0c4c153f4bb","","2088","
            <div class=""stimulus-container"">
                <img src=""images/schematic_sequence/dinner_party_scheme/dinner_party_scheme_7.png"" class=""exp-image"">
                <div class=""question-area"">
                    <p style=""font-size: 20px; font-weight: bold;"">Click the button to reveal the image value</p>
                </div>
            </div>","0","part2_active_reveal_click","dinner_party_scheme","","","","","","","",""
"","","","","","html-keyboard-response","19","110187","0.0-19.0","74D5EA9BEE624FD0A1A35C21B5D11E12","019db60b-5484-7616-8749-6cbcf476fc0f","019db609-2a35-76b9-807a-e0c4c153f4bb","","null","
            <div class=""stimulus-container"" style=""display: flex; align-items: center; justify-content: center; gap: 40px;"">
                <img src=""images/schematic_sequence/dinner_party_scheme/dinner_party_scheme_7.png"" class=""exp-image"">
                <div style=""text-align: center;"">
                    <img src=""images/gray.png"" style=""width: 150px; height: 150px; border: 5px solid grey; border-radius: 15px;"">
                    <p style=""color: grey; font-weight: bold; font-size: 28px; margin-top: 15px;"">NEUTRAL VALUE</p>
                </div>
            </div>","null","part2_value_learning","dinner_party_scheme","schematic_sequence","7","neutral","","","","",""
"","","","","","html-keyboard-response","20","115200","0.0-20.0","74D5EA9BEE624FD0A1A35C21B5D11E12","019db60b-5484-7616-8749-6cbcf476fc0f","019db609-2a35-76b9-807a-e0c4c153f4bb","","null","<div style=""background-color: white; width: 100vw; height: 100vh;""></div>","null","","","","","","","","","",""
"","","","","","html-button-response","21","117285","0.0-21.0","74D5EA9BEE624FD0A1A35C21B5D11E12","019db60b-5484-7616-8749-6cbcf476fc0f","019db609-2a35-76b9-807a-e0c4c153f4bb","","2085","
            <div class=""stimulus-container"">
                <img src=""images/schematic_sequence/interview_scheme/interview_scheme_5.png"" class=""exp-image"">
                <div class=""question-area"">
                    <p style=""font-size: 20px; font-weight: bold;"">Click the button to reveal the image value</p>
                </div>
            </div>","0","part2_active_reveal_click","interview_scheme","","","","","","","",""
"","","","","","html-keyboard-response","22","125301","0.0-22.0","74D5EA9BEE624FD0A1A35C21B5D11E12","019db60b-5484-7616-8749-6cbcf476fc0f","019db609-2a35-76b9-807a-e0c4c153f4bb","","null","
            <div class=""stimulus-container"" style=""display: flex; align-items: center; justify-content: center; gap: 40px;"">
                <img src=""images/schematic_sequence/interview_scheme/interview_scheme_5.png"" class=""exp-image"">
                <div style=""text-align: center;"">
                    <img src=""images/dollar.png"" style=""width: 150px; height: 150px; border: 5px solid green; border-radius: 15px;"">
                    <p style=""color: green; font-weight: bold; font-size: 28px; margin-top: 15px;"">WORTH MONEY</p>
                </div>
            </div>","null","part2_value_learning","interview_scheme","schematic_sequence","5","valuable","","","","",""
"","","","","","html-keyboard-response","23","130316","0.0-23.0","74D5EA9BEE624FD0A1A35C21B5D11E12","019db60b-5484-7616-8749-6cbcf476fc0f","019db609-2a35-76b9-807a-e0c4c153f4bb","","null","<div style=""background-color: white; width: 100vw; height: 100vh;""></div>","null","","","","","","","","","",""
"","","","","","html-button-response","24","132705","0.0-24.0","74D5EA9BEE624FD0A1A35C21B5D11E12","019db60b-5484-7616-8749-6cbcf476fc0f","019db609-2a35-76b9-807a-e0c4c153f4bb","","2388","
            <div class=""stimulus-container"">
                <img src=""images/schematic_sequence/supermarket_scheme/supermarket_scheme_4.png"" class=""exp-image"">
                <div class=""question-area"">
                    <p style=""font-size: 20px; font-weight: bold;"">Click the button to reveal the image value</p>
                </div>
            </div>","0","part2_active_reveal_click","supermarket_scheme","","","","","","","",""
"","","","","","html-keyboard-response","25","140708","0.0-25.0","74D5EA9BEE624FD0A1A35C21B5D11E12","019db60b-5484-7616-8749-6cbcf476fc0f","019db609-2a35-76b9-807a-e0c4c153f4bb","","null","
            <div class=""stimulus-container"" style=""display: flex; align-items: center; justify-content: center; gap: 40px;"">
                <img src=""images/schematic_sequence/supermarket_scheme/supermarket_scheme_4.png"" class=""exp-image"">
                <div style=""text-align: center;"">
                    <img src=""images/gray.png"" style=""width: 150px; height: 150px; border: 5px solid grey; border-radius: 15px;"">
                    <p style=""color: grey; font-weight: bold; font-size: 28px; margin-top: 15px;"">NEUTRAL VALUE</p>
                </div>
            </div>","null","part2_value_learning","supermarket_scheme","schematic_sequence","4","neutral","","","","",""
"","","","","","html-keyboard-response","26","145721","0.0-26.0","74D5EA9BEE624FD0A1A35C21B5D11E12","019db60b-5484-7616-8749-6cbcf476fc0f","019db609-2a35-76b9-807a-e0c4c153f4bb","","null","<div style=""background-color: white; width: 100vw; height: 100vh;""></div>","null","","","","","","","","","",""
"","","","","","html-button-response","27","147919","0.0-27.0","74D5EA9BEE624FD0A1A35C21B5D11E12","019db60b-5484-7616-8749-6cbcf476fc0f","019db609-2a35-76b9-807a-e0c4c153f4bb","","2196","
            <div class=""stimulus-container"">
                <img src=""images/semantic_sequence/housework_semantic/housework_semantic_5.png"" class=""exp-image"">
                <div class=""question-area"">
                    <p style=""font-size: 20px; font-weight: bold;"">Click the button to reveal the image value</p>
                </div>
            </div>","0","part2_active_reveal_click","housework_semantic","","","","","","","",""
"","","","","","html-keyboard-response","28","155920","0.0-28.0","74D5EA9BEE624FD0A1A35C21B5D11E12","019db60b-5484-7616-8749-6cbcf476fc0f","019db609-2a35-76b9-807a-e0c4c153f4bb","","null","
            <div class=""stimulus-container"" style=""display: flex; align-items: center; justify-content: center; gap: 40px;"">
                <img src=""images/semantic_sequence/housework_semantic/housework_semantic_5.png"" class=""exp-image"">
                <div style=""text-align: center;"">
                    <img src=""images/gray.png"" style=""width: 150px; height: 150px; border: 5px solid grey; border-radius: 15px;"">
                    <p style=""color: grey; font-weight: bold; font-size: 28px; margin-top: 15px;"">NEUTRAL VALUE</p>
                </div>
            </div>","null","part2_value_learning","housework_semantic","semantic_sequence","5","neutral","","","","",""
"","","","","","html-keyboard-response","29","160922","0.0-29.0","74D5EA9BEE624FD0A1A35C21B5D11E12","019db60b-5484-7616-8749-6cbcf476fc0f","019db609-2a35-76b9-807a-e0c4c153f4bb","","null","<div style=""background-color: white; width: 100vw; height: 100vh;""></div>","null","","","","","","","","","",""
"","","","","","html-button-response","30","162979","0.0-30.0","74D5EA9BEE624FD0A1A35C21B5D11E12","019db60b-5484-7616-8749-6cbcf476fc0f","019db609-2a35-76b9-807a-e0c4c153f4bb","","2056","
            <div class=""stimulus-container"">
                <img src=""images/semantic_sequence/maintaining_a_car_semantic/maintaining_a_car_semantic_4.png"" class=""exp-image"">
                <div class=""question-area"">
                    <p style=""font-size: 20px; font-weight: bold;"">Click the button to reveal the image value</p>
                </div>
            </div>","0","part2_active_reveal_click","maintaining_a_car_semantic","","","","","","","",""
"","","","","","html-keyboard-response","31","170981","0.0-31.0","74D5EA9BEE624FD0A1A35C21B5D11E12","019db60b-5484-7616-8749-6cbcf476fc0f","019db609-2a35-76b9-807a-e0c4c153f4bb","","null","
            <div class=""stimulus-container"" style=""display: flex; align-items: center; justify-content: center; gap: 40px;"">
                <img src=""images/semantic_sequence/maintaining_a_car_semantic/maintaining_a_car_semantic_4.png"" class=""exp-image"">
                <div style=""text-align: center;"">
                    <img src=""images/dollar.png"" style=""width: 150px; height: 150px; border: 5px solid green; border-radius: 15px;"">
                    <p style=""color: green; font-weight: bold; font-size: 28px; margin-top: 15px;"">WORTH MONEY</p>
                </div>
            </div>","null","part2_value_learning","maintaining_a_car_semantic","semantic_sequence","4","valuable","","","","",""
"","","","","","html-keyboard-response","32","175993","0.0-32.0","74D5EA9BEE624FD0A1A35C21B5D11E12","019db60b-5484-7616-8749-6cbcf476fc0f","019db609-2a35-76b9-807a-e0c4c153f4bb","","null","<div style=""background-color: white; width: 100vw; height: 100vh;""></div>","null","","","","","","","","","",""
"","","","","","html-button-response","33","178280","0.0-33.0","74D5EA9BEE624FD0A1A35C21B5D11E12","019db60b-5484-7616-8749-6cbcf476fc0f","019db609-2a35-76b9-807a-e0c4c153f4bb","","2286","
            <div class=""stimulus-container"">
                <img src=""images/semantic_sequence/self_care_activities_semantic/self_care_activities_semantic_7.png"" class=""exp-image"">
                <div class=""question-area"">
                    <p style=""font-size: 20px; font-weight: bold;"">Click the button to reveal the image value</p>
                </div>
            </div>","0","part2_active_reveal_click","self_care_activities_semantic","","","","","","","",""
"","","","","","html-keyboard-response","34","186293","0.0-34.0","74D5EA9BEE624FD0A1A35C21B5D11E12","019db60b-5484-7616-8749-6cbcf476fc0f","019db609-2a35-76b9-807a-e0c4c153f4bb","","null","
            <div class=""stimulus-container"" style=""display: flex; align-items: center; justify-content: center; gap: 40px;"">
                <img src=""images/semantic_sequence/self_care_activities_semantic/self_care_activities_semantic_7.png"" class=""exp-image"">
                <div style=""text-align: center;"">
                    <img src=""images/dollar.png"" style=""width: 150px; height: 150px; border: 5px solid green; border-radius: 15px;"">
                    <p style=""color: green; font-weight: bold; font-size: 28px; margin-top: 15px;"">WORTH MONEY</p>
                </div>
            </div>","null","part2_value_learning","self_care_activities_semantic","semantic_sequence","7","valuable","","","","",""
"","","","","","html-keyboard-response","35","191296","0.0-35.0","74D5EA9BEE624FD0A1A35C21B5D11E12","019db60b-5484-7616-8749-6cbcf476fc0f","019db609-2a35-76b9-807a-e0c4c153f4bb","","null","<div style=""background-color: white; width: 100vw; height: 100vh;""></div>","null","","","","","","","","","",""
"","","","","","html-button-response","36","196721","0.0-36.0","74D5EA9BEE624FD0A1A35C21B5D11E12","019db60b-5484-7616-8749-6cbcf476fc0f","019db609-2a35-76b9-807a-e0c4c153f4bb","","5424","
            <div class=""stimulus-container"">
                <img src=""images/schematic_sequence/flight_scheme/flight_scheme_5.png"" class=""exp-image"">
                <div class=""question-area"">
                    <p style=""font-size: 20px; font-weight: bold;"">Click the button to reveal the image value</p>
                </div>
            </div>","0","part2_active_reveal_click","flight_scheme","","","","","","","",""
"","","","","","html-keyboard-response","37","204733","0.0-37.0","74D5EA9BEE624FD0A1A35C21B5D11E12","019db60b-5484-7616-8749-6cbcf476fc0f","019db609-2a35-76b9-807a-e0c4c153f4bb","","null","
            <div class=""stimulus-container"" style=""display: flex; align-items: center; justify-content: center; gap: 40px;"">
                <img src=""images/schematic_sequence/flight_scheme/flight_scheme_5.png"" class=""exp-image"">
                <div style=""text-align: center;"">
                    <img src=""images/dollar.png"" style=""width: 150px; height: 150px; border: 5px solid green; border-radius: 15px;"">
                    <p style=""color: green; font-weight: bold; font-size: 28px; margin-top: 15px;"">WORTH MONEY</p>
                </div>
            </div>","null","part2_value_learning","flight_scheme","schematic_sequence","5","valuable","","","","",""
"","","","","","html-keyboard-response","38","209745","0.0-38.0","74D5EA9BEE624FD0A1A35C21B5D11E12","019db60b-5484-7616-8749-6cbcf476fc0f","019db609-2a35-76b9-807a-e0c4c153f4bb","","null","<div style=""background-color: white; width: 100vw; height: 100vh;""></div>","null","","","","","","","","","",""
"","","","","","html-button-response","39","211301","0.0-39.0","74D5EA9BEE624FD0A1A35C21B5D11E12","019db60b-5484-7616-8749-6cbcf476fc0f","019db609-2a35-76b9-807a-e0c4c153f4bb","","1556","
            <div class=""stimulus-container"">
                <img src=""images/schematic_sequence/restaurant_scheme/restaurant_scheme_4.png"" class=""exp-image"">
                <div class=""question-area"">
                    <p style=""font-size: 20px; font-weight: bold;"">Click the button to reveal the image value</p>
                </div>
            </div>","0","part2_active_reveal_click","restaurant_scheme","","","","","","","",""
"","","","","","html-keyboard-response","40","219309","0.0-40.0","74D5EA9BEE624FD0A1A35C21B5D11E12","019db60b-5484-7616-8749-6cbcf476fc0f","019db609-2a35-76b9-807a-e0c4c153f4bb","","null","
            <div class=""stimulus-container"" style=""display: flex; align-items: center; justify-content: center; gap: 40px;"">
                <img src=""images/schematic_sequence/restaurant_scheme/restaurant_scheme_4.png"" class=""exp-image"">
                <div style=""text-align: center;"">
                    <img src=""images/dollar.png"" style=""width: 150px; height: 150px; border: 5px solid green; border-radius: 15px;"">
                    <p style=""color: green; font-weight: bold; font-size: 28px; margin-top: 15px;"">WORTH MONEY</p>
                </div>
            </div>","null","part2_value_learning","restaurant_scheme","schematic_sequence","4","valuable","","","","",""
"","","","","","html-keyboard-response","41","224310","0.0-41.0","74D5EA9BEE624FD0A1A35C21B5D11E12","019db60b-5484-7616-8749-6cbcf476fc0f","019db609-2a35-76b9-807a-e0c4c153f4bb","","null","<div style=""background-color: white; width: 100vw; height: 100vh;""></div>","null","","","","","","","","","",""
"","","","","","instructions","42","230885","0.0-42.0","74D5EA9BEE624FD0A1A35C21B5D11E12","019db60b-5484-7616-8749-6cbcf476fc0f","019db609-2a35-76b9-807a-e0c4c153f4bb","[{""page_index"":0,""viewing_time"":6575}]","6575","","","","","","","","","","","",""
"","","","","","html-keyboard-response","43","233889","0.0-43.0-0.0","74D5EA9BEE624FD0A1A35C21B5D11E12","019db60b-5484-7616-8749-6cbcf476fc0f","019db609-2a35-76b9-807a-e0c4c153f4bb","","null","
                            <div style=""font-family: Arial; margin-bottom: 20px;""><h3>Which image is worth <b>more money</b>?</h3></div>
                            <div class=""stimulus-container"" style=""display: flex; width: 800px; justify-content: center; gap: 30px;"">
                                <img src=""images/schematic_sequence/interview_scheme/interview_scheme_7.png"" class=""small-image"">
                                <img src=""images/schematic_sequence/interview_scheme/interview_scheme_3.png"" class=""small-image"">
                            </div>","null","","","","","","","","","",""
"","","","","","html-button-response","44","235444","0.0-43.0-1.0","74D5EA9BEE624FD0A1A35C21B5D11E12","019db60b-5484-7616-8749-6cbcf476fc0f","019db609-2a35-76b9-807a-e0c4c153f4bb","","1555","
                            <div style=""font-family: Arial; margin-bottom: 20px;""><h3>Which image is worth <b>more money</b>?</h3></div>
                            <div class=""stimulus-container"" style=""display: flex; width: 800px; justify-content: center; gap: 30px;"">
                                <img src=""images/schematic_sequence/interview_scheme/interview_scheme_7.png"" class=""small-image"">
                                <img src=""images/schematic_sequence/interview_scheme/interview_scheme_3.png"" class=""small-image"">
                            </div>","0","part3_choice_neighbors","interview_scheme","schematic_sequence","","","2","5","7","1",""
"","","","","","html-keyboard-response","45","238450","0.0-44.0-0.0","74D5EA9BEE624FD0A1A35C21B5D11E12","019db60b-5484-7616-8749-6cbcf476fc0f","019db609-2a35-76b9-807a-e0c4c153f4bb","","null","
                            <div style=""font-family: Arial; margin-bottom: 20px;""><h3>Which image is worth <b>more money</b>?</h3></div>
                            <div class=""stimulus-container"" style=""display: flex; width: 800px; justify-content: center; gap: 30px;"">
                                <img src=""images/semantic_sequence/visiting_cities_semantic/visiting_cities_semantic_7.png"" class=""small-image"">
                                <img src=""images/semantic_sequence/visiting_cities_semantic/visiting_cities_semantic_1.png"" class=""small-image"">
                            </div>","null","","","","","","","","","",""
"","","","","","html-button-response","46","239632","0.0-44.0-1.0","74D5EA9BEE624FD0A1A35C21B5D11E12","019db60b-5484-7616-8749-6cbcf476fc0f","019db609-2a35-76b9-807a-e0c4c153f4bb","","1182","
                            <div style=""font-family: Arial; margin-bottom: 20px;""><h3>Which image is worth <b>more money</b>?</h3></div>
                            <div class=""stimulus-container"" style=""display: flex; width: 800px; justify-content: center; gap: 30px;"">
                                <img src=""images/semantic_sequence/visiting_cities_semantic/visiting_cities_semantic_7.png"" class=""small-image"">
                                <img src=""images/semantic_sequence/visiting_cities_semantic/visiting_cities_semantic_1.png"" class=""small-image"">
                            </div>","1","part3_choice_neighbors","visiting_cities_semantic","semantic_sequence","","","3","4","1","0",""
"","","","","","html-keyboard-response","47","242633","0.0-45.0-0.0","74D5EA9BEE624FD0A1A35C21B5D11E12","019db60b-5484-7616-8749-6cbcf476fc0f","019db609-2a35-76b9-807a-e0c4c153f4bb","","null","
                            <div style=""font-family: Arial; margin-bottom: 20px;""><h3>Which image is worth <b>more money</b>?</h3></div>
                            <div class=""stimulus-container"" style=""display: flex; width: 800px; justify-content: center; gap: 30px;"">
                                <img src=""images/semantic_sequence/housework_semantic/housework_semantic_2.png"" class=""small-image"">
                                <img src=""images/semantic_sequence/housework_semantic/housework_semantic_8.png"" class=""small-image"">
                            </div>","null","","","","","","","","","",""
"","","","","","html-button-response","48","243922","0.0-45.0-1.0","74D5EA9BEE624FD0A1A35C21B5D11E12","019db60b-5484-7616-8749-6cbcf476fc0f","019db609-2a35-76b9-807a-e0c4c153f4bb","","1289","
                            <div style=""font-family: Arial; margin-bottom: 20px;""><h3>Which image is worth <b>more money</b>?</h3></div>
                            <div class=""stimulus-container"" style=""display: flex; width: 800px; justify-content: center; gap: 30px;"">
                                <img src=""images/semantic_sequence/housework_semantic/housework_semantic_2.png"" class=""small-image"">
                                <img src=""images/semantic_sequence/housework_semantic/housework_semantic_8.png"" class=""small-image"">
                            </div>","1","part3_choice_neighbors","housework_semantic","semantic_sequence","","","3","5","8","1",""
"","","","","","html-keyboard-response","49","246930","0.0-46.0-0.0","74D5EA9BEE624FD0A1A35C21B5D11E12","019db60b-5484-7616-8749-6cbcf476fc0f","019db609-2a35-76b9-807a-e0c4c153f4bb","","null","
                            <div style=""font-family: Arial; margin-bottom: 20px;""><h3>Which image is worth <b>more money</b>?</h3></div>
                            <div class=""stimulus-container"" style=""display: flex; width: 800px; justify-content: center; gap: 30px;"">
                                <img src=""images/schematic_sequence/hotel_scheme/hotel_scheme_2.png"" class=""small-image"">
                                <img src=""images/schematic_sequence/hotel_scheme/hotel_scheme_6.png"" class=""small-image"">
                            </div>","null","","","","","","","","","",""
"","","","","","html-button-response","50","249065","0.0-46.0-1.0","74D5EA9BEE624FD0A1A35C21B5D11E12","019db60b-5484-7616-8749-6cbcf476fc0f","019db609-2a35-76b9-807a-e0c4c153f4bb","","2134","
                            <div style=""font-family: Arial; margin-bottom: 20px;""><h3>Which image is worth <b>more money</b>?</h3></div>
                            <div class=""stimulus-container"" style=""display: flex; width: 800px; justify-content: center; gap: 30px;"">
                                <img src=""images/schematic_sequence/hotel_scheme/hotel_scheme_2.png"" class=""small-image"">
                                <img src=""images/schematic_sequence/hotel_scheme/hotel_scheme_6.png"" class=""small-image"">
                            </div>","1","part3_choice_neighbors","hotel_scheme","schematic_sequence","","","2","4","6","1",""
"","","","","","html-keyboard-response","51","252079","0.0-47.0-0.0","74D5EA9BEE624FD0A1A35C21B5D11E12","019db60b-5484-7616-8749-6cbcf476fc0f","019db609-2a35-76b9-807a-e0c4c153f4bb","","null","<div style=""font-family: Arial; margin-bottom: 20px;""><h3>Which image is worth <b>more money?</h3></div>
                            <div class=""stimulus-container"" style=""display: flex; width: 800px; justify-content: center; gap: 30px;"">
                                <img src=""images/semantic_sequence/visiting_cities_semantic/visiting_cities_semantic_4.png"" class=""small-image"">
                                <img src=""images/semantic_sequence/maintaining_a_car_semantic/maintaining_a_car_semantic_4.png"" class=""small-image"">
                            </div>","null","","","","","","","","","",""
"","","","","","html-button-response","52","252894","0.0-47.0-1.0","74D5EA9BEE624FD0A1A35C21B5D11E12","019db60b-5484-7616-8749-6cbcf476fc0f","019db609-2a35-76b9-807a-e0c4c153f4bb","","814","<div style=""font-family: Arial; margin-bottom: 20px;""><h3>Which image is worth <b>more money</b>?</h3></div>
                            <div class=""stimulus-container"" style=""display: flex; width: 800px; justify-content: center; gap: 30px;"">
                                <img src=""images/semantic_sequence/visiting_cities_semantic/visiting_cities_semantic_4.png"" class=""small-image"">
                                <img src=""images/semantic_sequence/maintaining_a_car_semantic/maintaining_a_car_semantic_4.png"" class=""small-image"">
                            </div>","1","part3_valuable_vs_neutral_direct","","","","","","","","","true"
"","","","","","html-keyboard-response","53","255894","0.0-48.0-0.0","74D5EA9BEE624FD0A1A35C21B5D11E12","019db60b-5484-7616-8749-6cbcf476fc0f","019db609-2a35-76b9-807a-e0c4c153f4bb","","null","
                            <div style=""font-family: Arial; margin-bottom: 20px;""><h3>Which image is worth <b>more money</b>?</h3></div>
                            <div class=""stimulus-container"" style=""display: flex; width: 800px; justify-content: center; gap: 30px;"">
                                <img src=""images/semantic_sequence/kitchen_operations_semantic/kitchen_operations_semantic_5.png"" class=""small-image"">
                                <img src=""images/semantic_sequence/kitchen_operations_semantic/kitchen_operations_semantic_7.png"" class=""small-image"">
                            </div>","null","","","","","","","","","",""
"","","","","","html-button-response","54","256757","0.0-48.0-1.0","74D5EA9BEE624FD0A1A35C21B5D11E12","019db60b-5484-7616-8749-6cbcf476fc0f","019db609-2a35-76b9-807a-e0c4c153f4bb","","862","
                            <div style=""font-family: Arial; margin-bottom: 20px;""><h3>Which image is worth <b>more money</b>?</h3></div>
                            <div class=""stimulus-container"" style=""display: flex; width: 800px; justify-content: center; gap: 30px;"">
                                <img src=""images/semantic_sequence/kitchen_operations_semantic/kitchen_operations_semantic_5.png"" class=""small-image"">
                                <img src=""images/semantic_sequence/kitchen_operations_semantic/kitchen_operations_semantic_7.png"" class=""small-image"">
                            </div>","0","part3_choice_neighbors","kitchen_operations_semantic","semantic_sequence","","","1","6","5","0",""
"","","","","","html-keyboard-response","55","259768","0.0-49.0-0.0","74D5EA9BEE624FD0A1A35C21B5D11E12","019db60b-5484-7616-8749-6cbcf476fc0f","019db609-2a35-76b9-807a-e0c4c153f4bb","","null","
                            <div style=""font-family: Arial; margin-bottom: 20px;""><h3>Which image is worth <b>more money</b>?</h3></div>
                            <div class=""stimulus-container"" style=""display: flex; width: 800px; justify-content: center; gap: 30px;"">
                                <img src=""images/semantic_sequence/maintaining_a_car_semantic/maintaining_a_car_semantic_1.png"" class=""small-image"">
                                <img src=""images/semantic_sequence/maintaining_a_car_semantic/maintaining_a_car_semantic_7.png"" class=""small-image"">
                            </div>","null","","","","","","","","","",""
"","","","","","html-button-response","56","260719","0.0-49.0-1.0","74D5EA9BEE624FD0A1A35C21B5D11E12","019db60b-5484-7616-8749-6cbcf476fc0f","019db609-2a35-76b9-807a-e0c4c153f4bb","","950","
                            <div style=""font-family: Arial; margin-bottom: 20px;""><h3>Which image is worth <b>more money</b>?</h3></div>
                            <div class=""stimulus-container"" style=""display: flex; width: 800px; justify-content: center; gap: 30px;"">
                                <img src=""images/semantic_sequence/maintaining_a_car_semantic/maintaining_a_car_semantic_1.png"" class=""small-image"">
                                <img src=""images/semantic_sequence/maintaining_a_car_semantic/maintaining_a_car_semantic_7.png"" class=""small-image"">
                            </div>","0","part3_choice_neighbors","maintaining_a_car_semantic","semantic_sequence","","","3","4","1","0",""
"","","","","","html-keyboard-response","57","263722","0.0-50.0-0.0","74D5EA9BEE624FD0A1A35C21B5D11E12","019db60b-5484-7616-8749-6cbcf476fc0f","019db609-2a35-76b9-807a-e0c4c153f4bb","","null","
                            <div style=""font-family: Arial; margin-bottom: 20px;""><h3>Which image is worth <b>more money</b>?</h3></div>
                            <div class=""stimulus-container"" style=""display: flex; width: 800px; justify-content: center; gap: 30px;"">
                                <img src=""images/schematic_sequence/dinner_party_scheme/dinner_party_scheme_9.png"" class=""small-image"">
                                <img src=""images/schematic_sequence/dinner_party_scheme/dinner_party_scheme_5.png"" class=""small-image"">
                            </div>","null","","","","","","","","","",""
"","","","","","html-button-response","58","264894","0.0-50.0-1.0","74D5EA9BEE624FD0A1A35C21B5D11E12","019db60b-5484-7616-8749-6cbcf476fc0f","019db609-2a35-76b9-807a-e0c4c153f4bb","","1171","
                            <div style=""font-family: Arial; margin-bottom: 20px;""><h3>Which image is worth <b>more money</b>?</h3></div>
                            <div class=""stimulus-container"" style=""display: flex; width: 800px; justify-content: center; gap: 30px;"">
                                <img src=""images/schematic_sequence/dinner_party_scheme/dinner_party_scheme_9.png"" class=""small-image"">
                                <img src=""images/schematic_sequence/dinner_party_scheme/dinner_party_scheme_5.png"" class=""small-image"">
                            </div>","1","part3_choice_neighbors","dinner_party_scheme","schematic_sequence","","","2","7","5","0",""
"","","","","","html-keyboard-response","59","267899","0.0-51.0-0.0","74D5EA9BEE624FD0A1A35C21B5D11E12","019db60b-5484-7616-8749-6cbcf476fc0f","019db609-2a35-76b9-807a-e0c4c153f4bb","","null","
                            <div style=""font-family: Arial; margin-bottom: 20px;""><h3>Which image is worth <b>more money</b>?</h3></div>
                            <div class=""stimulus-container"" style=""display: flex; width: 800px; justify-content: center; gap: 30px;"">
                                <img src=""images/semantic_sequence/physical_activity_semantic/physical_activity_semantic_3.png"" class=""small-image"">
                                <img src=""images/semantic_sequence/physical_activity_semantic/physical_activity_semantic_5.png"" class=""small-image"">
                            </div>","null","","","","","","","","","",""
"","","","","","html-button-response","60","269728","0.0-51.0-1.0","74D5EA9BEE624FD0A1A35C21B5D11E12","019db60b-5484-7616-8749-6cbcf476fc0f","019db609-2a35-76b9-807a-e0c4c153f4bb","","1828","
                            <div style=""font-family: Arial; margin-bottom: 20px;""><h3>Which image is worth <b>more money</b>?</h3></div>
                            <div class=""stimulus-container"" style=""display: flex; width: 800px; justify-content: center; gap: 30px;"">
                                <img src=""images/semantic_sequence/physical_activity_semantic/physical_activity_semantic_3.png"" class=""small-image"">
                                <img src=""images/semantic_sequence/physical_activity_semantic/physical_activity_semantic_5.png"" class=""small-image"">
                            </div>","1","part3_choice_neighbors","physical_activity_semantic","semantic_sequence","","","1","4","5","1",""
"","","","","","html-keyboard-response","61","272733","0.0-52.0-0.0","74D5EA9BEE624FD0A1A35C21B5D11E12","019db60b-5484-7616-8749-6cbcf476fc0f","019db609-2a35-76b9-807a-e0c4c153f4bb","","null","
                            <div style=""font-family: Arial; margin-bottom: 20px;""><h3>Which image is worth <b>more money</b>?</h3></div>
                            <div class=""stimulus-container"" style=""display: flex; width: 800px; justify-content: center; gap: 30px;"">
                                <img src=""images/semantic_sequence/physical_activity_semantic/physical_activity_semantic_2.png"" class=""small-image"">
                                <img src=""images/semantic_sequence/physical_activity_semantic/physical_activity_semantic_6.png"" class=""small-image"">
                            </div>","null","","","","","","","","","",""
"","","","","","html-button-response","62","274055","0.0-52.0-1.0","74D5EA9BEE624FD0A1A35C21B5D11E12","019db60b-5484-7616-8749-6cbcf476fc0f","019db609-2a35-76b9-807a-e0c4c153f4bb","","1321","
                            <div style=""font-family: Arial; margin-bottom: 20px;""><h3>Which image is worth <b>more money</b>?</h3></div>
                            <div class=""stimulus-container"" style=""display: flex; width: 800px; justify-content: center; gap: 30px;"">
                                <img src=""images/semantic_sequence/physical_activity_semantic/physical_activity_semantic_2.png"" class=""small-image"">
                                <img src=""images/semantic_sequence/physical_activity_semantic/physical_activity_semantic_6.png"" class=""small-image"">
                            </div>","0","part3_choice_neighbors","physical_activity_semantic","semantic_sequence","","","2","4","2","0",""
"","","","","","html-keyboard-response","63","277064","0.0-53.0-0.0","74D5EA9BEE624FD0A1A35C21B5D11E12","019db60b-5484-7616-8749-6cbcf476fc0f","019db609-2a35-76b9-807a-e0c4c153f4bb","","null","
                            <div style=""font-family: Arial; margin-bottom: 20px;""><h3>Which image is worth <b>more money</b>?</h3></div>
                            <div class=""stimulus-container"" style=""display: flex; width: 800px; justify-content: center; gap: 30px;"">
                                <img src=""images/semantic_sequence/self_care_activities_semantic/self_care_activities_semantic_9.png"" class=""small-image"">
                                <img src=""images/semantic_sequence/self_care_activities_semantic/self_care_activities_semantic_5.png"" class=""small-image"">
                            </div>","null","","","","","","","","","",""
"","","","","","html-button-response","64","278182","0.0-53.0-1.0","74D5EA9BEE624FD0A1A35C21B5D11E12","019db60b-5484-7616-8749-6cbcf476fc0f","019db609-2a35-76b9-807a-e0c4c153f4bb","","1117","
                            <div style=""font-family: Arial; margin-bottom: 20px;""><h3>Which image is worth <b>more money</b>?</h3></div>
                            <div class=""stimulus-container"" style=""display: flex; width: 800px; justify-content: center; gap: 30px;"">
                                <img src=""images/semantic_sequence/self_care_activities_semantic/self_care_activities_semantic_9.png"" class=""small-image"">
                                <img src=""images/semantic_sequence/self_care_activities_semantic/self_care_activities_semantic_5.png"" class=""small-image"">
                            </div>","0","part3_choice_neighbors","self_care_activities_semantic","semantic_sequence","","","2","7","9","1",""
"","","","","","html-keyboard-response","65","281191","0.0-54.0-0.0","74D5EA9BEE624FD0A1A35C21B5D11E12","019db60b-5484-7616-8749-6cbcf476fc0f","019db609-2a35-76b9-807a-e0c4c153f4bb","","null","
                            <div style=""font-family: Arial; margin-bottom: 20px;""><h3>Which image is worth <b>more money</b>?</h3></div>
                            <div class=""stimulus-container"" style=""display: flex; width: 800px; justify-content: center; gap: 30px;"">
                                <img src=""images/semantic_sequence/visiting_cities_semantic/visiting_cities_semantic_5.png"" class=""small-image"">
                                <img src=""images/semantic_sequence/visiting_cities_semantic/visiting_cities_semantic_3.png"" class=""small-image"">
                            </div>","null","","","","","","","","","",""
"","","","","","html-button-response","66","282040","0.0-54.0-1.0","74D5EA9BEE624FD0A1A35C21B5D11E12","019db60b-5484-7616-8749-6cbcf476fc0f","019db609-2a35-76b9-807a-e0c4c153f4bb","","848","
                            <div style=""font-family: Arial; margin-bottom: 20px;""><h3>Which image is worth <b>more money</b>?</h3></div>
                            <div class=""stimulus-container"" style=""display: flex; width: 800px; justify-content: center; gap: 30px;"">
                                <img src=""images/semantic_sequence/visiting_cities_semantic/visiting_cities_semantic_5.png"" class=""small-image"">
                                <img src=""images/semantic_sequence/visiting_cities_semantic/visiting_cities_semantic_3.png"" class=""small-image"">
                            </div>","1","part3_choice_neighbors","visiting_cities_semantic","semantic_sequence","","","1","4","3","0",""
"","","","","","html-keyboard-response","67","285053","0.0-55.0-0.0","74D5EA9BEE624FD0A1A35C21B5D11E12","019db60b-5484-7616-8749-6cbcf476fc0f","019db609-2a35-76b9-807a-e0c4c153f4bb","","null","
                            <div style=""font-family: Arial; margin-bottom: 20px;""><h3>Which image is worth <b>more money</b>?</h3></div>
                            <div class=""stimulus-container"" style=""display: flex; width: 800px; justify-content: center; gap: 30px;"">
                                <img src=""images/semantic_sequence/maintaining_a_car_semantic/maintaining_a_car_semantic_3.png"" class=""small-image"">
                                <img src=""images/semantic_sequence/maintaining_a_car_semantic/maintaining_a_car_semantic_5.png"" class=""small-image"">
                            </div>","null","","","","","","","","","",""
"","","","","","html-button-response","68","286302","0.0-55.0-1.0","74D5EA9BEE624FD0A1A35C21B5D11E12","019db60b-5484-7616-8749-6cbcf476fc0f","019db609-2a35-76b9-807a-e0c4c153f4bb","","1249","
                            <div style=""font-family: Arial; margin-bottom: 20px;""><h3>Which image is worth <b>more money</b>?</h3></div>
                            <div class=""stimulus-container"" style=""display: flex; width: 800px; justify-content: center; gap: 30px;"">
                                <img src=""images/semantic_sequence/maintaining_a_car_semantic/maintaining_a_car_semantic_3.png"" class=""small-image"">
                                <img src=""images/semantic_sequence/maintaining_a_car_semantic/maintaining_a_car_semantic_5.png"" class=""small-image"">
                            </div>","1","part3_choice_neighbors","maintaining_a_car_semantic","semantic_sequence","","","1","4","5","1",""
"","","","","","html-keyboard-response","69","289303","0.0-56.0-0.0","74D5EA9BEE624FD0A1A35C21B5D11E12","019db60b-5484-7616-8749-6cbcf476fc0f","019db609-2a35-76b9-807a-e0c4c153f4bb","","null","
                            <div style=""font-family: Arial; margin-bottom: 20px;""><h3>Which image is worth <b>more money</b>?</h3></div>
                            <div class=""stimulus-container"" style=""display: flex; width: 800px; justify-content: center; gap: 30px;"">
                                <img src=""images/semantic_sequence/housework_semantic/housework_semantic_6.png"" class=""small-image"">
                                <img src=""images/semantic_sequence/housework_semantic/housework_semantic_4.png"" class=""small-image"">
                            </div>","null","","","","","","","","","",""
"","","","","","html-button-response","70","290264","0.0-56.0-1.0","74D5EA9BEE624FD0A1A35C21B5D11E12","019db60b-5484-7616-8749-6cbcf476fc0f","019db609-2a35-76b9-807a-e0c4c153f4bb","","961","
                            <div style=""font-family: Arial; margin-bottom: 20px;""><h3>Which image is worth <b>more money</b>?</h3></div>
                            <div class=""stimulus-container"" style=""display: flex; width: 800px; justify-content: center; gap: 30px;"">
                                <img src=""images/semantic_sequence/housework_semantic/housework_semantic_6.png"" class=""small-image"">
                                <img src=""images/semantic_sequence/housework_semantic/housework_semantic_4.png"" class=""small-image"">
                            </div>","1","part3_choice_neighbors","housework_semantic","semantic_sequence","","","1","5","4","0",""
"","","","","","html-keyboard-response","71","293265","0.0-57.0-0.0","74D5EA9BEE624FD0A1A35C21B5D11E12","019db60b-5484-7616-8749-6cbcf476fc0f","019db609-2a35-76b9-807a-e0c4c153f4bb","","null","
                            <div style=""font-family: Arial; margin-bottom: 20px;""><h3>Which image is worth <b>more money</b>?</h3></div>
                            <div class=""stimulus-container"" style=""display: flex; width: 800px; justify-content: center; gap: 30px;"">
                                <img src=""images/schematic_sequence/hotel_scheme/hotel_scheme_3.png"" class=""small-image"">
                                <img src=""images/schematic_sequence/hotel_scheme/hotel_scheme_5.png"" class=""small-image"">
                            </div>","null","","","","","","","","","",""
"","","","","","html-button-response","72","294295","0.0-57.0-1.0","74D5EA9BEE624FD0A1A35C21B5D11E12","019db60b-5484-7616-8749-6cbcf476fc0f","019db609-2a35-76b9-807a-e0c4c153f4bb","","1029","
                            <div style=""font-family: Arial; margin-bottom: 20px;""><h3>Which image is worth <b>more money</b>?</h3></div>
                            <div class=""stimulus-container"" style=""display: flex; width: 800px; justify-content: center; gap: 30px;"">
                                <img src=""images/schematic_sequence/hotel_scheme/hotel_scheme_3.png"" class=""small-image"">
                                <img src=""images/schematic_sequence/hotel_scheme/hotel_scheme_5.png"" class=""small-image"">
                            </div>","0","part3_choice_neighbors","hotel_scheme","schematic_sequence","","","1","4","3","0",""
"","","","","","html-keyboard-response","73","297296","0.0-58.0-0.0","74D5EA9BEE624FD0A1A35C21B5D11E12","019db60b-5484-7616-8749-6cbcf476fc0f","019db609-2a35-76b9-807a-e0c4c153f4bb","","null","
                            <div style=""font-family: Arial; margin-bottom: 20px;""><h3>Which image is worth <b>more money</b>?</h3></div>
                            <div class=""stimulus-container"" style=""display: flex; width: 800px; justify-content: center; gap: 30px;"">
                                <img src=""images/semantic_sequence/kitchen_operations_semantic/kitchen_operations_semantic_4.png"" class=""small-image"">
                                <img src=""images/semantic_sequence/kitchen_operations_semantic/kitchen_operations_semantic_8.png"" class=""small-image"">
                            </div>","null","","","","","","","","","",""
"","","","","","html-button-response","74","298823","0.0-58.0-1.0","74D5EA9BEE624FD0A1A35C21B5D11E12","019db60b-5484-7616-8749-6cbcf476fc0f","019db609-2a35-76b9-807a-e0c4c153f4bb","","1526","
                            <div style=""font-family: Arial; margin-bottom: 20px;""><h3>Which image is worth <b>more money</b>?</h3></div>
                            <div class=""stimulus-container"" style=""display: flex; width: 800px; justify-content: center; gap: 30px;"">
                                <img src=""images/semantic_sequence/kitchen_operations_semantic/kitchen_operations_semantic_4.png"" class=""small-image"">
                                <img src=""images/semantic_sequence/kitchen_operations_semantic/kitchen_operations_semantic_8.png"" class=""small-image"">
                            </div>","0","part3_choice_neighbors","kitchen_operations_semantic","semantic_sequence","","","2","6","4","0",""
"","","","","","html-keyboard-response","75","301828","0.0-59.0-0.0","74D5EA9BEE624FD0A1A35C21B5D11E12","019db60b-5484-7616-8749-6cbcf476fc0f","019db609-2a35-76b9-807a-e0c4c153f4bb","","null","
                            <div style=""font-family: Arial; margin-bottom: 20px;""><h3>Which image is worth <b>more money</b>?</h3></div>
                            <div class=""stimulus-container"" style=""display: flex; width: 800px; justify-content: center; gap: 30px;"">
                                <img src=""images/schematic_sequence/flight_scheme/flight_scheme_2.png"" class=""small-image"">
                                <img src=""images/schematic_sequence/flight_scheme/flight_scheme_8.png"" class=""small-image"">
                            </div>","null","","","","","","","","","",""
"","","","","","html-button-response","76","304212","0.0-59.0-1.0","74D5EA9BEE624FD0A1A35C21B5D11E12","019db60b-5484-7616-8749-6cbcf476fc0f","019db609-2a35-76b9-807a-e0c4c153f4bb","","2384","
                            <div style=""font-family: Arial; margin-bottom: 20px;""><h3>Which image is worth <b>more money</b>?</h3></div>
                            <div class=""stimulus-container"" style=""display: flex; width: 800px; justify-content: center; gap: 30px;"">
                                <img src=""images/schematic_sequence/flight_scheme/flight_scheme_2.png"" class=""small-image"">
                                <img src=""images/schematic_sequence/flight_scheme/flight_scheme_8.png"" class=""small-image"">
                            </div>","1","part3_choice_neighbors","flight_scheme","schematic_sequence","","","3","5","8","1",""
"","","","","","html-keyboard-response","77","307217","0.0-60.0-0.0","74D5EA9BEE624FD0A1A35C21B5D11E12","019db60b-5484-7616-8749-6cbcf476fc0f","019db609-2a35-76b9-807a-e0c4c153f4bb","","null","
                            <div style=""font-family: Arial; margin-bottom: 20px;""><h3>Which image is worth <b>more money</b>?</h3></div>
                            <div class=""stimulus-container"" style=""display: flex; width: 800px; justify-content: center; gap: 30px;"">
                                <img src=""images/schematic_sequence/dinner_party_scheme/dinner_party_scheme_4.png"" class=""small-image"">
                                <img src=""images/schematic_sequence/dinner_party_scheme/dinner_party_scheme_ten.png"" class=""small-image"">
                            </div>","null","","","","","","","","","",""
"","","","","","html-button-response","78","310353","0.0-60.0-1.0","74D5EA9BEE624FD0A1A35C21B5D11E12","019db60b-5484-7616-8749-6cbcf476fc0f","019db609-2a35-76b9-807a-e0c4c153f4bb","","3135","
                            <div style=""font-family: Arial; margin-bottom: 20px;""><h3>Which image is worth <b>more money</b>?</h3></div>
                            <div class=""stimulus-container"" style=""display: flex; width: 800px; justify-content: center; gap: 30px;"">
                                <img src=""images/schematic_sequence/dinner_party_scheme/dinner_party_scheme_4.png"" class=""small-image"">
                                <img src=""images/schematic_sequence/dinner_party_scheme/dinner_party_scheme_ten.png"" class=""small-image"">
                            </div>","1","part3_choice_neighbors","dinner_party_scheme","schematic_sequence","","","3","7","10","1",""
"","","","","","html-keyboard-response","79","313357","0.0-61.0-0.0","74D5EA9BEE624FD0A1A35C21B5D11E12","019db60b-5484-7616-8749-6cbcf476fc0f","019db609-2a35-76b9-807a-e0c4c153f4bb","","null","
                            <div style=""font-family: Arial; margin-bottom: 20px;""><h3>Which image is worth <b>more money</b>?</h3></div>
                            <div class=""stimulus-container"" style=""display: flex; width: 800px; justify-content: center; gap: 30px;"">
                                <img src=""images/semantic_sequence/kitchen_operations_semantic/kitchen_operations_semantic_3.png"" class=""small-image"">
                                <img src=""images/semantic_sequence/kitchen_operations_semantic/kitchen_operations_semantic_9.png"" class=""small-image"">
                            </div>","null","","","","","","","","","",""
"","","","","","html-button-response","80","314892","0.0-61.0-1.0","74D5EA9BEE624FD0A1A35C21B5D11E12","019db60b-5484-7616-8749-6cbcf476fc0f","019db609-2a35-76b9-807a-e0c4c153f4bb","","1534","
                            <div style=""font-family: Arial; margin-bottom: 20px;""><h3>Which image is worth <b>more money</b>?</h3></div>
                            <div class=""stimulus-container"" style=""display: flex; width: 800px; justify-content: center; gap: 30px;"">
                                <img src=""images/semantic_sequence/kitchen_operations_semantic/kitchen_operations_semantic_3.png"" class=""small-image"">
                                <img src=""images/semantic_sequence/kitchen_operations_semantic/kitchen_operations_semantic_9.png"" class=""small-image"">
                            </div>","0","part3_choice_neighbors","kitchen_operations_semantic","semantic_sequence","","","3","6","3","0",""
"","","","","","html-keyboard-response","81","317906","0.0-62.0-0.0","74D5EA9BEE624FD0A1A35C21B5D11E12","019db60b-5484-7616-8749-6cbcf476fc0f","019db609-2a35-76b9-807a-e0c4c153f4bb","","null","
                            <div style=""font-family: Arial; margin-bottom: 20px;""><h3>Which image is worth <b>more money</b>?</h3></div>
                            <div class=""stimulus-container"" style=""display: flex; width: 800px; justify-content: center; gap: 30px;"">
                                <img src=""images/schematic_sequence/interview_scheme/interview_scheme_8.png"" class=""small-image"">
                                <img src=""images/schematic_sequence/interview_scheme/interview_scheme_2.png"" class=""small-image"">
                            </div>","null","","","","","","","","","",""
"","","","","","html-button-response","82","319080","0.0-62.0-1.0","74D5EA9BEE624FD0A1A35C21B5D11E12","019db60b-5484-7616-8749-6cbcf476fc0f","019db609-2a35-76b9-807a-e0c4c153f4bb","","1173","
                            <div style=""font-family: Arial; margin-bottom: 20px;""><h3>Which image is worth <b>more money</b>?</h3></div>
                            <div class=""stimulus-container"" style=""display: flex; width: 800px; justify-content: center; gap: 30px;"">
                                <img src=""images/schematic_sequence/interview_scheme/interview_scheme_8.png"" class=""small-image"">
                                <img src=""images/schematic_sequence/interview_scheme/interview_scheme_2.png"" class=""small-image"">
                            </div>","0","part3_choice_neighbors","interview_scheme","schematic_sequence","","","3","5","8","1",""
"","","","","","html-keyboard-response","83","322088","0.0-63.0-0.0","74D5EA9BEE624FD0A1A35C21B5D11E12","019db60b-5484-7616-8749-6cbcf476fc0f","019db609-2a35-76b9-807a-e0c4c153f4bb","","null","
                            <div style=""font-family: Arial; margin-bottom: 20px;""><h3>Which image is worth <b>more money</b>?</h3></div>
                            <div class=""stimulus-container"" style=""display: flex; width: 800px; justify-content: center; gap: 30px;"">
                                <img src=""images/schematic_sequence/hotel_scheme/hotel_scheme_7.png"" class=""small-image"">
                                <img src=""images/schematic_sequence/hotel_scheme/hotel_scheme_1.png"" class=""small-image"">
                            </div>","null","","","","","","","","","",""
"","","","","","html-button-response","84","323242","0.0-63.0-1.0","74D5EA9BEE624FD0A1A35C21B5D11E12","019db60b-5484-7616-8749-6cbcf476fc0f","019db609-2a35-76b9-807a-e0c4c153f4bb","","1153","
                            <div style=""font-family: Arial; margin-bottom: 20px;""><h3>Which image is worth <b>more money</b>?</h3></div>
                            <div class=""stimulus-container"" style=""display: flex; width: 800px; justify-content: center; gap: 30px;"">
                                <img src=""images/schematic_sequence/hotel_scheme/hotel_scheme_7.png"" class=""small-image"">
                                <img src=""images/schematic_sequence/hotel_scheme/hotel_scheme_1.png"" class=""small-image"">
                            </div>","1","part3_choice_neighbors","hotel_scheme","schematic_sequence","","","3","4","1","0",""
"","","","","","html-keyboard-response","85","326254","0.0-64.0-0.0","74D5EA9BEE624FD0A1A35C21B5D11E12","019db60b-5484-7616-8749-6cbcf476fc0f","019db609-2a35-76b9-807a-e0c4c153f4bb","","null","
                            <div style=""font-family: Arial; margin-bottom: 20px;""><h3>Which image is worth <b>more money</b>?</h3></div>
                            <div class=""stimulus-container"" style=""display: flex; width: 800px; justify-content: center; gap: 30px;"">
                                <img src=""images/semantic_sequence/self_care_activities_semantic/self_care_activities_semantic_4.png"" class=""small-image"">
                                <img src=""images/semantic_sequence/self_care_activities_semantic/self_care_activities_semantic_ten.png"" class=""small-image"">
                            </div>","null","","","","","","","","","",""
"","","","","","html-button-response","86","326930","0.0-64.0-1.0","74D5EA9BEE624FD0A1A35C21B5D11E12","019db60b-5484-7616-8749-6cbcf476fc0f","019db609-2a35-76b9-807a-e0c4c153f4bb","","675","
                            <div style=""font-family: Arial; margin-bottom: 20px;""><h3>Which image is worth <b>more money</b>?</h3></div>
                            <div class=""stimulus-container"" style=""display: flex; width: 800px; justify-content: center; gap: 30px;"">
                                <img src=""images/semantic_sequence/self_care_activities_semantic/self_care_activities_semantic_4.png"" class=""small-image"">
                                <img src=""images/semantic_sequence/self_care_activities_semantic/self_care_activities_semantic_ten.png"" class=""small-image"">
                            </div>","1","part3_choice_neighbors","self_care_activities_semantic","semantic_sequence","","","3","7","10","1",""
"","","","","","html-keyboard-response","87","329943","0.0-65.0-0.0","74D5EA9BEE624FD0A1A35C21B5D11E12","019db60b-5484-7616-8749-6cbcf476fc0f","019db609-2a35-76b9-807a-e0c4c153f4bb","","null","<div style=""font-family: Arial; margin-bottom: 20px;""><h3>Which image is worth <b>more money?</h3></div>
                            <div class=""stimulus-container"" style=""display: flex; width: 800px; justify-content: center; gap: 30px;"">
                                <img src=""images/schematic_sequence/interview_scheme/interview_scheme_5.png"" class=""small-image"">
                                <img src=""images/schematic_sequence/dinner_party_scheme/dinner_party_scheme_7.png"" class=""small-image"">
                            </div>","null","","","","","","","","","",""
"","","","","","html-button-response","88","330543","0.0-65.0-1.0","74D5EA9BEE624FD0A1A35C21B5D11E12","019db60b-5484-7616-8749-6cbcf476fc0f","019db609-2a35-76b9-807a-e0c4c153f4bb","","600","<div style=""font-family: Arial; margin-bottom: 20px;""><h3>Which image is worth <b>more money</b>?</h3></div>
                            <div class=""stimulus-container"" style=""display: flex; width: 800px; justify-content: center; gap: 30px;"">
                                <img src=""images/schematic_sequence/interview_scheme/interview_scheme_5.png"" class=""small-image"">
                                <img src=""images/schematic_sequence/dinner_party_scheme/dinner_party_scheme_7.png"" class=""small-image"">
                            </div>","0","part3_valuable_vs_neutral_direct","","","","","","","","","true"
"","","","","","html-keyboard-response","89","333556","0.0-66.0-0.0","74D5EA9BEE624FD0A1A35C21B5D11E12","019db60b-5484-7616-8749-6cbcf476fc0f","019db609-2a35-76b9-807a-e0c4c153f4bb","","null","
                            <div style=""font-family: Arial; margin-bottom: 20px;""><h3>Which image is worth <b>more money</b>?</h3></div>
                            <div class=""stimulus-container"" style=""display: flex; width: 800px; justify-content: center; gap: 30px;"">
                                <img src=""images/schematic_sequence/dinner_party_scheme/dinner_party_scheme_8.png"" class=""small-image"">
                                <img src=""images/schematic_sequence/dinner_party_scheme/dinner_party_scheme_6.png"" class=""small-image"">
                            </div>","null","","","","","","","","","",""
"","","","","","html-button-response","90","334081","0.0-66.0-1.0","74D5EA9BEE624FD0A1A35C21B5D11E12","019db60b-5484-7616-8749-6cbcf476fc0f","019db609-2a35-76b9-807a-e0c4c153f4bb","","525","
                            <div style=""font-family: Arial; margin-bottom: 20px;""><h3>Which image is worth <b>more money</b>?</h3></div>
                            <div class=""stimulus-container"" style=""display: flex; width: 800px; justify-content: center; gap: 30px;"">
                                <img src=""images/schematic_sequence/dinner_party_scheme/dinner_party_scheme_8.png"" class=""small-image"">
                                <img src=""images/schematic_sequence/dinner_party_scheme/dinner_party_scheme_6.png"" class=""small-image"">
                            </div>","0","part3_choice_neighbors","dinner_party_scheme","schematic_sequence","","","1","7","8","1",""
"","","","","","html-keyboard-response","91","337092","0.0-67.0-0.0","74D5EA9BEE624FD0A1A35C21B5D11E12","019db60b-5484-7616-8749-6cbcf476fc0f","019db609-2a35-76b9-807a-e0c4c153f4bb","","null","
                            <div style=""font-family: Arial; margin-bottom: 20px;""><h3>Which image is worth <b>more money</b>?</h3></div>
                            <div class=""stimulus-container"" style=""display: flex; width: 800px; justify-content: center; gap: 30px;"">
                                <img src=""images/semantic_sequence/physical_activity_semantic/physical_activity_semantic_7.png"" class=""small-image"">
                                <img src=""images/semantic_sequence/physical_activity_semantic/physical_activity_semantic_1.png"" class=""small-image"">
                            </div>","null","","","","","","","","","",""
"","","","","","html-button-response","92","337617","0.0-67.0-1.0","74D5EA9BEE624FD0A1A35C21B5D11E12","019db60b-5484-7616-8749-6cbcf476fc0f","019db609-2a35-76b9-807a-e0c4c153f4bb","","525","
                            <div style=""font-family: Arial; margin-bottom: 20px;""><h3>Which image is worth <b>more money</b>?</h3></div>
                            <div class=""stimulus-container"" style=""display: flex; width: 800px; justify-content: center; gap: 30px;"">
                                <img src=""images/semantic_sequence/physical_activity_semantic/physical_activity_semantic_7.png"" class=""small-image"">
                                <img src=""images/semantic_sequence/physical_activity_semantic/physical_activity_semantic_1.png"" class=""small-image"">
                            </div>","1","part3_choice_neighbors","physical_activity_semantic","semantic_sequence","","","3","4","1","0",""
"","","","","","html-keyboard-response","93","340628","0.0-68.0-0.0","74D5EA9BEE624FD0A1A35C21B5D11E12","019db60b-5484-7616-8749-6cbcf476fc0f","019db609-2a35-76b9-807a-e0c4c153f4bb","","null","
                            <div style=""font-family: Arial; margin-bottom: 20px;""><h3>Which image is worth <b>more money</b>?</h3></div>
                            <div class=""stimulus-container"" style=""display: flex; width: 800px; justify-content: center; gap: 30px;"">
                                <img src=""images/schematic_sequence/flight_scheme/flight_scheme_7.png"" class=""small-image"">
                                <img src=""images/schematic_sequence/flight_scheme/flight_scheme_3.png"" class=""small-image"">
                            </div>","null","","","","","","","","","",""
"","","","","","html-button-response","94","341190","0.0-68.0-1.0","74D5EA9BEE624FD0A1A35C21B5D11E12","019db60b-5484-7616-8749-6cbcf476fc0f","019db609-2a35-76b9-807a-e0c4c153f4bb","","561","
                            <div style=""font-family: Arial; margin-bottom: 20px;""><h3>Which image is worth <b>more money</b>?</h3></div>
                            <div class=""stimulus-container"" style=""display: flex; width: 800px; justify-content: center; gap: 30px;"">
                                <img src=""images/schematic_sequence/flight_scheme/flight_scheme_7.png"" class=""small-image"">
                                <img src=""images/schematic_sequence/flight_scheme/flight_scheme_3.png"" class=""small-image"">
                            </div>","1","part3_choice_neighbors","flight_scheme","schematic_sequence","","","2","5","3","0",""
"","","","","","html-keyboard-response","95","344197","0.0-69.0-0.0","74D5EA9BEE624FD0A1A35C21B5D11E12","019db60b-5484-7616-8749-6cbcf476fc0f","019db609-2a35-76b9-807a-e0c4c153f4bb","","null","
                            <div style=""font-family: Arial; margin-bottom: 20px;""><h3>Which image is worth <b>more money</b>?</h3></div>
                            <div class=""stimulus-container"" style=""display: flex; width: 800px; justify-content: center; gap: 30px;"">
                                <img src=""images/semantic_sequence/self_care_activities_semantic/self_care_activities_semantic_6.png"" class=""small-image"">
                                <img src=""images/semantic_sequence/self_care_activities_semantic/self_care_activities_semantic_8.png"" class=""small-image"">
                            </div>","null","","","","","","","","","",""
"","","","","","html-button-response","96","344769","0.0-69.0-1.0","74D5EA9BEE624FD0A1A35C21B5D11E12","019db60b-5484-7616-8749-6cbcf476fc0f","019db609-2a35-76b9-807a-e0c4c153f4bb","","570","
                            <div style=""font-family: Arial; margin-bottom: 20px;""><h3>Which image is worth <b>more money</b>?</h3></div>
                            <div class=""stimulus-container"" style=""display: flex; width: 800px; justify-content: center; gap: 30px;"">
                                <img src=""images/semantic_sequence/self_care_activities_semantic/self_care_activities_semantic_6.png"" class=""small-image"">
                                <img src=""images/semantic_sequence/self_care_activities_semantic/self_care_activities_semantic_8.png"" class=""small-image"">
                            </div>","1","part3_choice_neighbors","self_care_activities_semantic","semantic_sequence","","","1","7","8","1",""
"","","","","","html-keyboard-response","97","347777","0.0-70.0-0.0","74D5EA9BEE624FD0A1A35C21B5D11E12","019db60b-5484-7616-8749-6cbcf476fc0f","019db609-2a35-76b9-807a-e0c4c153f4bb","","null","
                            <div style=""font-family: Arial; margin-bottom: 20px;""><h3>Which image is worth <b>more money</b>?</h3></div>
                            <div class=""stimulus-container"" style=""display: flex; width: 800px; justify-content: center; gap: 30px;"">
                                <img src=""images/schematic_sequence/restaurant_scheme/restaurant_scheme_1.png"" class=""small-image"">
                                <img src=""images/schematic_sequence/restaurant_scheme/restaurant_scheme_7.png"" class=""small-image"">
                            </div>","null","","","","","","","","","",""
"","","","","","html-button-response","98","348340","0.0-70.0-1.0","74D5EA9BEE624FD0A1A35C21B5D11E12","019db60b-5484-7616-8749-6cbcf476fc0f","019db609-2a35-76b9-807a-e0c4c153f4bb","","562","
                            <div style=""font-family: Arial; margin-bottom: 20px;""><h3>Which image is worth <b>more money</b>?</h3></div>
                            <div class=""stimulus-container"" style=""display: flex; width: 800px; justify-content: center; gap: 30px;"">
                                <img src=""images/schematic_sequence/restaurant_scheme/restaurant_scheme_1.png"" class=""small-image"">
                                <img src=""images/schematic_sequence/restaurant_scheme/restaurant_scheme_7.png"" class=""small-image"">
                            </div>","0","part3_choice_neighbors","restaurant_scheme","schematic_sequence","","","3","4","1","0",""
"","","","","","html-keyboard-response","99","351357","0.0-71.0-0.0","74D5EA9BEE624FD0A1A35C21B5D11E12","019db60b-5484-7616-8749-6cbcf476fc0f","019db609-2a35-76b9-807a-e0c4c153f4bb","","null","<div style=""font-family: Arial; margin-bottom: 20px;""><h3>Which image is worth <b>more money?</h3></div>
                            <div class=""stimulus-container"" style=""display: flex; width: 800px; justify-content: center; gap: 30px;"">
                                <img src=""images/schematic_sequence/supermarket_scheme/supermarket_scheme_4.png"" class=""small-image"">
                                <img src=""images/schematic_sequence/flight_scheme/flight_scheme_5.png"" class=""small-image"">
                            </div>","null","","","","","","","","","",""
"","","","","","html-button-response","100","352371","0.0-71.0-1.0","74D5EA9BEE624FD0A1A35C21B5D11E12","019db60b-5484-7616-8749-6cbcf476fc0f","019db609-2a35-76b9-807a-e0c4c153f4bb","","1014","<div style=""font-family: Arial; margin-bottom: 20px;""><h3>Which image is worth <b>more money</b>?</h3></div>
                            <div class=""stimulus-container"" style=""display: flex; width: 800px; justify-content: center; gap: 30px;"">
                                <img src=""images/schematic_sequence/supermarket_scheme/supermarket_scheme_4.png"" class=""small-image"">
                                <img src=""images/schematic_sequence/flight_scheme/flight_scheme_5.png"" class=""small-image"">
                            </div>","1","part3_valuable_vs_neutral_direct","","","","","","","","","true"
"","","","","","html-keyboard-response","101","355378","0.0-72.0-0.0","74D5EA9BEE624FD0A1A35C21B5D11E12","019db60b-5484-7616-8749-6cbcf476fc0f","019db609-2a35-76b9-807a-e0c4c153f4bb","","null","
                            <div style=""font-family: Arial; margin-bottom: 20px;""><h3>Which image is worth <b>more money</b>?</h3></div>
                            <div class=""stimulus-container"" style=""display: flex; width: 800px; justify-content: center; gap: 30px;"">
                                <img src=""images/schematic_sequence/interview_scheme/interview_scheme_4.png"" class=""small-image"">
                                <img src=""images/schematic_sequence/interview_scheme/interview_scheme_6.png"" class=""small-image"">
                            </div>","null","","","","","","","","","",""
"","","","","","html-button-response","102","355884","0.0-72.0-1.0","74D5EA9BEE624FD0A1A35C21B5D11E12","019db60b-5484-7616-8749-6cbcf476fc0f","019db609-2a35-76b9-807a-e0c4c153f4bb","","506","
                            <div style=""font-family: Arial; margin-bottom: 20px;""><h3>Which image is worth <b>more money</b>?</h3></div>
                            <div class=""stimulus-container"" style=""display: flex; width: 800px; justify-content: center; gap: 30px;"">
                                <img src=""images/schematic_sequence/interview_scheme/interview_scheme_4.png"" class=""small-image"">
                                <img src=""images/schematic_sequence/interview_scheme/interview_scheme_6.png"" class=""small-image"">
                            </div>","1","part3_choice_neighbors","interview_scheme","schematic_sequence","","","1","5","6","1",""
"","","","","","html-keyboard-response","103","358896","0.0-73.0-0.0","74D5EA9BEE624FD0A1A35C21B5D11E12","019db60b-5484-7616-8749-6cbcf476fc0f","019db609-2a35-76b9-807a-e0c4c153f4bb","","null","<div style=""font-family: Arial; margin-bottom: 20px;""><h3>Which image is worth <b>more money?</h3></div>
                            <div class=""stimulus-container"" style=""display: flex; width: 800px; justify-content: center; gap: 30px;"">
                                <img src=""images/semantic_sequence/self_care_activities_semantic/self_care_activities_semantic_7.png"" class=""small-image"">
                                <img src=""images/semantic_sequence/physical_activity_semantic/physical_activity_semantic_4.png"" class=""small-image"">
                            </div>","null","","","","","","","","","",""
"","","","","","html-button-response","104","359362","0.0-73.0-1.0","74D5EA9BEE624FD0A1A35C21B5D11E12","019db60b-5484-7616-8749-6cbcf476fc0f","019db609-2a35-76b9-807a-e0c4c153f4bb","","466","<div style=""font-family: Arial; margin-bottom: 20px;""><h3>Which image is worth <b>more money</b>?</h3></div>
                            <div class=""stimulus-container"" style=""display: flex; width: 800px; justify-content: center; gap: 30px;"">
                                <img src=""images/semantic_sequence/self_care_activities_semantic/self_care_activities_semantic_7.png"" class=""small-image"">
                                <img src=""images/semantic_sequence/physical_activity_semantic/physical_activity_semantic_4.png"" class=""small-image"">
                            </div>","0","part3_valuable_vs_neutral_direct","","","","","","","","","true"
"","","","","","html-keyboard-response","105","362365","0.0-74.0-0.0","74D5EA9BEE624FD0A1A35C21B5D11E12","019db60b-5484-7616-8749-6cbcf476fc0f","019db609-2a35-76b9-807a-e0c4c153f4bb","","null","
                            <div style=""font-family: Arial; margin-bottom: 20px;""><h3>Which image is worth <b>more money</b>?</h3></div>
                            <div class=""stimulus-container"" style=""display: flex; width: 800px; justify-content: center; gap: 30px;"">
                                <img src=""images/semantic_sequence/maintaining_a_car_semantic/maintaining_a_car_semantic_6.png"" class=""small-image"">
                                <img src=""images/semantic_sequence/maintaining_a_car_semantic/maintaining_a_car_semantic_2.png"" class=""small-image"">
                            </div>","null","","","","","","","","","",""
"","","","","","html-button-response","106","362875","0.0-74.0-1.0","74D5EA9BEE624FD0A1A35C21B5D11E12","019db60b-5484-7616-8749-6cbcf476fc0f","019db609-2a35-76b9-807a-e0c4c153f4bb","","510","
                            <div style=""font-family: Arial; margin-bottom: 20px;""><h3>Which image is worth <b>more money</b>?</h3></div>
                            <div class=""stimulus-container"" style=""display: flex; width: 800px; justify-content: center; gap: 30px;"">
                                <img src=""images/semantic_sequence/maintaining_a_car_semantic/maintaining_a_car_semantic_6.png"" class=""small-image"">
                                <img src=""images/semantic_sequence/maintaining_a_car_semantic/maintaining_a_car_semantic_2.png"" class=""small-image"">
                            </div>","0","part3_choice_neighbors","maintaining_a_car_semantic","semantic_sequence","","","2","4","6","1",""
"","","","","","html-keyboard-response","107","365892","0.0-75.0-0.0","74D5EA9BEE624FD0A1A35C21B5D11E12","019db60b-5484-7616-8749-6cbcf476fc0f","019db609-2a35-76b9-807a-e0c4c153f4bb","","null","
                            <div style=""font-family: Arial; margin-bottom: 20px;""><h3>Which image is worth <b>more money</b>?</h3></div>
                            <div class=""stimulus-container"" style=""display: flex; width: 800px; justify-content: center; gap: 30px;"">
                                <img src=""images/semantic_sequence/housework_semantic/housework_semantic_7.png"" class=""small-image"">
                                <img src=""images/semantic_sequence/housework_semantic/housework_semantic_3.png"" class=""small-image"">
                            </div>","null","","","","","","","","","",""
"","","","","","html-button-response","108","366314","0.0-75.0-1.0","74D5EA9BEE624FD0A1A35C21B5D11E12","019db60b-5484-7616-8749-6cbcf476fc0f","019db609-2a35-76b9-807a-e0c4c153f4bb","","421","
                            <div style=""font-family: Arial; margin-bottom: 20px;""><h3>Which image is worth <b>more money</b>?</h3></div>
                            <div class=""stimulus-container"" style=""display: flex; width: 800px; justify-content: center; gap: 30px;"">
                                <img src=""images/semantic_sequence/housework_semantic/housework_semantic_7.png"" class=""small-image"">
                                <img src=""images/semantic_sequence/housework_semantic/housework_semantic_3.png"" class=""small-image"">
                            </div>","1","part3_choice_neighbors","housework_semantic","semantic_sequence","","","2","5","3","0",""
"","","","","","html-keyboard-response","109","369315","0.0-76.0-0.0","74D5EA9BEE624FD0A1A35C21B5D11E12","019db60b-5484-7616-8749-6cbcf476fc0f","019db609-2a35-76b9-807a-e0c4c153f4bb","","null","<div style=""font-family: Arial; margin-bottom: 20px;""><h3>Which image is worth <b>more money?</h3></div>
                            <div class=""stimulus-container"" style=""display: flex; width: 800px; justify-content: center; gap: 30px;"">
                                <img src=""images/semantic_sequence/housework_semantic/housework_semantic_5.png"" class=""small-image"">
                                <img src=""images/schematic_sequence/restaurant_scheme/restaurant_scheme_4.png"" class=""small-image"">
                            </div>","null","","","","","","","","","",""
"","","","","","html-button-response","110","369848","0.0-76.0-1.0","74D5EA9BEE624FD0A1A35C21B5D11E12","019db60b-5484-7616-8749-6cbcf476fc0f","019db609-2a35-76b9-807a-e0c4c153f4bb","","532","<div style=""font-family: Arial; margin-bottom: 20px;""><h3>Which image is worth <b>more money</b>?</h3></div>
                            <div class=""stimulus-container"" style=""display: flex; width: 800px; justify-content: center; gap: 30px;"">
                                <img src=""images/semantic_sequence/housework_semantic/housework_semantic_5.png"" class=""small-image"">
                                <img src=""images/schematic_sequence/restaurant_scheme/restaurant_scheme_4.png"" class=""small-image"">
                            </div>","0","part3_valuable_vs_neutral_direct","","","","","","","","","false"
"","","","","","html-keyboard-response","111","372857","0.0-77.0-0.0","74D5EA9BEE624FD0A1A35C21B5D11E12","019db60b-5484-7616-8749-6cbcf476fc0f","019db609-2a35-76b9-807a-e0c4c153f4bb","","null","
                            <div style=""font-family: Arial; margin-bottom: 20px;""><h3>Which image is worth <b>more money</b>?</h3></div>
                            <div class=""stimulus-container"" style=""display: flex; width: 800px; justify-content: center; gap: 30px;"">
                                <img src=""images/schematic_sequence/supermarket_scheme/supermarket_scheme_1.png"" class=""small-image"">
                                <img src=""images/schematic_sequence/supermarket_scheme/supermarket_scheme_7.png"" class=""small-image"">
                            </div>","null","","","","","","","","","",""
"","","","","","html-button-response","112","373313","0.0-77.0-1.0","74D5EA9BEE624FD0A1A35C21B5D11E12","019db60b-5484-7616-8749-6cbcf476fc0f","019db609-2a35-76b9-807a-e0c4c153f4bb","","455","
                            <div style=""font-family: Arial; margin-bottom: 20px;""><h3>Which image is worth <b>more money</b>?</h3></div>
                            <div class=""stimulus-container"" style=""display: flex; width: 800px; justify-content: center; gap: 30px;"">
                                <img src=""images/schematic_sequence/supermarket_scheme/supermarket_scheme_1.png"" class=""small-image"">
                                <img src=""images/schematic_sequence/supermarket_scheme/supermarket_scheme_7.png"" class=""small-image"">
                            </div>","1","part3_choice_neighbors","supermarket_scheme","schematic_sequence","","","3","4","7","1",""
"","","","","","html-keyboard-response","113","376315","0.0-78.0-0.0","74D5EA9BEE624FD0A1A35C21B5D11E12","019db60b-5484-7616-8749-6cbcf476fc0f","019db609-2a35-76b9-807a-e0c4c153f4bb","","null","
                            <div style=""font-family: Arial; margin-bottom: 20px;""><h3>Which image is worth <b>more money</b>?</h3></div>
                            <div class=""stimulus-container"" style=""display: flex; width: 800px; justify-content: center; gap: 30px;"">
                                <img src=""images/schematic_sequence/supermarket_scheme/supermarket_scheme_3.png"" class=""small-image"">
                                <img src=""images/schematic_sequence/supermarket_scheme/supermarket_scheme_5.png"" class=""small-image"">
                            </div>","null","","","","","","","","","",""
"","","","","","html-button-response","114","376906","0.0-78.0-1.0","74D5EA9BEE624FD0A1A35C21B5D11E12","019db60b-5484-7616-8749-6cbcf476fc0f","019db609-2a35-76b9-807a-e0c4c153f4bb","","590","
                            <div style=""font-family: Arial; margin-bottom: 20px;""><h3>Which image is worth <b>more money</b>?</h3></div>
                            <div class=""stimulus-container"" style=""display: flex; width: 800px; justify-content: center; gap: 30px;"">
                                <img src=""images/schematic_sequence/supermarket_scheme/supermarket_scheme_3.png"" class=""small-image"">
                                <img src=""images/schematic_sequence/supermarket_scheme/supermarket_scheme_5.png"" class=""small-image"">
                            </div>","1","part3_choice_neighbors","supermarket_scheme","schematic_sequence","","","1","4","5","1",""
"","","","","","html-keyboard-response","115","379919","0.0-79.0-0.0","74D5EA9BEE624FD0A1A35C21B5D11E12","019db60b-5484-7616-8749-6cbcf476fc0f","019db609-2a35-76b9-807a-e0c4c153f4bb","","null","
                            <div style=""font-family: Arial; margin-bottom: 20px;""><h3>Which image is worth <b>more money</b>?</h3></div>
                            <div class=""stimulus-container"" style=""display: flex; width: 800px; justify-content: center; gap: 30px;"">
                                <img src=""images/schematic_sequence/supermarket_scheme/supermarket_scheme_2.png"" class=""small-image"">
                                <img src=""images/schematic_sequence/supermarket_scheme/supermarket_scheme_6.png"" class=""small-image"">
                            </div>","null","","","","","","","","","",""
"","","","","","html-button-response","116","380365","0.0-79.0-1.0","74D5EA9BEE624FD0A1A35C21B5D11E12","019db60b-5484-7616-8749-6cbcf476fc0f","019db609-2a35-76b9-807a-e0c4c153f4bb","","445","
                            <div style=""font-family: Arial; margin-bottom: 20px;""><h3>Which image is worth <b>more money</b>?</h3></div>
                            <div class=""stimulus-container"" style=""display: flex; width: 800px; justify-content: center; gap: 30px;"">
                                <img src=""images/schematic_sequence/supermarket_scheme/supermarket_scheme_2.png"" class=""small-image"">
                                <img src=""images/schematic_sequence/supermarket_scheme/supermarket_scheme_6.png"" class=""small-image"">
                            </div>","1","part3_choice_neighbors","supermarket_scheme","schematic_sequence","","","2","4","6","1",""
"","","","","","html-keyboard-response","117","383378","0.0-80.0-0.0","74D5EA9BEE624FD0A1A35C21B5D11E12","019db60b-5484-7616-8749-6cbcf476fc0f","019db609-2a35-76b9-807a-e0c4c153f4bb","","null","
                            <div style=""font-family: Arial; margin-bottom: 20px;""><h3>Which image is worth <b>more money</b>?</h3></div>
                            <div class=""stimulus-container"" style=""display: flex; width: 800px; justify-content: center; gap: 30px;"">
                                <img src=""images/semantic_sequence/visiting_cities_semantic/visiting_cities_semantic_6.png"" class=""small-image"">
                                <img src=""images/semantic_sequence/visiting_cities_semantic/visiting_cities_semantic_2.png"" class=""small-image"">
                            </div>","null","","","","","","","","","",""
"","","","","","html-button-response","118","383842","0.0-80.0-1.0","74D5EA9BEE624FD0A1A35C21B5D11E12","019db60b-5484-7616-8749-6cbcf476fc0f","019db609-2a35-76b9-807a-e0c4c153f4bb","","463","
                            <div style=""font-family: Arial; margin-bottom: 20px;""><h3>Which image is worth <b>more money</b>?</h3></div>
                            <div class=""stimulus-container"" style=""display: flex; width: 800px; justify-content: center; gap: 30px;"">
                                <img src=""images/semantic_sequence/visiting_cities_semantic/visiting_cities_semantic_6.png"" class=""small-image"">
                                <img src=""images/semantic_sequence/visiting_cities_semantic/visiting_cities_semantic_2.png"" class=""small-image"">
                            </div>","0","part3_choice_neighbors","visiting_cities_semantic","semantic_sequence","","","2","4","6","1",""
"","","","","","html-keyboard-response","119","386843","0.0-81.0-0.0","74D5EA9BEE624FD0A1A35C21B5D11E12","019db60b-5484-7616-8749-6cbcf476fc0f","019db609-2a35-76b9-807a-e0c4c153f4bb","","null","
                            <div style=""font-family: Arial; margin-bottom: 20px;""><h3>Which image is worth <b>more money</b>?</h3></div>
                            <div class=""stimulus-container"" style=""display: flex; width: 800px; justify-content: center; gap: 30px;"">
                                <img src=""images/schematic_sequence/flight_scheme/flight_scheme_6.png"" class=""small-image"">
                                <img src=""images/schematic_sequence/flight_scheme/flight_scheme_4.png"" class=""small-image"">
                            </div>","null","","","","","","","","","",""
"","","","","","html-button-response","120","387331","0.0-81.0-1.0","74D5EA9BEE624FD0A1A35C21B5D11E12","019db60b-5484-7616-8749-6cbcf476fc0f","019db609-2a35-76b9-807a-e0c4c153f4bb","","487","
                            <div style=""font-family: Arial; margin-bottom: 20px;""><h3>Which image is worth <b>more money</b>?</h3></div>
                            <div class=""stimulus-container"" style=""display: flex; width: 800px; justify-content: center; gap: 30px;"">
                                <img src=""images/schematic_sequence/flight_scheme/flight_scheme_6.png"" class=""small-image"">
                                <img src=""images/schematic_sequence/flight_scheme/flight_scheme_4.png"" class=""small-image"">
                            </div>","0","part3_choice_neighbors","flight_scheme","schematic_sequence","","","1","5","6","1",""
"","","","","","html-keyboard-response","121","390346","0.0-82.0-0.0","74D5EA9BEE624FD0A1A35C21B5D11E12","019db60b-5484-7616-8749-6cbcf476fc0f","019db609-2a35-76b9-807a-e0c4c153f4bb","","null","<div style=""font-family: Arial; margin-bottom: 20px;""><h3>Which image is worth <b>more money?</h3></div>
                            <div class=""stimulus-container"" style=""display: flex; width: 800px; justify-content: center; gap: 30px;"">
                                <img src=""images/semantic_sequence/kitchen_operations_semantic/kitchen_operations_semantic_6.png"" class=""small-image"">
                                <img src=""images/schematic_sequence/hotel_scheme/hotel_scheme_4.png"" class=""small-image"">
                            </div>","null","","","","","","","","","",""
"","","","","","html-button-response","122","390787","0.0-82.0-1.0","74D5EA9BEE624FD0A1A35C21B5D11E12","019db60b-5484-7616-8749-6cbcf476fc0f","019db609-2a35-76b9-807a-e0c4c153f4bb","","441","<div style=""font-family: Arial; margin-bottom: 20px;""><h3>Which image is worth <b>more money</b>?</h3></div>
                            <div class=""stimulus-container"" style=""display: flex; width: 800px; justify-content: center; gap: 30px;"">
                                <img src=""images/semantic_sequence/kitchen_operations_semantic/kitchen_operations_semantic_6.png"" class=""small-image"">
                                <img src=""images/schematic_sequence/hotel_scheme/hotel_scheme_4.png"" class=""small-image"">
                            </div>","1","part3_valuable_vs_neutral_direct","","","","","","","","","false"
"","","","","","html-keyboard-response","123","393789","0.0-83.0-0.0","74D5EA9BEE624FD0A1A35C21B5D11E12","019db60b-5484-7616-8749-6cbcf476fc0f","019db609-2a35-76b9-807a-e0c4c153f4bb","","null","
                            <div style=""font-family: Arial; margin-bottom: 20px;""><h3>Which image is worth <b>more money</b>?</h3></div>
                            <div class=""stimulus-container"" style=""display: flex; width: 800px; justify-content: center; gap: 30px;"">
                                <img src=""images/schematic_sequence/restaurant_scheme/restaurant_scheme_6.png"" class=""small-image"">
                                <img src=""images/schematic_sequence/restaurant_scheme/restaurant_scheme_2.png"" class=""small-image"">
                            </div>","null","","","","","","","","","",""
"","","","","","html-button-response","124","394319","0.0-83.0-1.0","74D5EA9BEE624FD0A1A35C21B5D11E12","019db60b-5484-7616-8749-6cbcf476fc0f","019db609-2a35-76b9-807a-e0c4c153f4bb","","530","
                            <div style=""font-family: Arial; margin-bottom: 20px;""><h3>Which image is worth <b>more money</b>?</h3></div>
                            <div class=""stimulus-container"" style=""display: flex; width: 800px; justify-content: center; gap: 30px;"">
                                <img src=""images/schematic_sequence/restaurant_scheme/restaurant_scheme_6.png"" class=""small-image"">
                                <img src=""images/schematic_sequence/restaurant_scheme/restaurant_scheme_2.png"" class=""small-image"">
                            </div>","1","part3_choice_neighbors","restaurant_scheme","schematic_sequence","","","2","4","2","0",""
"","","","","","html-keyboard-response","125","397327","0.0-84.0-0.0","74D5EA9BEE624FD0A1A35C21B5D11E12","019db60b-5484-7616-8749-6cbcf476fc0f","019db609-2a35-76b9-807a-e0c4c153f4bb","","null","
                            <div style=""font-family: Arial; margin-bottom: 20px;""><h3>Which image is worth <b>more money</b>?</h3></div>
                            <div class=""stimulus-container"" style=""display: flex; width: 800px; justify-content: center; gap: 30px;"">
                                <img src=""images/schematic_sequence/restaurant_scheme/restaurant_scheme_3.png"" class=""small-image"">
                                <img src=""images/schematic_sequence/restaurant_scheme/restaurant_scheme_5.png"" class=""small-image"">
                            </div>","null","","","","","","","","","",""
"","","","","","html-button-response","126","397857","0.0-84.0-1.0","74D5EA9BEE624FD0A1A35C21B5D11E12","019db60b-5484-7616-8749-6cbcf476fc0f","019db609-2a35-76b9-807a-e0c4c153f4bb","","529","
                            <div style=""font-family: Arial; margin-bottom: 20px;""><h3>Which image is worth <b>more money</b>?</h3></div>
                            <div class=""stimulus-container"" style=""display: flex; width: 800px; justify-content: center; gap: 30px;"">
                                <img src=""images/schematic_sequence/restaurant_scheme/restaurant_scheme_3.png"" class=""small-image"">
                                <img src=""images/schematic_sequence/restaurant_scheme/restaurant_scheme_5.png"" class=""small-image"">
                            </div>","0","part3_choice_neighbors","restaurant_scheme","schematic_sequence","","","1","4","3","0",""
"","","","","","survey-text","127","447330","0.0-85.0","74D5EA9BEE624FD0A1A35C21B5D11E12","019db60b-5484-7616-8749-6cbcf476fc0f","019db609-2a35-76b9-807a-e0c4c153f4bb","","49469","","{""gender"":""FEMALE"",""age"":""36"",""decision_strategy"":""instinct and previous images"",""consistency_check"":""I tried to but it was difficult""}","demographics_and_strategy","","","","","","","","",""
"","","","","","instructions","128","460849","0.0-86.0","74D5EA9BEE624FD0A1A35C21B5D11E12","019db60b-5484-7616-8749-6cbcf476fc0f","019db609-2a35-76b9-807a-e0c4c153f4bb","[{""page_index"":0,""viewing_time"":13518}]","13519","","","","","","","","","","","",""
