"success","timeout","failed_images","failed_audio","failed_video","trial_type","trial_index","time_elapsed","internal_node_id","subject_id","study_id","session_id","view_history","rt","stimulus","response","task","image_index","folder","sequence_type","valuable_image_index","reward_type","correct_choice","chosen_image_index","target_X"
"true","false","[]","[]","[]","preload","0","2373","0.0-0.0","E2B18FF9668D4D87A34FE08376526A54","019cf819-3645-7b27-9ad8-a2e53873bf5d","019cf80d-4266-7117-8a51-54e13c84aca4","","","","","","","","","","","","",""
"","","","","","instructions","1","3592","0.0-1.0","E2B18FF9668D4D87A34FE08376526A54","019cf819-3645-7b27-9ad8-a2e53873bf5d","019cf80d-4266-7117-8a51-54e13c84aca4","[{""page_index"":0,""viewing_time"":1218}]","1219","","","","","","","","","","",""
"","","","","","instructions","2","6355","0.0-2.0","E2B18FF9668D4D87A34FE08376526A54","019cf819-3645-7b27-9ad8-a2e53873bf5d","019cf80d-4266-7117-8a51-54e13c84aca4","[{""page_index"":0,""viewing_time"":2762}]","2762","","","","","","","","","","",""
"true","","","","","fullscreen","3","9798","0.0-3.0","E2B18FF9668D4D87A34FE08376526A54","019cf819-3645-7b27-9ad8-a2e53873bf5d","019cf80d-4266-7117-8a51-54e13c84aca4","","2431","","","","","","","","","","",""
"","","","","","instructions","4","21554","0.0-4.0","E2B18FF9668D4D87A34FE08376526A54","019cf819-3645-7b27-9ad8-a2e53873bf5d","019cf80d-4266-7117-8a51-54e13c84aca4","[{""page_index"":0,""viewing_time"":11755}]","11755","","","","","","","","","","",""
"","","","","","instructions","5","77515","0.0-5.0","E2B18FF9668D4D87A34FE08376526A54","019cf819-3645-7b27-9ad8-a2e53873bf5d","019cf80d-4266-7117-8a51-54e13c84aca4","[{""page_index"":0,""viewing_time"":55961}]","55961","","","","","","","","","","",""
"","","","","","html-keyboard-response","6","81518","0.0-6.0","E2B18FF9668D4D87A34FE08376526A54","019cf819-3645-7b27-9ad8-a2e53873bf5d","019cf80d-4266-7117-8a51-54e13c84aca4","","null","
                <div class=""stimulus-container"">
                    <img src=""images/instructions/movie_1.png"" class=""exp-image"">
                    <div class=""question-area""></div> 
                </div>","null","","","","","","","","",""
"","","","","","html-button-response","7","84386","0.0-7.0","E2B18FF9668D4D87A34FE08376526A54","019cf819-3645-7b27-9ad8-a2e53873bf5d","019cf80d-4266-7117-8a51-54e13c84aca4","","2867","
                <div class=""stimulus-container"">
                    <img src=""images/instructions/movie_1.png"" class=""exp-image"">
                    <div class=""question-area"">
                        <p style=""font-size: 20px; font-weight: bold; margin: 0;"">Was there a person in this image?</p>
                    </div>
                </div>","0","example_question","1","","","","","","",""
"","","","","","html-keyboard-response","8","88393","0.0-8.0","E2B18FF9668D4D87A34FE08376526A54","019cf819-3645-7b27-9ad8-a2e53873bf5d","019cf80d-4266-7117-8a51-54e13c84aca4","","null","
                <div class=""stimulus-container"">
                    <img src=""images/instructions/movie_2.png"" class=""exp-image"">
                    <div class=""question-area""></div> 
                </div>","null","","","","","","","","",""
"","","","","","html-button-response","9","89146","0.0-9.0","E2B18FF9668D4D87A34FE08376526A54","019cf819-3645-7b27-9ad8-a2e53873bf5d","019cf80d-4266-7117-8a51-54e13c84aca4","","751","
                <div class=""stimulus-container"">
                    <img src=""images/instructions/movie_2.png"" class=""exp-image"">
                    <div class=""question-area"">
                        <p style=""font-size: 20px; font-weight: bold; margin: 0;"">Was there a person in this image?</p>
                    </div>
                </div>","1","example_question","2","","","","","","",""
"","","","","","html-keyboard-response","10","93154","0.0-10.0","E2B18FF9668D4D87A34FE08376526A54","019cf819-3645-7b27-9ad8-a2e53873bf5d","019cf80d-4266-7117-8a51-54e13c84aca4","","null","
                <div class=""stimulus-container"">
                    <img src=""images/instructions/movie_3.png"" class=""exp-image"">
                    <div class=""question-area""></div> 
                </div>","null","","","","","","","","",""
"","","","","","html-button-response","11","93686","0.0-11.0","E2B18FF9668D4D87A34FE08376526A54","019cf819-3645-7b27-9ad8-a2e53873bf5d","019cf80d-4266-7117-8a51-54e13c84aca4","","531","
                <div class=""stimulus-container"">
                    <img src=""images/instructions/movie_3.png"" class=""exp-image"">
                    <div class=""question-area"">
                        <p style=""font-size: 20px; font-weight: bold; margin: 0;"">Was there a person in this image?</p>
                    </div>
                </div>","0","example_question","3","","","","","","",""
"","","","","","html-keyboard-response","12","97696","0.0-12.0","E2B18FF9668D4D87A34FE08376526A54","019cf819-3645-7b27-9ad8-a2e53873bf5d","019cf80d-4266-7117-8a51-54e13c84aca4","","null","
                <div class=""stimulus-container"">
                    <img src=""images/instructions/movie_4.png"" class=""exp-image"">
                    <div class=""question-area""></div> 
                </div>","null","","","","","","","","",""
"","","","","","html-button-response","13","98134","0.0-13.0","E2B18FF9668D4D87A34FE08376526A54","019cf819-3645-7b27-9ad8-a2e53873bf5d","019cf80d-4266-7117-8a51-54e13c84aca4","","437","
                <div class=""stimulus-container"">
                    <img src=""images/instructions/movie_4.png"" class=""exp-image"">
                    <div class=""question-area"">
                        <p style=""font-size: 20px; font-weight: bold; margin: 0;"">Was there a person in this image?</p>
                    </div>
                </div>","0","example_question","4","","","","","","",""
"","","","","","instructions","14","99634","0.0-14.0","E2B18FF9668D4D87A34FE08376526A54","019cf819-3645-7b27-9ad8-a2e53873bf5d","019cf80d-4266-7117-8a51-54e13c84aca4","[{""page_index"":0,""viewing_time"":1500}]","1500","","","","","","","","","","",""
"","","","","","instructions","15","120612","0.0-15.0","E2B18FF9668D4D87A34FE08376526A54","019cf819-3645-7b27-9ad8-a2e53873bf5d","019cf80d-4266-7117-8a51-54e13c84aca4","[{""page_index"":0,""viewing_time"":20978}]","20978","","","","","","","","","","",""
"","","","","","html-keyboard-response","16","121623","0.0-16.0","E2B18FF9668D4D87A34FE08376526A54","019cf819-3645-7b27-9ad8-a2e53873bf5d","019cf80d-4266-7117-8a51-54e13c84aca4","","null","<div style=""background-color: white; width: 100vw; height: 100vh;""></div>","null","","","","","","","","",""
"","","","","","html-keyboard-response","17","126634","0.0-17.0","E2B18FF9668D4D87A34FE08376526A54","019cf819-3645-7b27-9ad8-a2e53873bf5d","019cf80d-4266-7117-8a51-54e13c84aca4","","null","
                <div class=""stimulus-container"">
                    <img src=""images/semantic_sequence/redecorating_a_house_semantic/redecorating_a_house_semantic_1.png"" class=""exp-image"">
                    <div class=""question-area""></div> 
                </div>","null","","","","","","","","",""
"","","","","","html-button-response","18","127526","0.0-18.0","E2B18FF9668D4D87A34FE08376526A54","019cf819-3645-7b27-9ad8-a2e53873bf5d","019cf80d-4266-7117-8a51-54e13c84aca4","","892","
                <div class=""stimulus-container"">
                    <img src=""images/semantic_sequence/redecorating_a_house_semantic/redecorating_a_house_semantic_1.png"" class=""exp-image"">
                    <div class=""question-area"">
                        <p style=""font-size: 20px; font-weight: bold; margin: 0;"">Is there a person in this image?</p>
                    </div>
                </div>","0","main_experiment_trial","1","redecorating_a_house_semantic","semantic_sequence","","","","",""
"","","","","","html-keyboard-response","19","132536","0.0-19.0","E2B18FF9668D4D87A34FE08376526A54","019cf819-3645-7b27-9ad8-a2e53873bf5d","019cf80d-4266-7117-8a51-54e13c84aca4","","null","
                <div class=""stimulus-container"">
                    <img src=""images/semantic_sequence/redecorating_a_house_semantic/redecorating_a_house_semantic_2.png"" class=""exp-image"">
                    <div class=""question-area""></div> 
                </div>","null","","","","","","","","",""
"","","","","","html-button-response","20","132909","0.0-20.0","E2B18FF9668D4D87A34FE08376526A54","019cf819-3645-7b27-9ad8-a2e53873bf5d","019cf80d-4266-7117-8a51-54e13c84aca4","","372","
                <div class=""stimulus-container"">
                    <img src=""images/semantic_sequence/redecorating_a_house_semantic/redecorating_a_house_semantic_2.png"" class=""exp-image"">
                    <div class=""question-area"">
                        <p style=""font-size: 20px; font-weight: bold; margin: 0;"">Is there a person in this image?</p>
                    </div>
                </div>","0","main_experiment_trial","2","redecorating_a_house_semantic","semantic_sequence","","","","",""
"","","","","","html-keyboard-response","21","137923","0.0-21.0","E2B18FF9668D4D87A34FE08376526A54","019cf819-3645-7b27-9ad8-a2e53873bf5d","019cf80d-4266-7117-8a51-54e13c84aca4","","null","
                <div class=""stimulus-container"">
                    <img src=""images/semantic_sequence/redecorating_a_house_semantic/redecorating_a_house_semantic_3.png"" class=""exp-image"">
                    <div class=""question-area""></div> 
                </div>","null","","","","","","","","",""
"","","","","","html-button-response","22","138341","0.0-22.0","E2B18FF9668D4D87A34FE08376526A54","019cf819-3645-7b27-9ad8-a2e53873bf5d","019cf80d-4266-7117-8a51-54e13c84aca4","","418","
                <div class=""stimulus-container"">
                    <img src=""images/semantic_sequence/redecorating_a_house_semantic/redecorating_a_house_semantic_3.png"" class=""exp-image"">
                    <div class=""question-area"">
                        <p style=""font-size: 20px; font-weight: bold; margin: 0;"">Is there a person in this image?</p>
                    </div>
                </div>","0","main_experiment_trial","3","redecorating_a_house_semantic","semantic_sequence","","","","",""
"","","","","","html-keyboard-response","23","143345","0.0-23.0","E2B18FF9668D4D87A34FE08376526A54","019cf819-3645-7b27-9ad8-a2e53873bf5d","019cf80d-4266-7117-8a51-54e13c84aca4","","null","
                <div class=""stimulus-container"">
                    <img src=""images/semantic_sequence/redecorating_a_house_semantic/redecorating_a_house_semantic_4.png"" class=""exp-image"">
                    <div class=""question-area""></div> 
                </div>","null","","","","","","","","",""
"","","","","","html-button-response","24","143715","0.0-24.0","E2B18FF9668D4D87A34FE08376526A54","019cf819-3645-7b27-9ad8-a2e53873bf5d","019cf80d-4266-7117-8a51-54e13c84aca4","","370","
                <div class=""stimulus-container"">
                    <img src=""images/semantic_sequence/redecorating_a_house_semantic/redecorating_a_house_semantic_4.png"" class=""exp-image"">
                    <div class=""question-area"">
                        <p style=""font-size: 20px; font-weight: bold; margin: 0;"">Is there a person in this image?</p>
                    </div>
                </div>","0","main_experiment_trial","4","redecorating_a_house_semantic","semantic_sequence","","","","",""
"","","","","","html-keyboard-response","25","148719","0.0-25.0","E2B18FF9668D4D87A34FE08376526A54","019cf819-3645-7b27-9ad8-a2e53873bf5d","019cf80d-4266-7117-8a51-54e13c84aca4","","null","
                <div class=""stimulus-container"">
                    <img src=""images/semantic_sequence/redecorating_a_house_semantic/redecorating_a_house_semantic_5.png"" class=""exp-image"">
                    <div class=""question-area""></div> 
                </div>","null","","","","","","","","",""
"","","","","","html-button-response","26","149131","0.0-26.0","E2B18FF9668D4D87A34FE08376526A54","019cf819-3645-7b27-9ad8-a2e53873bf5d","019cf80d-4266-7117-8a51-54e13c84aca4","","411","
                <div class=""stimulus-container"">
                    <img src=""images/semantic_sequence/redecorating_a_house_semantic/redecorating_a_house_semantic_5.png"" class=""exp-image"">
                    <div class=""question-area"">
                        <p style=""font-size: 20px; font-weight: bold; margin: 0;"">Is there a person in this image?</p>
                    </div>
                </div>","0","main_experiment_trial","5","redecorating_a_house_semantic","semantic_sequence","","","","",""
"","","","","","html-keyboard-response","27","154145","0.0-27.0","E2B18FF9668D4D87A34FE08376526A54","019cf819-3645-7b27-9ad8-a2e53873bf5d","019cf80d-4266-7117-8a51-54e13c84aca4","","null","
                <div class=""stimulus-container"">
                    <img src=""images/semantic_sequence/redecorating_a_house_semantic/redecorating_a_house_semantic_6.png"" class=""exp-image"">
                    <div class=""question-area""></div> 
                </div>","null","","","","","","","","",""
"","","","","","html-button-response","28","154529","0.0-28.0","E2B18FF9668D4D87A34FE08376526A54","019cf819-3645-7b27-9ad8-a2e53873bf5d","019cf80d-4266-7117-8a51-54e13c84aca4","","383","
                <div class=""stimulus-container"">
                    <img src=""images/semantic_sequence/redecorating_a_house_semantic/redecorating_a_house_semantic_6.png"" class=""exp-image"">
                    <div class=""question-area"">
                        <p style=""font-size: 20px; font-weight: bold; margin: 0;"">Is there a person in this image?</p>
                    </div>
                </div>","0","main_experiment_trial","6","redecorating_a_house_semantic","semantic_sequence","","","","",""
"","","","","","html-keyboard-response","29","159546","0.0-29.0","E2B18FF9668D4D87A34FE08376526A54","019cf819-3645-7b27-9ad8-a2e53873bf5d","019cf80d-4266-7117-8a51-54e13c84aca4","","null","
                <div class=""stimulus-container"">
                    <img src=""images/semantic_sequence/redecorating_a_house_semantic/redecorating_a_house_semantic_7.png"" class=""exp-image"">
                    <div class=""question-area""></div> 
                </div>","null","","","","","","","","",""
"","","","","","html-button-response","30","159915","0.0-30.0","E2B18FF9668D4D87A34FE08376526A54","019cf819-3645-7b27-9ad8-a2e53873bf5d","019cf80d-4266-7117-8a51-54e13c84aca4","","369","
                <div class=""stimulus-container"">
                    <img src=""images/semantic_sequence/redecorating_a_house_semantic/redecorating_a_house_semantic_7.png"" class=""exp-image"">
                    <div class=""question-area"">
                        <p style=""font-size: 20px; font-weight: bold; margin: 0;"">Is there a person in this image?</p>
                    </div>
                </div>","0","main_experiment_trial","7","redecorating_a_house_semantic","semantic_sequence","","","","",""
"","","","","","html-keyboard-response","31","164919","0.0-31.0","E2B18FF9668D4D87A34FE08376526A54","019cf819-3645-7b27-9ad8-a2e53873bf5d","019cf80d-4266-7117-8a51-54e13c84aca4","","null","
                <div class=""stimulus-container"">
                    <img src=""images/semantic_sequence/redecorating_a_house_semantic/redecorating_a_house_semantic_8.png"" class=""exp-image"">
                    <div class=""question-area""></div> 
                </div>","null","","","","","","","","",""
"","","","","","html-button-response","32","166941","0.0-32.0","E2B18FF9668D4D87A34FE08376526A54","019cf819-3645-7b27-9ad8-a2e53873bf5d","019cf80d-4266-7117-8a51-54e13c84aca4","","2022","
                <div class=""stimulus-container"">
                    <img src=""images/semantic_sequence/redecorating_a_house_semantic/redecorating_a_house_semantic_8.png"" class=""exp-image"">
                    <div class=""question-area"">
                        <p style=""font-size: 20px; font-weight: bold; margin: 0;"">Is there a person in this image?</p>
                    </div>
                </div>","0","main_experiment_trial","8","redecorating_a_house_semantic","semantic_sequence","","","","",""
"","","","","","html-keyboard-response","33","171951","0.0-33.0","E2B18FF9668D4D87A34FE08376526A54","019cf819-3645-7b27-9ad8-a2e53873bf5d","019cf80d-4266-7117-8a51-54e13c84aca4","","null","
                <div class=""stimulus-container"">
                    <img src=""images/semantic_sequence/redecorating_a_house_semantic/redecorating_a_house_semantic_9.png"" class=""exp-image"">
                    <div class=""question-area""></div> 
                </div>","null","","","","","","","","",""
"","","","","","html-button-response","34","172694","0.0-34.0","E2B18FF9668D4D87A34FE08376526A54","019cf819-3645-7b27-9ad8-a2e53873bf5d","019cf80d-4266-7117-8a51-54e13c84aca4","","742","
                <div class=""stimulus-container"">
                    <img src=""images/semantic_sequence/redecorating_a_house_semantic/redecorating_a_house_semantic_9.png"" class=""exp-image"">
                    <div class=""question-area"">
                        <p style=""font-size: 20px; font-weight: bold; margin: 0;"">Is there a person in this image?</p>
                    </div>
                </div>","0","main_experiment_trial","9","redecorating_a_house_semantic","semantic_sequence","","","","",""
"","","","","","html-keyboard-response","35","177706","0.0-35.0","E2B18FF9668D4D87A34FE08376526A54","019cf819-3645-7b27-9ad8-a2e53873bf5d","019cf80d-4266-7117-8a51-54e13c84aca4","","null","
                <div class=""stimulus-container"">
                    <img src=""images/semantic_sequence/redecorating_a_house_semantic/redecorating_a_house_semantic_ten.png"" class=""exp-image"">
                    <div class=""question-area""></div> 
                </div>","null","","","","","","","","",""
"","","","","","html-button-response","36","178176","0.0-36.0","E2B18FF9668D4D87A34FE08376526A54","019cf819-3645-7b27-9ad8-a2e53873bf5d","019cf80d-4266-7117-8a51-54e13c84aca4","","470","
                <div class=""stimulus-container"">
                    <img src=""images/semantic_sequence/redecorating_a_house_semantic/redecorating_a_house_semantic_ten.png"" class=""exp-image"">
                    <div class=""question-area"">
                        <p style=""font-size: 20px; font-weight: bold; margin: 0;"">Is there a person in this image?</p>
                    </div>
                </div>","0","main_experiment_trial","ten","redecorating_a_house_semantic","semantic_sequence","","","","",""
"","","","","","html-keyboard-response","37","179182","0.0-37.0","E2B18FF9668D4D87A34FE08376526A54","019cf819-3645-7b27-9ad8-a2e53873bf5d","019cf80d-4266-7117-8a51-54e13c84aca4","","null","<div style=""background-color: white; width: 100vw; height: 100vh;""></div>","null","","","","","","","","",""
"","","","","","html-keyboard-response","38","184187","0.0-38.0","E2B18FF9668D4D87A34FE08376526A54","019cf819-3645-7b27-9ad8-a2e53873bf5d","019cf80d-4266-7117-8a51-54e13c84aca4","","null","
                <div class=""stimulus-container"">
                    <img src=""images/semantic_sequence/kitchen_operations_semantic/kitchen_operations_semantic_1.png"" class=""exp-image"">
                    <div class=""question-area""></div> 
                </div>","null","","","","","","","","",""
"","","","","","html-button-response","39","184574","0.0-39.0","E2B18FF9668D4D87A34FE08376526A54","019cf819-3645-7b27-9ad8-a2e53873bf5d","019cf80d-4266-7117-8a51-54e13c84aca4","","386","
                <div class=""stimulus-container"">
                    <img src=""images/semantic_sequence/kitchen_operations_semantic/kitchen_operations_semantic_1.png"" class=""exp-image"">
                    <div class=""question-area"">
                        <p style=""font-size: 20px; font-weight: bold; margin: 0;"">Is there a person in this image?</p>
                    </div>
                </div>","0","main_experiment_trial","1","kitchen_operations_semantic","semantic_sequence","","","","",""
"","","","","","html-keyboard-response","40","189588","0.0-40.0","E2B18FF9668D4D87A34FE08376526A54","019cf819-3645-7b27-9ad8-a2e53873bf5d","019cf80d-4266-7117-8a51-54e13c84aca4","","null","
                <div class=""stimulus-container"">
                    <img src=""images/semantic_sequence/kitchen_operations_semantic/kitchen_operations_semantic_2.png"" class=""exp-image"">
                    <div class=""question-area""></div> 
                </div>","null","","","","","","","","",""
"","","","","","html-button-response","41","189964","0.0-41.0","E2B18FF9668D4D87A34FE08376526A54","019cf819-3645-7b27-9ad8-a2e53873bf5d","019cf80d-4266-7117-8a51-54e13c84aca4","","375","
                <div class=""stimulus-container"">
                    <img src=""images/semantic_sequence/kitchen_operations_semantic/kitchen_operations_semantic_2.png"" class=""exp-image"">
                    <div class=""question-area"">
                        <p style=""font-size: 20px; font-weight: bold; margin: 0;"">Is there a person in this image?</p>
                    </div>
                </div>","0","main_experiment_trial","2","kitchen_operations_semantic","semantic_sequence","","","","",""
"","","","","","html-keyboard-response","42","194968","0.0-42.0","E2B18FF9668D4D87A34FE08376526A54","019cf819-3645-7b27-9ad8-a2e53873bf5d","019cf80d-4266-7117-8a51-54e13c84aca4","","null","
                <div class=""stimulus-container"">
                    <img src=""images/semantic_sequence/kitchen_operations_semantic/kitchen_operations_semantic_3.png"" class=""exp-image"">
                    <div class=""question-area""></div> 
                </div>","null","","","","","","","","",""
"","","","","","html-button-response","43","195476","0.0-43.0","E2B18FF9668D4D87A34FE08376526A54","019cf819-3645-7b27-9ad8-a2e53873bf5d","019cf80d-4266-7117-8a51-54e13c84aca4","","508","
                <div class=""stimulus-container"">
                    <img src=""images/semantic_sequence/kitchen_operations_semantic/kitchen_operations_semantic_3.png"" class=""exp-image"">
                    <div class=""question-area"">
                        <p style=""font-size: 20px; font-weight: bold; margin: 0;"">Is there a person in this image?</p>
                    </div>
                </div>","0","main_experiment_trial","3","kitchen_operations_semantic","semantic_sequence","","","","",""
"","","","","","html-keyboard-response","44","200491","0.0-44.0","E2B18FF9668D4D87A34FE08376526A54","019cf819-3645-7b27-9ad8-a2e53873bf5d","019cf80d-4266-7117-8a51-54e13c84aca4","","null","
                <div class=""stimulus-container"">
                    <img src=""images/semantic_sequence/kitchen_operations_semantic/kitchen_operations_semantic_4.png"" class=""exp-image"">
                    <div class=""question-area""></div> 
                </div>","null","","","","","","","","",""
"","","","","","html-button-response","45","200961","0.0-45.0","E2B18FF9668D4D87A34FE08376526A54","019cf819-3645-7b27-9ad8-a2e53873bf5d","019cf80d-4266-7117-8a51-54e13c84aca4","","469","
                <div class=""stimulus-container"">
                    <img src=""images/semantic_sequence/kitchen_operations_semantic/kitchen_operations_semantic_4.png"" class=""exp-image"">
                    <div class=""question-area"">
                        <p style=""font-size: 20px; font-weight: bold; margin: 0;"">Is there a person in this image?</p>
                    </div>
                </div>","0","main_experiment_trial","4","kitchen_operations_semantic","semantic_sequence","","","","",""
"","","","","","html-keyboard-response","46","205968","0.0-46.0","E2B18FF9668D4D87A34FE08376526A54","019cf819-3645-7b27-9ad8-a2e53873bf5d","019cf80d-4266-7117-8a51-54e13c84aca4","","null","
                <div class=""stimulus-container"">
                    <img src=""images/semantic_sequence/kitchen_operations_semantic/kitchen_operations_semantic_5.png"" class=""exp-image"">
                    <div class=""question-area""></div> 
                </div>","null","","","","","","","","",""
"","","","","","html-button-response","47","206452","0.0-47.0","E2B18FF9668D4D87A34FE08376526A54","019cf819-3645-7b27-9ad8-a2e53873bf5d","019cf80d-4266-7117-8a51-54e13c84aca4","","483","
                <div class=""stimulus-container"">
                    <img src=""images/semantic_sequence/kitchen_operations_semantic/kitchen_operations_semantic_5.png"" class=""exp-image"">
                    <div class=""question-area"">
                        <p style=""font-size: 20px; font-weight: bold; margin: 0;"">Is there a person in this image?</p>
                    </div>
                </div>","0","main_experiment_trial","5","kitchen_operations_semantic","semantic_sequence","","","","",""
"","","","","","html-keyboard-response","48","211463","0.0-48.0","E2B18FF9668D4D87A34FE08376526A54","019cf819-3645-7b27-9ad8-a2e53873bf5d","019cf80d-4266-7117-8a51-54e13c84aca4","","null","
                <div class=""stimulus-container"">
                    <img src=""images/semantic_sequence/kitchen_operations_semantic/kitchen_operations_semantic_6.png"" class=""exp-image"">
                    <div class=""question-area""></div> 
                </div>","null","","","","","","","","",""
"","","","","","html-button-response","49","213057","0.0-49.0","E2B18FF9668D4D87A34FE08376526A54","019cf819-3645-7b27-9ad8-a2e53873bf5d","019cf80d-4266-7117-8a51-54e13c84aca4","","1593","
                <div class=""stimulus-container"">
                    <img src=""images/semantic_sequence/kitchen_operations_semantic/kitchen_operations_semantic_6.png"" class=""exp-image"">
                    <div class=""question-area"">
                        <p style=""font-size: 20px; font-weight: bold; margin: 0;"">Is there a person in this image?</p>
                    </div>
                </div>","0","main_experiment_trial","6","kitchen_operations_semantic","semantic_sequence","","","","",""
"","","","","","html-keyboard-response","50","218071","0.0-50.0","E2B18FF9668D4D87A34FE08376526A54","019cf819-3645-7b27-9ad8-a2e53873bf5d","019cf80d-4266-7117-8a51-54e13c84aca4","","null","
                <div class=""stimulus-container"">
                    <img src=""images/semantic_sequence/kitchen_operations_semantic/kitchen_operations_semantic_7.png"" class=""exp-image"">
                    <div class=""question-area""></div> 
                </div>","null","","","","","","","","",""
"","","","","","html-button-response","51","221079","0.0-51.0","E2B18FF9668D4D87A34FE08376526A54","019cf819-3645-7b27-9ad8-a2e53873bf5d","019cf80d-4266-7117-8a51-54e13c84aca4","","null","
                <div class=""stimulus-container"">
                    <img src=""images/semantic_sequence/kitchen_operations_semantic/kitchen_operations_semantic_7.png"" class=""exp-image"">
                    <div class=""question-area"">
                        <p style=""font-size: 20px; font-weight: bold; margin: 0;"">Is there a person in this image?</p>
                    </div>
                </div>","null","main_experiment_trial","7","kitchen_operations_semantic","semantic_sequence","","","","",""
"","","","","","html-keyboard-response","52","226081","0.0-52.0","E2B18FF9668D4D87A34FE08376526A54","019cf819-3645-7b27-9ad8-a2e53873bf5d","019cf80d-4266-7117-8a51-54e13c84aca4","","null","
                <div class=""stimulus-container"">
                    <img src=""images/semantic_sequence/kitchen_operations_semantic/kitchen_operations_semantic_8.png"" class=""exp-image"">
                    <div class=""question-area""></div> 
                </div>","null","","","","","","","","",""
"","","","","","html-button-response","53","226451","0.0-53.0","E2B18FF9668D4D87A34FE08376526A54","019cf819-3645-7b27-9ad8-a2e53873bf5d","019cf80d-4266-7117-8a51-54e13c84aca4","","370","
                <div class=""stimulus-container"">
                    <img src=""images/semantic_sequence/kitchen_operations_semantic/kitchen_operations_semantic_8.png"" class=""exp-image"">
                    <div class=""question-area"">
                        <p style=""font-size: 20px; font-weight: bold; margin: 0;"">Is there a person in this image?</p>
                    </div>
                </div>","0","main_experiment_trial","8","kitchen_operations_semantic","semantic_sequence","","","","",""
"","","","","","html-keyboard-response","54","231465","0.0-54.0","E2B18FF9668D4D87A34FE08376526A54","019cf819-3645-7b27-9ad8-a2e53873bf5d","019cf80d-4266-7117-8a51-54e13c84aca4","","null","
                <div class=""stimulus-container"">
                    <img src=""images/semantic_sequence/kitchen_operations_semantic/kitchen_operations_semantic_9.png"" class=""exp-image"">
                    <div class=""question-area""></div> 
                </div>","null","","","","","","","","",""
"","","","","","html-button-response","55","231819","0.0-55.0","E2B18FF9668D4D87A34FE08376526A54","019cf819-3645-7b27-9ad8-a2e53873bf5d","019cf80d-4266-7117-8a51-54e13c84aca4","","353","
                <div class=""stimulus-container"">
                    <img src=""images/semantic_sequence/kitchen_operations_semantic/kitchen_operations_semantic_9.png"" class=""exp-image"">
                    <div class=""question-area"">
                        <p style=""font-size: 20px; font-weight: bold; margin: 0;"">Is there a person in this image?</p>
                    </div>
                </div>","0","main_experiment_trial","9","kitchen_operations_semantic","semantic_sequence","","","","",""
"","","","","","html-keyboard-response","56","236821","0.0-56.0","E2B18FF9668D4D87A34FE08376526A54","019cf819-3645-7b27-9ad8-a2e53873bf5d","019cf80d-4266-7117-8a51-54e13c84aca4","","null","
                <div class=""stimulus-container"">
                    <img src=""images/semantic_sequence/kitchen_operations_semantic/kitchen_operations_semantic_ten.png"" class=""exp-image"">
                    <div class=""question-area""></div> 
                </div>","null","","","","","","","","",""
"","","","","","html-button-response","57","237643","0.0-57.0","E2B18FF9668D4D87A34FE08376526A54","019cf819-3645-7b27-9ad8-a2e53873bf5d","019cf80d-4266-7117-8a51-54e13c84aca4","","821","
                <div class=""stimulus-container"">
                    <img src=""images/semantic_sequence/kitchen_operations_semantic/kitchen_operations_semantic_ten.png"" class=""exp-image"">
                    <div class=""question-area"">
                        <p style=""font-size: 20px; font-weight: bold; margin: 0;"">Is there a person in this image?</p>
                    </div>
                </div>","0","main_experiment_trial","ten","kitchen_operations_semantic","semantic_sequence","","","","",""
"","","","","","html-keyboard-response","58","238652","0.0-58.0","E2B18FF9668D4D87A34FE08376526A54","019cf819-3645-7b27-9ad8-a2e53873bf5d","019cf80d-4266-7117-8a51-54e13c84aca4","","null","<div style=""background-color: white; width: 100vw; height: 100vh;""></div>","null","","","","","","","","",""
"","","","","","html-keyboard-response","59","243664","0.0-59.0","E2B18FF9668D4D87A34FE08376526A54","019cf819-3645-7b27-9ad8-a2e53873bf5d","019cf80d-4266-7117-8a51-54e13c84aca4","","null","
                <div class=""stimulus-container"">
                    <img src=""images/schematic_sequence/hotel_scheme/hotel_scheme_1.png"" class=""exp-image"">
                    <div class=""question-area""></div> 
                </div>","null","","","","","","","","",""
"","","","","","html-button-response","60","246311","0.0-60.0","E2B18FF9668D4D87A34FE08376526A54","019cf819-3645-7b27-9ad8-a2e53873bf5d","019cf80d-4266-7117-8a51-54e13c84aca4","","2647","
                <div class=""stimulus-container"">
                    <img src=""images/schematic_sequence/hotel_scheme/hotel_scheme_1.png"" class=""exp-image"">
                    <div class=""question-area"">
                        <p style=""font-size: 20px; font-weight: bold; margin: 0;"">Is there a person in this image?</p>
                    </div>
                </div>","0","main_experiment_trial","1","hotel_scheme","schematic_sequence","","","","",""
"","","","","","html-keyboard-response","61","251318","0.0-61.0","E2B18FF9668D4D87A34FE08376526A54","019cf819-3645-7b27-9ad8-a2e53873bf5d","019cf80d-4266-7117-8a51-54e13c84aca4","","null","
                <div class=""stimulus-container"">
                    <img src=""images/schematic_sequence/hotel_scheme/hotel_scheme_2.png"" class=""exp-image"">
                    <div class=""question-area""></div> 
                </div>","null","","","","","","","","",""
"","","","","","html-button-response","62","251982","0.0-62.0","E2B18FF9668D4D87A34FE08376526A54","019cf819-3645-7b27-9ad8-a2e53873bf5d","019cf80d-4266-7117-8a51-54e13c84aca4","","663","
                <div class=""stimulus-container"">
                    <img src=""images/schematic_sequence/hotel_scheme/hotel_scheme_2.png"" class=""exp-image"">
                    <div class=""question-area"">
                        <p style=""font-size: 20px; font-weight: bold; margin: 0;"">Is there a person in this image?</p>
                    </div>
                </div>","0","main_experiment_trial","2","hotel_scheme","schematic_sequence","","","","",""
"","","","","","html-keyboard-response","63","256983","0.0-63.0","E2B18FF9668D4D87A34FE08376526A54","019cf819-3645-7b27-9ad8-a2e53873bf5d","019cf80d-4266-7117-8a51-54e13c84aca4","","null","
                <div class=""stimulus-container"">
                    <img src=""images/schematic_sequence/hotel_scheme/hotel_scheme_3.png"" class=""exp-image"">
                    <div class=""question-area""></div> 
                </div>","null","","","","","","","","",""
"","","","","","html-button-response","64","257396","0.0-64.0","E2B18FF9668D4D87A34FE08376526A54","019cf819-3645-7b27-9ad8-a2e53873bf5d","019cf80d-4266-7117-8a51-54e13c84aca4","","412","
                <div class=""stimulus-container"">
                    <img src=""images/schematic_sequence/hotel_scheme/hotel_scheme_3.png"" class=""exp-image"">
                    <div class=""question-area"">
                        <p style=""font-size: 20px; font-weight: bold; margin: 0;"">Is there a person in this image?</p>
                    </div>
                </div>","0","main_experiment_trial","3","hotel_scheme","schematic_sequence","","","","",""
"","","","","","html-keyboard-response","65","262407","0.0-65.0","E2B18FF9668D4D87A34FE08376526A54","019cf819-3645-7b27-9ad8-a2e53873bf5d","019cf80d-4266-7117-8a51-54e13c84aca4","","null","
                <div class=""stimulus-container"">
                    <img src=""images/schematic_sequence/hotel_scheme/hotel_scheme_4.png"" class=""exp-image"">
                    <div class=""question-area""></div> 
                </div>","null","","","","","","","","",""
"","","","","","html-button-response","66","262884","0.0-66.0","E2B18FF9668D4D87A34FE08376526A54","019cf819-3645-7b27-9ad8-a2e53873bf5d","019cf80d-4266-7117-8a51-54e13c84aca4","","477","
                <div class=""stimulus-container"">
                    <img src=""images/schematic_sequence/hotel_scheme/hotel_scheme_4.png"" class=""exp-image"">
                    <div class=""question-area"">
                        <p style=""font-size: 20px; font-weight: bold; margin: 0;"">Is there a person in this image?</p>
                    </div>
                </div>","1","main_experiment_trial","4","hotel_scheme","schematic_sequence","","","","",""
"","","","","","html-keyboard-response","67","267889","0.0-67.0","E2B18FF9668D4D87A34FE08376526A54","019cf819-3645-7b27-9ad8-a2e53873bf5d","019cf80d-4266-7117-8a51-54e13c84aca4","","null","
                <div class=""stimulus-container"">
                    <img src=""images/schematic_sequence/hotel_scheme/hotel_scheme_5.png"" class=""exp-image"">
                    <div class=""question-area""></div> 
                </div>","null","","","","","","","","",""
"","","","","","html-button-response","68","268286","0.0-68.0","E2B18FF9668D4D87A34FE08376526A54","019cf819-3645-7b27-9ad8-a2e53873bf5d","019cf80d-4266-7117-8a51-54e13c84aca4","","397","
                <div class=""stimulus-container"">
                    <img src=""images/schematic_sequence/hotel_scheme/hotel_scheme_5.png"" class=""exp-image"">
                    <div class=""question-area"">
                        <p style=""font-size: 20px; font-weight: bold; margin: 0;"">Is there a person in this image?</p>
                    </div>
                </div>","0","main_experiment_trial","5","hotel_scheme","schematic_sequence","","","","",""
"","","","","","html-keyboard-response","69","273301","0.0-69.0","E2B18FF9668D4D87A34FE08376526A54","019cf819-3645-7b27-9ad8-a2e53873bf5d","019cf80d-4266-7117-8a51-54e13c84aca4","","null","
                <div class=""stimulus-container"">
                    <img src=""images/schematic_sequence/hotel_scheme/hotel_scheme_6.png"" class=""exp-image"">
                    <div class=""question-area""></div> 
                </div>","null","","","","","","","","",""
"","","","","","html-button-response","70","273746","0.0-70.0","E2B18FF9668D4D87A34FE08376526A54","019cf819-3645-7b27-9ad8-a2e53873bf5d","019cf80d-4266-7117-8a51-54e13c84aca4","","445","
                <div class=""stimulus-container"">
                    <img src=""images/schematic_sequence/hotel_scheme/hotel_scheme_6.png"" class=""exp-image"">
                    <div class=""question-area"">
                        <p style=""font-size: 20px; font-weight: bold; margin: 0;"">Is there a person in this image?</p>
                    </div>
                </div>","0","main_experiment_trial","6","hotel_scheme","schematic_sequence","","","","",""
"","","","","","html-keyboard-response","71","278759","0.0-71.0","E2B18FF9668D4D87A34FE08376526A54","019cf819-3645-7b27-9ad8-a2e53873bf5d","019cf80d-4266-7117-8a51-54e13c84aca4","","null","
                <div class=""stimulus-container"">
                    <img src=""images/schematic_sequence/hotel_scheme/hotel_scheme_7.png"" class=""exp-image"">
                    <div class=""question-area""></div> 
                </div>","null","","","","","","","","",""
"","","","","","html-button-response","72","279185","0.0-72.0","E2B18FF9668D4D87A34FE08376526A54","019cf819-3645-7b27-9ad8-a2e53873bf5d","019cf80d-4266-7117-8a51-54e13c84aca4","","425","
                <div class=""stimulus-container"">
                    <img src=""images/schematic_sequence/hotel_scheme/hotel_scheme_7.png"" class=""exp-image"">
                    <div class=""question-area"">
                        <p style=""font-size: 20px; font-weight: bold; margin: 0;"">Is there a person in this image?</p>
                    </div>
                </div>","0","main_experiment_trial","7","hotel_scheme","schematic_sequence","","","","",""
"","","","","","html-keyboard-response","73","284197","0.0-73.0","E2B18FF9668D4D87A34FE08376526A54","019cf819-3645-7b27-9ad8-a2e53873bf5d","019cf80d-4266-7117-8a51-54e13c84aca4","","null","
                <div class=""stimulus-container"">
                    <img src=""images/schematic_sequence/hotel_scheme/hotel_scheme_8.png"" class=""exp-image"">
                    <div class=""question-area""></div> 
                </div>","null","","","","","","","","",""
"","","","","","html-button-response","74","284797","0.0-74.0","E2B18FF9668D4D87A34FE08376526A54","019cf819-3645-7b27-9ad8-a2e53873bf5d","019cf80d-4266-7117-8a51-54e13c84aca4","","599","
                <div class=""stimulus-container"">
                    <img src=""images/schematic_sequence/hotel_scheme/hotel_scheme_8.png"" class=""exp-image"">
                    <div class=""question-area"">
                        <p style=""font-size: 20px; font-weight: bold; margin: 0;"">Is there a person in this image?</p>
                    </div>
                </div>","0","main_experiment_trial","8","hotel_scheme","schematic_sequence","","","","",""
"","","","","","html-keyboard-response","75","289799","0.0-75.0","E2B18FF9668D4D87A34FE08376526A54","019cf819-3645-7b27-9ad8-a2e53873bf5d","019cf80d-4266-7117-8a51-54e13c84aca4","","null","
                <div class=""stimulus-container"">
                    <img src=""images/schematic_sequence/hotel_scheme/hotel_scheme_9.png"" class=""exp-image"">
                    <div class=""question-area""></div> 
                </div>","null","","","","","","","","",""
"","","","","","html-button-response","76","290179","0.0-76.0","E2B18FF9668D4D87A34FE08376526A54","019cf819-3645-7b27-9ad8-a2e53873bf5d","019cf80d-4266-7117-8a51-54e13c84aca4","","379","
                <div class=""stimulus-container"">
                    <img src=""images/schematic_sequence/hotel_scheme/hotel_scheme_9.png"" class=""exp-image"">
                    <div class=""question-area"">
                        <p style=""font-size: 20px; font-weight: bold; margin: 0;"">Is there a person in this image?</p>
                    </div>
                </div>","0","main_experiment_trial","9","hotel_scheme","schematic_sequence","","","","",""
"","","","","","html-keyboard-response","77","295190","0.0-77.0","E2B18FF9668D4D87A34FE08376526A54","019cf819-3645-7b27-9ad8-a2e53873bf5d","019cf80d-4266-7117-8a51-54e13c84aca4","","null","
                <div class=""stimulus-container"">
                    <img src=""images/schematic_sequence/hotel_scheme/hotel_scheme_ten.png"" class=""exp-image"">
                    <div class=""question-area""></div> 
                </div>","null","","","","","","","","",""
"","","","","","html-button-response","78","295655","0.0-78.0","E2B18FF9668D4D87A34FE08376526A54","019cf819-3645-7b27-9ad8-a2e53873bf5d","019cf80d-4266-7117-8a51-54e13c84aca4","","464","
                <div class=""stimulus-container"">
                    <img src=""images/schematic_sequence/hotel_scheme/hotel_scheme_ten.png"" class=""exp-image"">
                    <div class=""question-area"">
                        <p style=""font-size: 20px; font-weight: bold; margin: 0;"">Is there a person in this image?</p>
                    </div>
                </div>","0","main_experiment_trial","ten","hotel_scheme","schematic_sequence","","","","",""
"","","","","","html-keyboard-response","79","296665","0.0-79.0","E2B18FF9668D4D87A34FE08376526A54","019cf819-3645-7b27-9ad8-a2e53873bf5d","019cf80d-4266-7117-8a51-54e13c84aca4","","null","<div style=""background-color: white; width: 100vw; height: 100vh;""></div>","null","","","","","","","","",""
"","","","","","html-keyboard-response","80","301673","0.0-80.0","E2B18FF9668D4D87A34FE08376526A54","019cf819-3645-7b27-9ad8-a2e53873bf5d","019cf80d-4266-7117-8a51-54e13c84aca4","","null","
                <div class=""stimulus-container"">
                    <img src=""images/schematic_sequence/dinner_party_scheme/dinner_party_scheme_1.png"" class=""exp-image"">
                    <div class=""question-area""></div> 
                </div>","null","","","","","","","","",""
"","","","","","html-button-response","81","302087","0.0-81.0","E2B18FF9668D4D87A34FE08376526A54","019cf819-3645-7b27-9ad8-a2e53873bf5d","019cf80d-4266-7117-8a51-54e13c84aca4","","414","
                <div class=""stimulus-container"">
                    <img src=""images/schematic_sequence/dinner_party_scheme/dinner_party_scheme_1.png"" class=""exp-image"">
                    <div class=""question-area"">
                        <p style=""font-size: 20px; font-weight: bold; margin: 0;"">Is there a person in this image?</p>
                    </div>
                </div>","0","main_experiment_trial","1","dinner_party_scheme","schematic_sequence","","","","",""
"","","","","","html-keyboard-response","82","307101","0.0-82.0","E2B18FF9668D4D87A34FE08376526A54","019cf819-3645-7b27-9ad8-a2e53873bf5d","019cf80d-4266-7117-8a51-54e13c84aca4","","null","
                <div class=""stimulus-container"">
                    <img src=""images/schematic_sequence/dinner_party_scheme/dinner_party_scheme_2.png"" class=""exp-image"">
                    <div class=""question-area""></div> 
                </div>","null","","","","","","","","",""
"","","","","","html-button-response","83","307607","0.0-83.0","E2B18FF9668D4D87A34FE08376526A54","019cf819-3645-7b27-9ad8-a2e53873bf5d","019cf80d-4266-7117-8a51-54e13c84aca4","","505","
                <div class=""stimulus-container"">
                    <img src=""images/schematic_sequence/dinner_party_scheme/dinner_party_scheme_2.png"" class=""exp-image"">
                    <div class=""question-area"">
                        <p style=""font-size: 20px; font-weight: bold; margin: 0;"">Is there a person in this image?</p>
                    </div>
                </div>","1","main_experiment_trial","2","dinner_party_scheme","schematic_sequence","","","","",""
"","","","","","html-keyboard-response","84","312615","0.0-84.0","E2B18FF9668D4D87A34FE08376526A54","019cf819-3645-7b27-9ad8-a2e53873bf5d","019cf80d-4266-7117-8a51-54e13c84aca4","","null","
                <div class=""stimulus-container"">
                    <img src=""images/schematic_sequence/dinner_party_scheme/dinner_party_scheme_3.png"" class=""exp-image"">
                    <div class=""question-area""></div> 
                </div>","null","","","","","","","","",""
"","","","","","html-button-response","85","313029","0.0-85.0","E2B18FF9668D4D87A34FE08376526A54","019cf819-3645-7b27-9ad8-a2e53873bf5d","019cf80d-4266-7117-8a51-54e13c84aca4","","414","
                <div class=""stimulus-container"">
                    <img src=""images/schematic_sequence/dinner_party_scheme/dinner_party_scheme_3.png"" class=""exp-image"">
                    <div class=""question-area"">
                        <p style=""font-size: 20px; font-weight: bold; margin: 0;"">Is there a person in this image?</p>
                    </div>
                </div>","0","main_experiment_trial","3","dinner_party_scheme","schematic_sequence","","","","",""
"","","","","","html-keyboard-response","86","318034","0.0-86.0","E2B18FF9668D4D87A34FE08376526A54","019cf819-3645-7b27-9ad8-a2e53873bf5d","019cf80d-4266-7117-8a51-54e13c84aca4","","null","
                <div class=""stimulus-container"">
                    <img src=""images/schematic_sequence/dinner_party_scheme/dinner_party_scheme_4.png"" class=""exp-image"">
                    <div class=""question-area""></div> 
                </div>","null","","","","","","","","",""
"","","","","","html-button-response","87","318482","0.0-87.0","E2B18FF9668D4D87A34FE08376526A54","019cf819-3645-7b27-9ad8-a2e53873bf5d","019cf80d-4266-7117-8a51-54e13c84aca4","","447","
                <div class=""stimulus-container"">
                    <img src=""images/schematic_sequence/dinner_party_scheme/dinner_party_scheme_4.png"" class=""exp-image"">
                    <div class=""question-area"">
                        <p style=""font-size: 20px; font-weight: bold; margin: 0;"">Is there a person in this image?</p>
                    </div>
                </div>","0","main_experiment_trial","4","dinner_party_scheme","schematic_sequence","","","","",""
"","","","","","html-keyboard-response","88","323487","0.0-88.0","E2B18FF9668D4D87A34FE08376526A54","019cf819-3645-7b27-9ad8-a2e53873bf5d","019cf80d-4266-7117-8a51-54e13c84aca4","","null","
                <div class=""stimulus-container"">
                    <img src=""images/schematic_sequence/dinner_party_scheme/dinner_party_scheme_5.png"" class=""exp-image"">
                    <div class=""question-area""></div> 
                </div>","null","","","","","","","","",""
"","","","","","html-button-response","89","323982","0.0-89.0","E2B18FF9668D4D87A34FE08376526A54","019cf819-3645-7b27-9ad8-a2e53873bf5d","019cf80d-4266-7117-8a51-54e13c84aca4","","494","
                <div class=""stimulus-container"">
                    <img src=""images/schematic_sequence/dinner_party_scheme/dinner_party_scheme_5.png"" class=""exp-image"">
                    <div class=""question-area"">
                        <p style=""font-size: 20px; font-weight: bold; margin: 0;"">Is there a person in this image?</p>
                    </div>
                </div>","0","main_experiment_trial","5","dinner_party_scheme","schematic_sequence","","","","",""
"","","","","","html-keyboard-response","90","328992","0.0-90.0","E2B18FF9668D4D87A34FE08376526A54","019cf819-3645-7b27-9ad8-a2e53873bf5d","019cf80d-4266-7117-8a51-54e13c84aca4","","null","
                <div class=""stimulus-container"">
                    <img src=""images/schematic_sequence/dinner_party_scheme/dinner_party_scheme_6.png"" class=""exp-image"">
                    <div class=""question-area""></div> 
                </div>","null","","","","","","","","",""
"","","","","","html-button-response","91","329372","0.0-91.0","E2B18FF9668D4D87A34FE08376526A54","019cf819-3645-7b27-9ad8-a2e53873bf5d","019cf80d-4266-7117-8a51-54e13c84aca4","","379","
                <div class=""stimulus-container"">
                    <img src=""images/schematic_sequence/dinner_party_scheme/dinner_party_scheme_6.png"" class=""exp-image"">
                    <div class=""question-area"">
                        <p style=""font-size: 20px; font-weight: bold; margin: 0;"">Is there a person in this image?</p>
                    </div>
                </div>","0","main_experiment_trial","6","dinner_party_scheme","schematic_sequence","","","","",""
"","","","","","html-keyboard-response","92","334374","0.0-92.0","E2B18FF9668D4D87A34FE08376526A54","019cf819-3645-7b27-9ad8-a2e53873bf5d","019cf80d-4266-7117-8a51-54e13c84aca4","","null","
                <div class=""stimulus-container"">
                    <img src=""images/schematic_sequence/dinner_party_scheme/dinner_party_scheme_7.png"" class=""exp-image"">
                    <div class=""question-area""></div> 
                </div>","null","","","","","","","","",""
"","","","","","html-button-response","93","334742","0.0-93.0","E2B18FF9668D4D87A34FE08376526A54","019cf819-3645-7b27-9ad8-a2e53873bf5d","019cf80d-4266-7117-8a51-54e13c84aca4","","367","
                <div class=""stimulus-container"">
                    <img src=""images/schematic_sequence/dinner_party_scheme/dinner_party_scheme_7.png"" class=""exp-image"">
                    <div class=""question-area"">
                        <p style=""font-size: 20px; font-weight: bold; margin: 0;"">Is there a person in this image?</p>
                    </div>
                </div>","0","main_experiment_trial","7","dinner_party_scheme","schematic_sequence","","","","",""
"","","","","","html-keyboard-response","94","339750","0.0-94.0","E2B18FF9668D4D87A34FE08376526A54","019cf819-3645-7b27-9ad8-a2e53873bf5d","019cf80d-4266-7117-8a51-54e13c84aca4","","null","
                <div class=""stimulus-container"">
                    <img src=""images/schematic_sequence/dinner_party_scheme/dinner_party_scheme_8.png"" class=""exp-image"">
                    <div class=""question-area""></div> 
                </div>","null","","","","","","","","",""
"","","","","","html-button-response","95","340276","0.0-95.0","E2B18FF9668D4D87A34FE08376526A54","019cf819-3645-7b27-9ad8-a2e53873bf5d","019cf80d-4266-7117-8a51-54e13c84aca4","","526","
                <div class=""stimulus-container"">
                    <img src=""images/schematic_sequence/dinner_party_scheme/dinner_party_scheme_8.png"" class=""exp-image"">
                    <div class=""question-area"">
                        <p style=""font-size: 20px; font-weight: bold; margin: 0;"">Is there a person in this image?</p>
                    </div>
                </div>","0","main_experiment_trial","8","dinner_party_scheme","schematic_sequence","","","","",""
"","","","","","html-keyboard-response","96","345289","0.0-96.0","E2B18FF9668D4D87A34FE08376526A54","019cf819-3645-7b27-9ad8-a2e53873bf5d","019cf80d-4266-7117-8a51-54e13c84aca4","","null","
                <div class=""stimulus-container"">
                    <img src=""images/schematic_sequence/dinner_party_scheme/dinner_party_scheme_9.png"" class=""exp-image"">
                    <div class=""question-area""></div> 
                </div>","null","","","","","","","","",""
"","","","","","html-button-response","97","345932","0.0-97.0","E2B18FF9668D4D87A34FE08376526A54","019cf819-3645-7b27-9ad8-a2e53873bf5d","019cf80d-4266-7117-8a51-54e13c84aca4","","643","
                <div class=""stimulus-container"">
                    <img src=""images/schematic_sequence/dinner_party_scheme/dinner_party_scheme_9.png"" class=""exp-image"">
                    <div class=""question-area"">
                        <p style=""font-size: 20px; font-weight: bold; margin: 0;"">Is there a person in this image?</p>
                    </div>
                </div>","0","main_experiment_trial","9","dinner_party_scheme","schematic_sequence","","","","",""
"","","","","","html-keyboard-response","98","350945","0.0-98.0","E2B18FF9668D4D87A34FE08376526A54","019cf819-3645-7b27-9ad8-a2e53873bf5d","019cf80d-4266-7117-8a51-54e13c84aca4","","null","
                <div class=""stimulus-container"">
                    <img src=""images/schematic_sequence/dinner_party_scheme/dinner_party_scheme_ten.png"" class=""exp-image"">
                    <div class=""question-area""></div> 
                </div>","null","","","","","","","","",""
"","","","","","html-button-response","99","351468","0.0-99.0","E2B18FF9668D4D87A34FE08376526A54","019cf819-3645-7b27-9ad8-a2e53873bf5d","019cf80d-4266-7117-8a51-54e13c84aca4","","523","
                <div class=""stimulus-container"">
                    <img src=""images/schematic_sequence/dinner_party_scheme/dinner_party_scheme_ten.png"" class=""exp-image"">
                    <div class=""question-area"">
                        <p style=""font-size: 20px; font-weight: bold; margin: 0;"">Is there a person in this image?</p>
                    </div>
                </div>","0","main_experiment_trial","ten","dinner_party_scheme","schematic_sequence","","","","",""
"","","","","","html-keyboard-response","100","352480","0.0-100.0","E2B18FF9668D4D87A34FE08376526A54","019cf819-3645-7b27-9ad8-a2e53873bf5d","019cf80d-4266-7117-8a51-54e13c84aca4","","null","<div style=""background-color: white; width: 100vw; height: 100vh;""></div>","null","","","","","","","","",""
"","","","","","html-keyboard-response","101","357494","0.0-101.0","E2B18FF9668D4D87A34FE08376526A54","019cf819-3645-7b27-9ad8-a2e53873bf5d","019cf80d-4266-7117-8a51-54e13c84aca4","","null","
                <div class=""stimulus-container"">
                    <img src=""images/semantic_sequence/visiting_cities_semantic/visiting_cities_semantic_1.png"" class=""exp-image"">
                    <div class=""question-area""></div> 
                </div>","null","","","","","","","","",""
"","","","","","html-button-response","102","358889","0.0-102.0","E2B18FF9668D4D87A34FE08376526A54","019cf819-3645-7b27-9ad8-a2e53873bf5d","019cf80d-4266-7117-8a51-54e13c84aca4","","1394","
                <div class=""stimulus-container"">
                    <img src=""images/semantic_sequence/visiting_cities_semantic/visiting_cities_semantic_1.png"" class=""exp-image"">
                    <div class=""question-area"">
                        <p style=""font-size: 20px; font-weight: bold; margin: 0;"">Is there a person in this image?</p>
                    </div>
                </div>","1","main_experiment_trial","1","visiting_cities_semantic","semantic_sequence","","","","",""
"","","","","","html-keyboard-response","103","363893","0.0-103.0","E2B18FF9668D4D87A34FE08376526A54","019cf819-3645-7b27-9ad8-a2e53873bf5d","019cf80d-4266-7117-8a51-54e13c84aca4","","null","
                <div class=""stimulus-container"">
                    <img src=""images/semantic_sequence/visiting_cities_semantic/visiting_cities_semantic_2.png"" class=""exp-image"">
                    <div class=""question-area""></div> 
                </div>","null","","","","","","","","",""
"","","","","","html-button-response","104","366901","0.0-104.0","E2B18FF9668D4D87A34FE08376526A54","019cf819-3645-7b27-9ad8-a2e53873bf5d","019cf80d-4266-7117-8a51-54e13c84aca4","","null","
                <div class=""stimulus-container"">
                    <img src=""images/semantic_sequence/visiting_cities_semantic/visiting_cities_semantic_2.png"" class=""exp-image"">
                    <div class=""question-area"">
                        <p style=""font-size: 20px; font-weight: bold; margin: 0;"">Is there a person in this image?</p>
                    </div>
                </div>","null","main_experiment_trial","2","visiting_cities_semantic","semantic_sequence","","","","",""
"","","","","","html-keyboard-response","105","371903","0.0-105.0","E2B18FF9668D4D87A34FE08376526A54","019cf819-3645-7b27-9ad8-a2e53873bf5d","019cf80d-4266-7117-8a51-54e13c84aca4","","null","
                <div class=""stimulus-container"">
                    <img src=""images/semantic_sequence/visiting_cities_semantic/visiting_cities_semantic_3.png"" class=""exp-image"">
                    <div class=""question-area""></div> 
                </div>","null","","","","","","","","",""
"","","","","","html-button-response","106","372813","0.0-106.0","E2B18FF9668D4D87A34FE08376526A54","019cf819-3645-7b27-9ad8-a2e53873bf5d","019cf80d-4266-7117-8a51-54e13c84aca4","","909","
                <div class=""stimulus-container"">
                    <img src=""images/semantic_sequence/visiting_cities_semantic/visiting_cities_semantic_3.png"" class=""exp-image"">
                    <div class=""question-area"">
                        <p style=""font-size: 20px; font-weight: bold; margin: 0;"">Is there a person in this image?</p>
                    </div>
                </div>","1","main_experiment_trial","3","visiting_cities_semantic","semantic_sequence","","","","",""
"","","","","","html-keyboard-response","107","377822","0.0-107.0","E2B18FF9668D4D87A34FE08376526A54","019cf819-3645-7b27-9ad8-a2e53873bf5d","019cf80d-4266-7117-8a51-54e13c84aca4","","null","
                <div class=""stimulus-container"">
                    <img src=""images/semantic_sequence/visiting_cities_semantic/visiting_cities_semantic_4.png"" class=""exp-image"">
                    <div class=""question-area""></div> 
                </div>","null","","","","","","","","",""
"","","","","","html-button-response","108","378281","0.0-108.0","E2B18FF9668D4D87A34FE08376526A54","019cf819-3645-7b27-9ad8-a2e53873bf5d","019cf80d-4266-7117-8a51-54e13c84aca4","","458","
                <div class=""stimulus-container"">
                    <img src=""images/semantic_sequence/visiting_cities_semantic/visiting_cities_semantic_4.png"" class=""exp-image"">
                    <div class=""question-area"">
                        <p style=""font-size: 20px; font-weight: bold; margin: 0;"">Is there a person in this image?</p>
                    </div>
                </div>","1","main_experiment_trial","4","visiting_cities_semantic","semantic_sequence","","","","",""
"","","","","","html-keyboard-response","109","383284","0.0-109.0","E2B18FF9668D4D87A34FE08376526A54","019cf819-3645-7b27-9ad8-a2e53873bf5d","019cf80d-4266-7117-8a51-54e13c84aca4","","null","
                <div class=""stimulus-container"">
                    <img src=""images/semantic_sequence/visiting_cities_semantic/visiting_cities_semantic_5.png"" class=""exp-image"">
                    <div class=""question-area""></div> 
                </div>","null","","","","","","","","",""
"","","","","","html-button-response","110","384399","0.0-110.0","E2B18FF9668D4D87A34FE08376526A54","019cf819-3645-7b27-9ad8-a2e53873bf5d","019cf80d-4266-7117-8a51-54e13c84aca4","","1114","
                <div class=""stimulus-container"">
                    <img src=""images/semantic_sequence/visiting_cities_semantic/visiting_cities_semantic_5.png"" class=""exp-image"">
                    <div class=""question-area"">
                        <p style=""font-size: 20px; font-weight: bold; margin: 0;"">Is there a person in this image?</p>
                    </div>
                </div>","1","main_experiment_trial","5","visiting_cities_semantic","semantic_sequence","","","","",""
"","","","","","html-keyboard-response","111","389408","0.0-111.0","E2B18FF9668D4D87A34FE08376526A54","019cf819-3645-7b27-9ad8-a2e53873bf5d","019cf80d-4266-7117-8a51-54e13c84aca4","","null","
                <div class=""stimulus-container"">
                    <img src=""images/semantic_sequence/visiting_cities_semantic/visiting_cities_semantic_6.png"" class=""exp-image"">
                    <div class=""question-area""></div> 
                </div>","null","","","","","","","","",""
"","","","","","html-button-response","112","389863","0.0-112.0","E2B18FF9668D4D87A34FE08376526A54","019cf819-3645-7b27-9ad8-a2e53873bf5d","019cf80d-4266-7117-8a51-54e13c84aca4","","455","
                <div class=""stimulus-container"">
                    <img src=""images/semantic_sequence/visiting_cities_semantic/visiting_cities_semantic_6.png"" class=""exp-image"">
                    <div class=""question-area"">
                        <p style=""font-size: 20px; font-weight: bold; margin: 0;"">Is there a person in this image?</p>
                    </div>
                </div>","1","main_experiment_trial","6","visiting_cities_semantic","semantic_sequence","","","","",""
"","","","","","html-keyboard-response","113","394876","0.0-113.0","E2B18FF9668D4D87A34FE08376526A54","019cf819-3645-7b27-9ad8-a2e53873bf5d","019cf80d-4266-7117-8a51-54e13c84aca4","","null","
                <div class=""stimulus-container"">
                    <img src=""images/semantic_sequence/visiting_cities_semantic/visiting_cities_semantic_7.png"" class=""exp-image"">
                    <div class=""question-area""></div> 
                </div>","null","","","","","","","","",""
"","","","","","html-button-response","114","395503","0.0-114.0","E2B18FF9668D4D87A34FE08376526A54","019cf819-3645-7b27-9ad8-a2e53873bf5d","019cf80d-4266-7117-8a51-54e13c84aca4","","626","
                <div class=""stimulus-container"">
                    <img src=""images/semantic_sequence/visiting_cities_semantic/visiting_cities_semantic_7.png"" class=""exp-image"">
                    <div class=""question-area"">
                        <p style=""font-size: 20px; font-weight: bold; margin: 0;"">Is there a person in this image?</p>
                    </div>
                </div>","1","main_experiment_trial","7","visiting_cities_semantic","semantic_sequence","","","","",""
"","","","","","html-keyboard-response","115","400516","0.0-115.0","E2B18FF9668D4D87A34FE08376526A54","019cf819-3645-7b27-9ad8-a2e53873bf5d","019cf80d-4266-7117-8a51-54e13c84aca4","","null","
                <div class=""stimulus-container"">
                    <img src=""images/semantic_sequence/visiting_cities_semantic/visiting_cities_semantic_8.png"" class=""exp-image"">
                    <div class=""question-area""></div> 
                </div>","null","","","","","","","","",""
"","","","","","html-button-response","116","401084","0.0-116.0","E2B18FF9668D4D87A34FE08376526A54","019cf819-3645-7b27-9ad8-a2e53873bf5d","019cf80d-4266-7117-8a51-54e13c84aca4","","567","
                <div class=""stimulus-container"">
                    <img src=""images/semantic_sequence/visiting_cities_semantic/visiting_cities_semantic_8.png"" class=""exp-image"">
                    <div class=""question-area"">
                        <p style=""font-size: 20px; font-weight: bold; margin: 0;"">Is there a person in this image?</p>
                    </div>
                </div>","1","main_experiment_trial","8","visiting_cities_semantic","semantic_sequence","","","","",""
"","","","","","html-keyboard-response","117","406098","0.0-117.0","E2B18FF9668D4D87A34FE08376526A54","019cf819-3645-7b27-9ad8-a2e53873bf5d","019cf80d-4266-7117-8a51-54e13c84aca4","","null","
                <div class=""stimulus-container"">
                    <img src=""images/semantic_sequence/visiting_cities_semantic/visiting_cities_semantic_9.png"" class=""exp-image"">
                    <div class=""question-area""></div> 
                </div>","null","","","","","","","","",""
"","","","","","html-button-response","118","407588","0.0-118.0","E2B18FF9668D4D87A34FE08376526A54","019cf819-3645-7b27-9ad8-a2e53873bf5d","019cf80d-4266-7117-8a51-54e13c84aca4","","1489","
                <div class=""stimulus-container"">
                    <img src=""images/semantic_sequence/visiting_cities_semantic/visiting_cities_semantic_9.png"" class=""exp-image"">
                    <div class=""question-area"">
                        <p style=""font-size: 20px; font-weight: bold; margin: 0;"">Is there a person in this image?</p>
                    </div>
                </div>","1","main_experiment_trial","9","visiting_cities_semantic","semantic_sequence","","","","",""
"","","","","","html-keyboard-response","119","412589","0.0-119.0","E2B18FF9668D4D87A34FE08376526A54","019cf819-3645-7b27-9ad8-a2e53873bf5d","019cf80d-4266-7117-8a51-54e13c84aca4","","null","
                <div class=""stimulus-container"">
                    <img src=""images/semantic_sequence/visiting_cities_semantic/visiting_cities_semantic_ten.png"" class=""exp-image"">
                    <div class=""question-area""></div> 
                </div>","null","","","","","","","","",""
"","","","","","html-button-response","120","413066","0.0-120.0","E2B18FF9668D4D87A34FE08376526A54","019cf819-3645-7b27-9ad8-a2e53873bf5d","019cf80d-4266-7117-8a51-54e13c84aca4","","477","
                <div class=""stimulus-container"">
                    <img src=""images/semantic_sequence/visiting_cities_semantic/visiting_cities_semantic_ten.png"" class=""exp-image"">
                    <div class=""question-area"">
                        <p style=""font-size: 20px; font-weight: bold; margin: 0;"">Is there a person in this image?</p>
                    </div>
                </div>","1","main_experiment_trial","ten","visiting_cities_semantic","semantic_sequence","","","","",""
"","","","","","html-keyboard-response","121","414073","0.0-121.0","E2B18FF9668D4D87A34FE08376526A54","019cf819-3645-7b27-9ad8-a2e53873bf5d","019cf80d-4266-7117-8a51-54e13c84aca4","","null","<div style=""background-color: white; width: 100vw; height: 100vh;""></div>","null","","","","","","","","",""
"","","","","","html-keyboard-response","122","419089","0.0-122.0","E2B18FF9668D4D87A34FE08376526A54","019cf819-3645-7b27-9ad8-a2e53873bf5d","019cf80d-4266-7117-8a51-54e13c84aca4","","null","
                <div class=""stimulus-container"">
                    <img src=""images/schematic_sequence/interview_scheme/interview_scheme_1.png"" class=""exp-image"">
                    <div class=""question-area""></div> 
                </div>","null","","","","","","","","",""
"","","","","","html-button-response","123","419556","0.0-123.0","E2B18FF9668D4D87A34FE08376526A54","019cf819-3645-7b27-9ad8-a2e53873bf5d","019cf80d-4266-7117-8a51-54e13c84aca4","","467","
                <div class=""stimulus-container"">
                    <img src=""images/schematic_sequence/interview_scheme/interview_scheme_1.png"" class=""exp-image"">
                    <div class=""question-area"">
                        <p style=""font-size: 20px; font-weight: bold; margin: 0;"">Is there a person in this image?</p>
                    </div>
                </div>","1","main_experiment_trial","1","interview_scheme","schematic_sequence","","","","",""
"","","","","","html-keyboard-response","124","424572","0.0-124.0","E2B18FF9668D4D87A34FE08376526A54","019cf819-3645-7b27-9ad8-a2e53873bf5d","019cf80d-4266-7117-8a51-54e13c84aca4","","null","
                <div class=""stimulus-container"">
                    <img src=""images/schematic_sequence/interview_scheme/interview_scheme_2.png"" class=""exp-image"">
                    <div class=""question-area""></div> 
                </div>","null","","","","","","","","",""
"","","","","","html-button-response","125","426956","0.0-125.0","E2B18FF9668D4D87A34FE08376526A54","019cf819-3645-7b27-9ad8-a2e53873bf5d","019cf80d-4266-7117-8a51-54e13c84aca4","","2383","
                <div class=""stimulus-container"">
                    <img src=""images/schematic_sequence/interview_scheme/interview_scheme_2.png"" class=""exp-image"">
                    <div class=""question-area"">
                        <p style=""font-size: 20px; font-weight: bold; margin: 0;"">Is there a person in this image?</p>
                    </div>
                </div>","1","main_experiment_trial","2","interview_scheme","schematic_sequence","","","","",""
"","","","","","html-keyboard-response","126","431972","0.0-126.0","E2B18FF9668D4D87A34FE08376526A54","019cf819-3645-7b27-9ad8-a2e53873bf5d","019cf80d-4266-7117-8a51-54e13c84aca4","","null","
                <div class=""stimulus-container"">
                    <img src=""images/schematic_sequence/interview_scheme/interview_scheme_3.png"" class=""exp-image"">
                    <div class=""question-area""></div> 
                </div>","null","","","","","","","","",""
"","","","","","html-button-response","127","434963","0.0-127.0","E2B18FF9668D4D87A34FE08376526A54","019cf819-3645-7b27-9ad8-a2e53873bf5d","019cf80d-4266-7117-8a51-54e13c84aca4","","2990","
                <div class=""stimulus-container"">
                    <img src=""images/schematic_sequence/interview_scheme/interview_scheme_3.png"" class=""exp-image"">
                    <div class=""question-area"">
                        <p style=""font-size: 20px; font-weight: bold; margin: 0;"">Is there a person in this image?</p>
                    </div>
                </div>","1","main_experiment_trial","3","interview_scheme","schematic_sequence","","","","",""
"","","","","","html-keyboard-response","128","439973","0.0-128.0","E2B18FF9668D4D87A34FE08376526A54","019cf819-3645-7b27-9ad8-a2e53873bf5d","019cf80d-4266-7117-8a51-54e13c84aca4","","null","
                <div class=""stimulus-container"">
                    <img src=""images/schematic_sequence/interview_scheme/interview_scheme_4.png"" class=""exp-image"">
                    <div class=""question-area""></div> 
                </div>","null","","","","","","","","",""
"","","","","","html-button-response","129","440789","0.0-129.0","E2B18FF9668D4D87A34FE08376526A54","019cf819-3645-7b27-9ad8-a2e53873bf5d","019cf80d-4266-7117-8a51-54e13c84aca4","","815","
                <div class=""stimulus-container"">
                    <img src=""images/schematic_sequence/interview_scheme/interview_scheme_4.png"" class=""exp-image"">
                    <div class=""question-area"">
                        <p style=""font-size: 20px; font-weight: bold; margin: 0;"">Is there a person in this image?</p>
                    </div>
                </div>","1","main_experiment_trial","4","interview_scheme","schematic_sequence","","","","",""
"","","","","","html-keyboard-response","130","445791","0.0-130.0","E2B18FF9668D4D87A34FE08376526A54","019cf819-3645-7b27-9ad8-a2e53873bf5d","019cf80d-4266-7117-8a51-54e13c84aca4","","null","
                <div class=""stimulus-container"">
                    <img src=""images/schematic_sequence/interview_scheme/interview_scheme_5.png"" class=""exp-image"">
                    <div class=""question-area""></div> 
                </div>","null","","","","","","","","",""
"","","","","","html-button-response","131","447109","0.0-131.0","E2B18FF9668D4D87A34FE08376526A54","019cf819-3645-7b27-9ad8-a2e53873bf5d","019cf80d-4266-7117-8a51-54e13c84aca4","","1317","
                <div class=""stimulus-container"">
                    <img src=""images/schematic_sequence/interview_scheme/interview_scheme_5.png"" class=""exp-image"">
                    <div class=""question-area"">
                        <p style=""font-size: 20px; font-weight: bold; margin: 0;"">Is there a person in this image?</p>
                    </div>
                </div>","0","main_experiment_trial","5","interview_scheme","schematic_sequence","","","","",""
"","","","","","html-keyboard-response","132","452113","0.0-132.0","E2B18FF9668D4D87A34FE08376526A54","019cf819-3645-7b27-9ad8-a2e53873bf5d","019cf80d-4266-7117-8a51-54e13c84aca4","","null","
                <div class=""stimulus-container"">
                    <img src=""images/schematic_sequence/interview_scheme/interview_scheme_6.png"" class=""exp-image"">
                    <div class=""question-area""></div> 
                </div>","null","","","","","","","","",""
"","","","","","html-button-response","133","453491","0.0-133.0","E2B18FF9668D4D87A34FE08376526A54","019cf819-3645-7b27-9ad8-a2e53873bf5d","019cf80d-4266-7117-8a51-54e13c84aca4","","1377","
                <div class=""stimulus-container"">
                    <img src=""images/schematic_sequence/interview_scheme/interview_scheme_6.png"" class=""exp-image"">
                    <div class=""question-area"">
                        <p style=""font-size: 20px; font-weight: bold; margin: 0;"">Is there a person in this image?</p>
                    </div>
                </div>","0","main_experiment_trial","6","interview_scheme","schematic_sequence","","","","",""
"","","","","","html-keyboard-response","134","458506","0.0-134.0","E2B18FF9668D4D87A34FE08376526A54","019cf819-3645-7b27-9ad8-a2e53873bf5d","019cf80d-4266-7117-8a51-54e13c84aca4","","null","
                <div class=""stimulus-container"">
                    <img src=""images/schematic_sequence/interview_scheme/interview_scheme_7.png"" class=""exp-image"">
                    <div class=""question-area""></div> 
                </div>","null","","","","","","","","",""
"","","","","","html-button-response","135","460401","0.0-135.0","E2B18FF9668D4D87A34FE08376526A54","019cf819-3645-7b27-9ad8-a2e53873bf5d","019cf80d-4266-7117-8a51-54e13c84aca4","","1894","
                <div class=""stimulus-container"">
                    <img src=""images/schematic_sequence/interview_scheme/interview_scheme_7.png"" class=""exp-image"">
                    <div class=""question-area"">
                        <p style=""font-size: 20px; font-weight: bold; margin: 0;"">Is there a person in this image?</p>
                    </div>
                </div>","0","main_experiment_trial","7","interview_scheme","schematic_sequence","","","","",""
"","","","","","html-keyboard-response","136","465409","0.0-136.0","E2B18FF9668D4D87A34FE08376526A54","019cf819-3645-7b27-9ad8-a2e53873bf5d","019cf80d-4266-7117-8a51-54e13c84aca4","","null","
                <div class=""stimulus-container"">
                    <img src=""images/schematic_sequence/interview_scheme/interview_scheme_8.png"" class=""exp-image"">
                    <div class=""question-area""></div> 
                </div>","null","","","","","","","","",""
"","","","","","html-button-response","137","468412","0.0-137.0","E2B18FF9668D4D87A34FE08376526A54","019cf819-3645-7b27-9ad8-a2e53873bf5d","019cf80d-4266-7117-8a51-54e13c84aca4","","null","
                <div class=""stimulus-container"">
                    <img src=""images/schematic_sequence/interview_scheme/interview_scheme_8.png"" class=""exp-image"">
                    <div class=""question-area"">
                        <p style=""font-size: 20px; font-weight: bold; margin: 0;"">Is there a person in this image?</p>
                    </div>
                </div>","null","main_experiment_trial","8","interview_scheme","schematic_sequence","","","","",""
"","","","","","html-keyboard-response","138","473419","0.0-138.0","E2B18FF9668D4D87A34FE08376526A54","019cf819-3645-7b27-9ad8-a2e53873bf5d","019cf80d-4266-7117-8a51-54e13c84aca4","","null","
                <div class=""stimulus-container"">
                    <img src=""images/schematic_sequence/interview_scheme/interview_scheme_9.png"" class=""exp-image"">
                    <div class=""question-area""></div> 
                </div>","null","","","","","","","","",""
"","","","","","html-button-response","139","475076","0.0-139.0","E2B18FF9668D4D87A34FE08376526A54","019cf819-3645-7b27-9ad8-a2e53873bf5d","019cf80d-4266-7117-8a51-54e13c84aca4","","1656","
                <div class=""stimulus-container"">
                    <img src=""images/schematic_sequence/interview_scheme/interview_scheme_9.png"" class=""exp-image"">
                    <div class=""question-area"">
                        <p style=""font-size: 20px; font-weight: bold; margin: 0;"">Is there a person in this image?</p>
                    </div>
                </div>","0","main_experiment_trial","9","interview_scheme","schematic_sequence","","","","",""
"","","","","","html-keyboard-response","140","480087","0.0-140.0","E2B18FF9668D4D87A34FE08376526A54","019cf819-3645-7b27-9ad8-a2e53873bf5d","019cf80d-4266-7117-8a51-54e13c84aca4","","null","
                <div class=""stimulus-container"">
                    <img src=""images/schematic_sequence/interview_scheme/interview_scheme_ten.png"" class=""exp-image"">
                    <div class=""question-area""></div> 
                </div>","null","","","","","","","","",""
"","","","","","html-button-response","141","480534","0.0-141.0","E2B18FF9668D4D87A34FE08376526A54","019cf819-3645-7b27-9ad8-a2e53873bf5d","019cf80d-4266-7117-8a51-54e13c84aca4","","446","
                <div class=""stimulus-container"">
                    <img src=""images/schematic_sequence/interview_scheme/interview_scheme_ten.png"" class=""exp-image"">
                    <div class=""question-area"">
                        <p style=""font-size: 20px; font-weight: bold; margin: 0;"">Is there a person in this image?</p>
                    </div>
                </div>","0","main_experiment_trial","ten","interview_scheme","schematic_sequence","","","","",""
"","","","","","html-keyboard-response","142","481545","0.0-142.0","E2B18FF9668D4D87A34FE08376526A54","019cf819-3645-7b27-9ad8-a2e53873bf5d","019cf80d-4266-7117-8a51-54e13c84aca4","","null","<div style=""background-color: white; width: 100vw; height: 100vh;""></div>","null","","","","","","","","",""
"","","","","","html-keyboard-response","143","486555","0.0-143.0","E2B18FF9668D4D87A34FE08376526A54","019cf819-3645-7b27-9ad8-a2e53873bf5d","019cf80d-4266-7117-8a51-54e13c84aca4","","null","
                <div class=""stimulus-container"">
                    <img src=""images/schematic_sequence/flight_scheme/flight_scheme_1.png"" class=""exp-image"">
                    <div class=""question-area""></div> 
                </div>","null","","","","","","","","",""
"","","","","","html-button-response","144","487250","0.0-144.0","E2B18FF9668D4D87A34FE08376526A54","019cf819-3645-7b27-9ad8-a2e53873bf5d","019cf80d-4266-7117-8a51-54e13c84aca4","","694","
                <div class=""stimulus-container"">
                    <img src=""images/schematic_sequence/flight_scheme/flight_scheme_1.png"" class=""exp-image"">
                    <div class=""question-area"">
                        <p style=""font-size: 20px; font-weight: bold; margin: 0;"">Is there a person in this image?</p>
                    </div>
                </div>","1","main_experiment_trial","1","flight_scheme","schematic_sequence","","","","",""
"","","","","","html-keyboard-response","145","492263","0.0-145.0","E2B18FF9668D4D87A34FE08376526A54","019cf819-3645-7b27-9ad8-a2e53873bf5d","019cf80d-4266-7117-8a51-54e13c84aca4","","null","
                <div class=""stimulus-container"">
                    <img src=""images/schematic_sequence/flight_scheme/flight_scheme_2.png"" class=""exp-image"">
                    <div class=""question-area""></div> 
                </div>","null","","","","","","","","",""
"","","","","","html-button-response","146","493450","0.0-146.0","E2B18FF9668D4D87A34FE08376526A54","019cf819-3645-7b27-9ad8-a2e53873bf5d","019cf80d-4266-7117-8a51-54e13c84aca4","","1186","
                <div class=""stimulus-container"">
                    <img src=""images/schematic_sequence/flight_scheme/flight_scheme_2.png"" class=""exp-image"">
                    <div class=""question-area"">
                        <p style=""font-size: 20px; font-weight: bold; margin: 0;"">Is there a person in this image?</p>
                    </div>
                </div>","1","main_experiment_trial","2","flight_scheme","schematic_sequence","","","","",""
"","","","","","html-keyboard-response","147","498459","0.0-147.0","E2B18FF9668D4D87A34FE08376526A54","019cf819-3645-7b27-9ad8-a2e53873bf5d","019cf80d-4266-7117-8a51-54e13c84aca4","","null","
                <div class=""stimulus-container"">
                    <img src=""images/schematic_sequence/flight_scheme/flight_scheme_3.png"" class=""exp-image"">
                    <div class=""question-area""></div> 
                </div>","null","","","","","","","","",""
"","","","","","html-button-response","148","499078","0.0-148.0","E2B18FF9668D4D87A34FE08376526A54","019cf819-3645-7b27-9ad8-a2e53873bf5d","019cf80d-4266-7117-8a51-54e13c84aca4","","619","
                <div class=""stimulus-container"">
                    <img src=""images/schematic_sequence/flight_scheme/flight_scheme_3.png"" class=""exp-image"">
                    <div class=""question-area"">
                        <p style=""font-size: 20px; font-weight: bold; margin: 0;"">Is there a person in this image?</p>
                    </div>
                </div>","0","main_experiment_trial","3","flight_scheme","schematic_sequence","","","","",""
"","","","","","html-keyboard-response","149","504092","0.0-149.0","E2B18FF9668D4D87A34FE08376526A54","019cf819-3645-7b27-9ad8-a2e53873bf5d","019cf80d-4266-7117-8a51-54e13c84aca4","","null","
                <div class=""stimulus-container"">
                    <img src=""images/schematic_sequence/flight_scheme/flight_scheme_4.png"" class=""exp-image"">
                    <div class=""question-area""></div> 
                </div>","null","","","","","","","","",""
"","","","","","html-button-response","150","504622","0.0-150.0","E2B18FF9668D4D87A34FE08376526A54","019cf819-3645-7b27-9ad8-a2e53873bf5d","019cf80d-4266-7117-8a51-54e13c84aca4","","530","
                <div class=""stimulus-container"">
                    <img src=""images/schematic_sequence/flight_scheme/flight_scheme_4.png"" class=""exp-image"">
                    <div class=""question-area"">
                        <p style=""font-size: 20px; font-weight: bold; margin: 0;"">Is there a person in this image?</p>
                    </div>
                </div>","0","main_experiment_trial","4","flight_scheme","schematic_sequence","","","","",""
"","","","","","html-keyboard-response","151","509632","0.0-151.0","E2B18FF9668D4D87A34FE08376526A54","019cf819-3645-7b27-9ad8-a2e53873bf5d","019cf80d-4266-7117-8a51-54e13c84aca4","","null","
                <div class=""stimulus-container"">
                    <img src=""images/schematic_sequence/flight_scheme/flight_scheme_5.png"" class=""exp-image"">
                    <div class=""question-area""></div> 
                </div>","null","","","","","","","","",""
"","","","","","html-button-response","152","510249","0.0-152.0","E2B18FF9668D4D87A34FE08376526A54","019cf819-3645-7b27-9ad8-a2e53873bf5d","019cf80d-4266-7117-8a51-54e13c84aca4","","616","
                <div class=""stimulus-container"">
                    <img src=""images/schematic_sequence/flight_scheme/flight_scheme_5.png"" class=""exp-image"">
                    <div class=""question-area"">
                        <p style=""font-size: 20px; font-weight: bold; margin: 0;"">Is there a person in this image?</p>
                    </div>
                </div>","0","main_experiment_trial","5","flight_scheme","schematic_sequence","","","","",""
"","","","","","html-keyboard-response","153","515254","0.0-153.0","E2B18FF9668D4D87A34FE08376526A54","019cf819-3645-7b27-9ad8-a2e53873bf5d","019cf80d-4266-7117-8a51-54e13c84aca4","","null","
                <div class=""stimulus-container"">
                    <img src=""images/schematic_sequence/flight_scheme/flight_scheme_6.png"" class=""exp-image"">
                    <div class=""question-area""></div> 
                </div>","null","","","","","","","","",""
"","","","","","html-button-response","154","516273","0.0-154.0","E2B18FF9668D4D87A34FE08376526A54","019cf819-3645-7b27-9ad8-a2e53873bf5d","019cf80d-4266-7117-8a51-54e13c84aca4","","1019","
                <div class=""stimulus-container"">
                    <img src=""images/schematic_sequence/flight_scheme/flight_scheme_6.png"" class=""exp-image"">
                    <div class=""question-area"">
                        <p style=""font-size: 20px; font-weight: bold; margin: 0;"">Is there a person in this image?</p>
                    </div>
                </div>","1","main_experiment_trial","6","flight_scheme","schematic_sequence","","","","",""
"","","","","","html-keyboard-response","155","521287","0.0-155.0","E2B18FF9668D4D87A34FE08376526A54","019cf819-3645-7b27-9ad8-a2e53873bf5d","019cf80d-4266-7117-8a51-54e13c84aca4","","null","
                <div class=""stimulus-container"">
                    <img src=""images/schematic_sequence/flight_scheme/flight_scheme_7.png"" class=""exp-image"">
                    <div class=""question-area""></div> 
                </div>","null","","","","","","","","",""
"","","","","","html-button-response","156","521769","0.0-156.0","E2B18FF9668D4D87A34FE08376526A54","019cf819-3645-7b27-9ad8-a2e53873bf5d","019cf80d-4266-7117-8a51-54e13c84aca4","","481","
                <div class=""stimulus-container"">
                    <img src=""images/schematic_sequence/flight_scheme/flight_scheme_7.png"" class=""exp-image"">
                    <div class=""question-area"">
                        <p style=""font-size: 20px; font-weight: bold; margin: 0;"">Is there a person in this image?</p>
                    </div>
                </div>","1","main_experiment_trial","7","flight_scheme","schematic_sequence","","","","",""
"","","","","","html-keyboard-response","157","526783","0.0-157.0","E2B18FF9668D4D87A34FE08376526A54","019cf819-3645-7b27-9ad8-a2e53873bf5d","019cf80d-4266-7117-8a51-54e13c84aca4","","null","
                <div class=""stimulus-container"">
                    <img src=""images/schematic_sequence/flight_scheme/flight_scheme_8.png"" class=""exp-image"">
                    <div class=""question-area""></div> 
                </div>","null","","","","","","","","",""
"","","","","","html-button-response","158","527333","0.0-158.0","E2B18FF9668D4D87A34FE08376526A54","019cf819-3645-7b27-9ad8-a2e53873bf5d","019cf80d-4266-7117-8a51-54e13c84aca4","","549","
                <div class=""stimulus-container"">
                    <img src=""images/schematic_sequence/flight_scheme/flight_scheme_8.png"" class=""exp-image"">
                    <div class=""question-area"">
                        <p style=""font-size: 20px; font-weight: bold; margin: 0;"">Is there a person in this image?</p>
                    </div>
                </div>","1","main_experiment_trial","8","flight_scheme","schematic_sequence","","","","",""
"","","","","","html-keyboard-response","159","532339","0.0-159.0","E2B18FF9668D4D87A34FE08376526A54","019cf819-3645-7b27-9ad8-a2e53873bf5d","019cf80d-4266-7117-8a51-54e13c84aca4","","null","
                <div class=""stimulus-container"">
                    <img src=""images/schematic_sequence/flight_scheme/flight_scheme_9.png"" class=""exp-image"">
                    <div class=""question-area""></div> 
                </div>","null","","","","","","","","",""
"","","","","","html-button-response","160","532757","0.0-160.0","E2B18FF9668D4D87A34FE08376526A54","019cf819-3645-7b27-9ad8-a2e53873bf5d","019cf80d-4266-7117-8a51-54e13c84aca4","","418","
                <div class=""stimulus-container"">
                    <img src=""images/schematic_sequence/flight_scheme/flight_scheme_9.png"" class=""exp-image"">
                    <div class=""question-area"">
                        <p style=""font-size: 20px; font-weight: bold; margin: 0;"">Is there a person in this image?</p>
                    </div>
                </div>","0","main_experiment_trial","9","flight_scheme","schematic_sequence","","","","",""
"","","","","","html-keyboard-response","161","537766","0.0-161.0","E2B18FF9668D4D87A34FE08376526A54","019cf819-3645-7b27-9ad8-a2e53873bf5d","019cf80d-4266-7117-8a51-54e13c84aca4","","null","
                <div class=""stimulus-container"">
                    <img src=""images/schematic_sequence/flight_scheme/flight_scheme_ten.png"" class=""exp-image"">
                    <div class=""question-area""></div> 
                </div>","null","","","","","","","","",""
"","","","","","html-button-response","162","538459","0.0-162.0","E2B18FF9668D4D87A34FE08376526A54","019cf819-3645-7b27-9ad8-a2e53873bf5d","019cf80d-4266-7117-8a51-54e13c84aca4","","693","
                <div class=""stimulus-container"">
                    <img src=""images/schematic_sequence/flight_scheme/flight_scheme_ten.png"" class=""exp-image"">
                    <div class=""question-area"">
                        <p style=""font-size: 20px; font-weight: bold; margin: 0;"">Is there a person in this image?</p>
                    </div>
                </div>","0","main_experiment_trial","ten","flight_scheme","schematic_sequence","","","","",""
"","","","","","html-keyboard-response","163","539465","0.0-163.0","E2B18FF9668D4D87A34FE08376526A54","019cf819-3645-7b27-9ad8-a2e53873bf5d","019cf80d-4266-7117-8a51-54e13c84aca4","","null","<div style=""background-color: white; width: 100vw; height: 100vh;""></div>","null","","","","","","","","",""
"","","","","","html-keyboard-response","164","544474","0.0-164.0","E2B18FF9668D4D87A34FE08376526A54","019cf819-3645-7b27-9ad8-a2e53873bf5d","019cf80d-4266-7117-8a51-54e13c84aca4","","null","
                <div class=""stimulus-container"">
                    <img src=""images/semantic_sequence/cat_care_semantic/cat_care_semantic_1.png"" class=""exp-image"">
                    <div class=""question-area""></div> 
                </div>","null","","","","","","","","",""
"","","","","","html-button-response","165","544977","0.0-165.0","E2B18FF9668D4D87A34FE08376526A54","019cf819-3645-7b27-9ad8-a2e53873bf5d","019cf80d-4266-7117-8a51-54e13c84aca4","","502","
                <div class=""stimulus-container"">
                    <img src=""images/semantic_sequence/cat_care_semantic/cat_care_semantic_1.png"" class=""exp-image"">
                    <div class=""question-area"">
                        <p style=""font-size: 20px; font-weight: bold; margin: 0;"">Is there a person in this image?</p>
                    </div>
                </div>","0","main_experiment_trial","1","cat_care_semantic","semantic_sequence","","","","",""
"","","","","","html-keyboard-response","166","549991","0.0-166.0","E2B18FF9668D4D87A34FE08376526A54","019cf819-3645-7b27-9ad8-a2e53873bf5d","019cf80d-4266-7117-8a51-54e13c84aca4","","null","
                <div class=""stimulus-container"">
                    <img src=""images/semantic_sequence/cat_care_semantic/cat_care_semantic_2.png"" class=""exp-image"">
                    <div class=""question-area""></div> 
                </div>","null","","","","","","","","",""
"","","","","","html-button-response","167","550738","0.0-167.0","E2B18FF9668D4D87A34FE08376526A54","019cf819-3645-7b27-9ad8-a2e53873bf5d","019cf80d-4266-7117-8a51-54e13c84aca4","","746","
                <div class=""stimulus-container"">
                    <img src=""images/semantic_sequence/cat_care_semantic/cat_care_semantic_2.png"" class=""exp-image"">
                    <div class=""question-area"">
                        <p style=""font-size: 20px; font-weight: bold; margin: 0;"">Is there a person in this image?</p>
                    </div>
                </div>","1","main_experiment_trial","2","cat_care_semantic","semantic_sequence","","","","",""
"","","","","","html-keyboard-response","168","555748","0.0-168.0","E2B18FF9668D4D87A34FE08376526A54","019cf819-3645-7b27-9ad8-a2e53873bf5d","019cf80d-4266-7117-8a51-54e13c84aca4","","null","
                <div class=""stimulus-container"">
                    <img src=""images/semantic_sequence/cat_care_semantic/cat_care_semantic_3.png"" class=""exp-image"">
                    <div class=""question-area""></div> 
                </div>","null","","","","","","","","",""
"","","","","","html-button-response","169","556226","0.0-169.0","E2B18FF9668D4D87A34FE08376526A54","019cf819-3645-7b27-9ad8-a2e53873bf5d","019cf80d-4266-7117-8a51-54e13c84aca4","","477","
                <div class=""stimulus-container"">
                    <img src=""images/semantic_sequence/cat_care_semantic/cat_care_semantic_3.png"" class=""exp-image"">
                    <div class=""question-area"">
                        <p style=""font-size: 20px; font-weight: bold; margin: 0;"">Is there a person in this image?</p>
                    </div>
                </div>","1","main_experiment_trial","3","cat_care_semantic","semantic_sequence","","","","",""
"","","","","","html-keyboard-response","170","561230","0.0-170.0","E2B18FF9668D4D87A34FE08376526A54","019cf819-3645-7b27-9ad8-a2e53873bf5d","019cf80d-4266-7117-8a51-54e13c84aca4","","null","
                <div class=""stimulus-container"">
                    <img src=""images/semantic_sequence/cat_care_semantic/cat_care_semantic_4.png"" class=""exp-image"">
                    <div class=""question-area""></div> 
                </div>","null","","","","","","","","",""
"","","","","","html-button-response","171","562268","0.0-171.0","E2B18FF9668D4D87A34FE08376526A54","019cf819-3645-7b27-9ad8-a2e53873bf5d","019cf80d-4266-7117-8a51-54e13c84aca4","","1037","
                <div class=""stimulus-container"">
                    <img src=""images/semantic_sequence/cat_care_semantic/cat_care_semantic_4.png"" class=""exp-image"">
                    <div class=""question-area"">
                        <p style=""font-size: 20px; font-weight: bold; margin: 0;"">Is there a person in this image?</p>
                    </div>
                </div>","1","main_experiment_trial","4","cat_care_semantic","semantic_sequence","","","","",""
"","","","","","html-keyboard-response","172","567270","0.0-172.0","E2B18FF9668D4D87A34FE08376526A54","019cf819-3645-7b27-9ad8-a2e53873bf5d","019cf80d-4266-7117-8a51-54e13c84aca4","","null","
                <div class=""stimulus-container"">
                    <img src=""images/semantic_sequence/cat_care_semantic/cat_care_semantic_5.png"" class=""exp-image"">
                    <div class=""question-area""></div> 
                </div>","null","","","","","","","","",""
"","","","","","html-button-response","173","568106","0.0-173.0","E2B18FF9668D4D87A34FE08376526A54","019cf819-3645-7b27-9ad8-a2e53873bf5d","019cf80d-4266-7117-8a51-54e13c84aca4","","835","
                <div class=""stimulus-container"">
                    <img src=""images/semantic_sequence/cat_care_semantic/cat_care_semantic_5.png"" class=""exp-image"">
                    <div class=""question-area"">
                        <p style=""font-size: 20px; font-weight: bold; margin: 0;"">Is there a person in this image?</p>
                    </div>
                </div>","0","main_experiment_trial","5","cat_care_semantic","semantic_sequence","","","","",""
"","","","","","html-keyboard-response","174","573121","0.0-174.0","E2B18FF9668D4D87A34FE08376526A54","019cf819-3645-7b27-9ad8-a2e53873bf5d","019cf80d-4266-7117-8a51-54e13c84aca4","","null","
                <div class=""stimulus-container"">
                    <img src=""images/semantic_sequence/cat_care_semantic/cat_care_semantic_6.png"" class=""exp-image"">
                    <div class=""question-area""></div> 
                </div>","null","","","","","","","","",""
"","","","","","html-button-response","175","573652","0.0-175.0","E2B18FF9668D4D87A34FE08376526A54","019cf819-3645-7b27-9ad8-a2e53873bf5d","019cf80d-4266-7117-8a51-54e13c84aca4","","531","
                <div class=""stimulus-container"">
                    <img src=""images/semantic_sequence/cat_care_semantic/cat_care_semantic_6.png"" class=""exp-image"">
                    <div class=""question-area"">
                        <p style=""font-size: 20px; font-weight: bold; margin: 0;"">Is there a person in this image?</p>
                    </div>
                </div>","1","main_experiment_trial","6","cat_care_semantic","semantic_sequence","","","","",""
"","","","","","html-keyboard-response","176","578667","0.0-176.0","E2B18FF9668D4D87A34FE08376526A54","019cf819-3645-7b27-9ad8-a2e53873bf5d","019cf80d-4266-7117-8a51-54e13c84aca4","","null","
                <div class=""stimulus-container"">
                    <img src=""images/semantic_sequence/cat_care_semantic/cat_care_semantic_7.png"" class=""exp-image"">
                    <div class=""question-area""></div> 
                </div>","null","","","","","","","","",""
"","","","","","html-button-response","177","579124","0.0-177.0","E2B18FF9668D4D87A34FE08376526A54","019cf819-3645-7b27-9ad8-a2e53873bf5d","019cf80d-4266-7117-8a51-54e13c84aca4","","457","
                <div class=""stimulus-container"">
                    <img src=""images/semantic_sequence/cat_care_semantic/cat_care_semantic_7.png"" class=""exp-image"">
                    <div class=""question-area"">
                        <p style=""font-size: 20px; font-weight: bold; margin: 0;"">Is there a person in this image?</p>
                    </div>
                </div>","1","main_experiment_trial","7","cat_care_semantic","semantic_sequence","","","","",""
"","","","","","html-keyboard-response","178","584128","0.0-178.0","E2B18FF9668D4D87A34FE08376526A54","019cf819-3645-7b27-9ad8-a2e53873bf5d","019cf80d-4266-7117-8a51-54e13c84aca4","","null","
                <div class=""stimulus-container"">
                    <img src=""images/semantic_sequence/cat_care_semantic/cat_care_semantic_8.png"" class=""exp-image"">
                    <div class=""question-area""></div> 
                </div>","null","","","","","","","","",""
"","","","","","html-button-response","179","584554","0.0-179.0","E2B18FF9668D4D87A34FE08376526A54","019cf819-3645-7b27-9ad8-a2e53873bf5d","019cf80d-4266-7117-8a51-54e13c84aca4","","426","
                <div class=""stimulus-container"">
                    <img src=""images/semantic_sequence/cat_care_semantic/cat_care_semantic_8.png"" class=""exp-image"">
                    <div class=""question-area"">
                        <p style=""font-size: 20px; font-weight: bold; margin: 0;"">Is there a person in this image?</p>
                    </div>
                </div>","1","main_experiment_trial","8","cat_care_semantic","semantic_sequence","","","","",""
"","","","","","html-keyboard-response","180","589557","0.0-180.0","E2B18FF9668D4D87A34FE08376526A54","019cf819-3645-7b27-9ad8-a2e53873bf5d","019cf80d-4266-7117-8a51-54e13c84aca4","","null","
                <div class=""stimulus-container"">
