"success","timeout","failed_images","failed_audio","failed_video","trial_type","trial_index","time_elapsed","internal_node_id","subject_id","study_id","session_id","view_history","rt","stimulus","response","task","image_index","folder","sequence_type","valuable_image_index","reward_type","chosen_image_index","target_X","correct_choice"
"true","false","[]","[]","[]","preload","0","6502","0.0-0.0","6E3C709570804E69811BC7A92D030A32","019cf4af-4f0f-7acb-b7a3-3e7e14ab8b8b","019cf498-06e0-702e-b525-9cde1ad77653","","","","","","","","","","","","",""
"","","","","","instructions","1","8473","0.0-1.0","6E3C709570804E69811BC7A92D030A32","019cf4af-4f0f-7acb-b7a3-3e7e14ab8b8b","019cf498-06e0-702e-b525-9cde1ad77653","[{""page_index"":0,""viewing_time"":1970}]","1970","","","","","","","","","","",""
"","","","","","instructions","2","17681","0.0-2.0","6E3C709570804E69811BC7A92D030A32","019cf4af-4f0f-7acb-b7a3-3e7e14ab8b8b","019cf498-06e0-702e-b525-9cde1ad77653","[{""page_index"":0,""viewing_time"":9199}]","9207","","","","","","","","","","",""
"true","","","","","fullscreen","3","20560","0.0-3.0","6E3C709570804E69811BC7A92D030A32","019cf4af-4f0f-7acb-b7a3-3e7e14ab8b8b","019cf498-06e0-702e-b525-9cde1ad77653","","1875","","","","","","","","","","",""
"","","","","","instructions","4","27524","0.0-4.0","6E3C709570804E69811BC7A92D030A32","019cf4af-4f0f-7acb-b7a3-3e7e14ab8b8b","019cf498-06e0-702e-b525-9cde1ad77653","[{""page_index"":0,""viewing_time"":6963}]","6964","","","","","","","","","","",""
"","","","","","instructions","5","55856","0.0-5.0","6E3C709570804E69811BC7A92D030A32","019cf4af-4f0f-7acb-b7a3-3e7e14ab8b8b","019cf498-06e0-702e-b525-9cde1ad77653","[{""page_index"":0,""viewing_time"":28331}]","28332","","","","","","","","","","",""
"","","","","","html-keyboard-response","6","59873","0.0-6.0","6E3C709570804E69811BC7A92D030A32","019cf4af-4f0f-7acb-b7a3-3e7e14ab8b8b","019cf498-06e0-702e-b525-9cde1ad77653","","null","
                <div class=""stimulus-container"">
                    <img src=""images/instructions/movie_1.png"" class=""exp-image"">
                    <div class=""question-area""></div> 
                </div>","null","","","","","","","","",""
"","","","","","html-button-response","7","61389","0.0-7.0","6E3C709570804E69811BC7A92D030A32","019cf4af-4f0f-7acb-b7a3-3e7e14ab8b8b","019cf498-06e0-702e-b525-9cde1ad77653","","1502","
                <div class=""stimulus-container"">
                    <img src=""images/instructions/movie_1.png"" class=""exp-image"">
                    <div class=""question-area"">
                        <p style=""font-size: 20px; font-weight: bold; margin: 0;"">Was there a person in this image?</p>
                    </div>
                </div>","0","example_question","1","","","","","","",""
"","","","","","html-keyboard-response","8","65405","0.0-8.0","6E3C709570804E69811BC7A92D030A32","019cf4af-4f0f-7acb-b7a3-3e7e14ab8b8b","019cf498-06e0-702e-b525-9cde1ad77653","","null","
                <div class=""stimulus-container"">
                    <img src=""images/instructions/movie_2.png"" class=""exp-image"">
                    <div class=""question-area""></div> 
                </div>","null","","","","","","","","",""
"","","","","","html-button-response","9","66172","0.0-9.0","6E3C709570804E69811BC7A92D030A32","019cf4af-4f0f-7acb-b7a3-3e7e14ab8b8b","019cf498-06e0-702e-b525-9cde1ad77653","","748","
                <div class=""stimulus-container"">
                    <img src=""images/instructions/movie_2.png"" class=""exp-image"">
                    <div class=""question-area"">
                        <p style=""font-size: 20px; font-weight: bold; margin: 0;"">Was there a person in this image?</p>
                    </div>
                </div>","0","example_question","2","","","","","","",""
"","","","","","html-keyboard-response","10","70189","0.0-10.0","6E3C709570804E69811BC7A92D030A32","019cf4af-4f0f-7acb-b7a3-3e7e14ab8b8b","019cf498-06e0-702e-b525-9cde1ad77653","","null","
                <div class=""stimulus-container"">
                    <img src=""images/instructions/movie_3.png"" class=""exp-image"">
                    <div class=""question-area""></div> 
                </div>","null","","","","","","","","",""
"","","","","","html-button-response","11","71023","0.0-11.0","6E3C709570804E69811BC7A92D030A32","019cf4af-4f0f-7acb-b7a3-3e7e14ab8b8b","019cf498-06e0-702e-b525-9cde1ad77653","","819","
                <div class=""stimulus-container"">
                    <img src=""images/instructions/movie_3.png"" class=""exp-image"">
                    <div class=""question-area"">
                        <p style=""font-size: 20px; font-weight: bold; margin: 0;"">Was there a person in this image?</p>
                    </div>
                </div>","0","example_question","3","","","","","","",""
"","","","","","html-keyboard-response","12","75041","0.0-12.0","6E3C709570804E69811BC7A92D030A32","019cf4af-4f0f-7acb-b7a3-3e7e14ab8b8b","019cf498-06e0-702e-b525-9cde1ad77653","","null","
                <div class=""stimulus-container"">
                    <img src=""images/instructions/movie_4.png"" class=""exp-image"">
                    <div class=""question-area""></div> 
                </div>","null","","","","","","","","",""
"","","","","","html-button-response","13","76356","0.0-13.0","6E3C709570804E69811BC7A92D030A32","019cf4af-4f0f-7acb-b7a3-3e7e14ab8b8b","019cf498-06e0-702e-b525-9cde1ad77653","","1297","
                <div class=""stimulus-container"">
                    <img src=""images/instructions/movie_4.png"" class=""exp-image"">
                    <div class=""question-area"">
                        <p style=""font-size: 20px; font-weight: bold; margin: 0;"">Was there a person in this image?</p>
                    </div>
                </div>","0","example_question","4","","","","","","",""
"","","","","","instructions","14","90972","0.0-14.0","6E3C709570804E69811BC7A92D030A32","019cf4af-4f0f-7acb-b7a3-3e7e14ab8b8b","019cf498-06e0-702e-b525-9cde1ad77653","[{""page_index"":0,""viewing_time"":14616}]","14616","","","","","","","","","","",""
"","","","","","instructions","15","97473","0.0-15.0","6E3C709570804E69811BC7A92D030A32","019cf4af-4f0f-7acb-b7a3-3e7e14ab8b8b","019cf498-06e0-702e-b525-9cde1ad77653","[{""page_index"":0,""viewing_time"":6499}]","6500","","","","","","","","","","",""
"","","","","","html-keyboard-response","16","98475","0.0-16.0","6E3C709570804E69811BC7A92D030A32","019cf4af-4f0f-7acb-b7a3-3e7e14ab8b8b","019cf498-06e0-702e-b525-9cde1ad77653","","null","<div style=""background-color: white; width: 100vw; height: 100vh;""></div>","null","","","","","","","","",""
"","","","","","html-keyboard-response","17","103493","0.0-17.0","6E3C709570804E69811BC7A92D030A32","019cf4af-4f0f-7acb-b7a3-3e7e14ab8b8b","019cf498-06e0-702e-b525-9cde1ad77653","","null","
                <div class=""stimulus-container"">
                    <img src=""images/schematic_sequence/hotel_scheme/hotel_scheme_1.png"" class=""exp-image"">
                    <div class=""question-area""></div> 
                </div>","null","","","","","","","","",""
"","","","","","html-button-response","18","104623","0.0-18.0","6E3C709570804E69811BC7A92D030A32","019cf4af-4f0f-7acb-b7a3-3e7e14ab8b8b","019cf498-06e0-702e-b525-9cde1ad77653","","1115","
                <div class=""stimulus-container"">
                    <img src=""images/schematic_sequence/hotel_scheme/hotel_scheme_1.png"" class=""exp-image"">
                    <div class=""question-area"">
                        <p style=""font-size: 20px; font-weight: bold; margin: 0;"">Is there a person in this image?</p>
                    </div>
                </div>","1","main_experiment_trial","1","hotel_scheme","schematic_sequence","","","","",""
"","","","","","html-keyboard-response","19","109639","0.0-19.0","6E3C709570804E69811BC7A92D030A32","019cf4af-4f0f-7acb-b7a3-3e7e14ab8b8b","019cf498-06e0-702e-b525-9cde1ad77653","","null","
                <div class=""stimulus-container"">
                    <img src=""images/schematic_sequence/hotel_scheme/hotel_scheme_2.png"" class=""exp-image"">
                    <div class=""question-area""></div> 
                </div>","null","","","","","","","","",""
"","","","","","html-button-response","20","110339","0.0-20.0","6E3C709570804E69811BC7A92D030A32","019cf4af-4f0f-7acb-b7a3-3e7e14ab8b8b","019cf498-06e0-702e-b525-9cde1ad77653","","684","
                <div class=""stimulus-container"">
                    <img src=""images/schematic_sequence/hotel_scheme/hotel_scheme_2.png"" class=""exp-image"">
                    <div class=""question-area"">
                        <p style=""font-size: 20px; font-weight: bold; margin: 0;"">Is there a person in this image?</p>
                    </div>
                </div>","0","main_experiment_trial","2","hotel_scheme","schematic_sequence","","","","",""
"","","","","","html-keyboard-response","21","115356","0.0-21.0","6E3C709570804E69811BC7A92D030A32","019cf4af-4f0f-7acb-b7a3-3e7e14ab8b8b","019cf498-06e0-702e-b525-9cde1ad77653","","null","
                <div class=""stimulus-container"">
                    <img src=""images/schematic_sequence/hotel_scheme/hotel_scheme_3.png"" class=""exp-image"">
                    <div class=""question-area""></div> 
                </div>","null","","","","","","","","",""
"","","","","","html-button-response","22","116256","0.0-22.0","6E3C709570804E69811BC7A92D030A32","019cf4af-4f0f-7acb-b7a3-3e7e14ab8b8b","019cf498-06e0-702e-b525-9cde1ad77653","","882","
                <div class=""stimulus-container"">
                    <img src=""images/schematic_sequence/hotel_scheme/hotel_scheme_3.png"" class=""exp-image"">
                    <div class=""question-area"">
                        <p style=""font-size: 20px; font-weight: bold; margin: 0;"">Is there a person in this image?</p>
                    </div>
                </div>","0","main_experiment_trial","3","hotel_scheme","schematic_sequence","","","","",""
"","","","","","html-keyboard-response","23","121273","0.0-23.0","6E3C709570804E69811BC7A92D030A32","019cf4af-4f0f-7acb-b7a3-3e7e14ab8b8b","019cf498-06e0-702e-b525-9cde1ad77653","","null","
                <div class=""stimulus-container"">
                    <img src=""images/schematic_sequence/hotel_scheme/hotel_scheme_4.png"" class=""exp-image"">
                    <div class=""question-area""></div> 
                </div>","null","","","","","","","","",""
"","","","","","html-button-response","24","122156","0.0-24.0","6E3C709570804E69811BC7A92D030A32","019cf4af-4f0f-7acb-b7a3-3e7e14ab8b8b","019cf498-06e0-702e-b525-9cde1ad77653","","865","
                <div class=""stimulus-container"">
                    <img src=""images/schematic_sequence/hotel_scheme/hotel_scheme_4.png"" class=""exp-image"">
                    <div class=""question-area"">
                        <p style=""font-size: 20px; font-weight: bold; margin: 0;"">Is there a person in this image?</p>
                    </div>
                </div>","1","main_experiment_trial","4","hotel_scheme","schematic_sequence","","","","",""
"","","","","","html-keyboard-response","25","127173","0.0-25.0","6E3C709570804E69811BC7A92D030A32","019cf4af-4f0f-7acb-b7a3-3e7e14ab8b8b","019cf498-06e0-702e-b525-9cde1ad77653","","null","
                <div class=""stimulus-container"">
                    <img src=""images/schematic_sequence/hotel_scheme/hotel_scheme_5.png"" class=""exp-image"">
                    <div class=""question-area""></div> 
                </div>","null","","","","","","","","",""
"","","","","","html-button-response","26","129405","0.0-26.0","6E3C709570804E69811BC7A92D030A32","019cf4af-4f0f-7acb-b7a3-3e7e14ab8b8b","019cf498-06e0-702e-b525-9cde1ad77653","","2213","
                <div class=""stimulus-container"">
                    <img src=""images/schematic_sequence/hotel_scheme/hotel_scheme_5.png"" class=""exp-image"">
                    <div class=""question-area"">
                        <p style=""font-size: 20px; font-weight: bold; margin: 0;"">Is there a person in this image?</p>
                    </div>
                </div>","0","main_experiment_trial","5","hotel_scheme","schematic_sequence","","","","",""
"","","","","","html-keyboard-response","27","134419","0.0-27.0","6E3C709570804E69811BC7A92D030A32","019cf4af-4f0f-7acb-b7a3-3e7e14ab8b8b","019cf498-06e0-702e-b525-9cde1ad77653","","null","
                <div class=""stimulus-container"">
                    <img src=""images/schematic_sequence/hotel_scheme/hotel_scheme_6.png"" class=""exp-image"">
                    <div class=""question-area""></div> 
                </div>","null","","","","","","","","",""
"","","","","","html-button-response","28","135121","0.0-28.0","6E3C709570804E69811BC7A92D030A32","019cf4af-4f0f-7acb-b7a3-3e7e14ab8b8b","019cf498-06e0-702e-b525-9cde1ad77653","","686","
                <div class=""stimulus-container"">
                    <img src=""images/schematic_sequence/hotel_scheme/hotel_scheme_6.png"" class=""exp-image"">
                    <div class=""question-area"">
                        <p style=""font-size: 20px; font-weight: bold; margin: 0;"">Is there a person in this image?</p>
                    </div>
                </div>","0","main_experiment_trial","6","hotel_scheme","schematic_sequence","","","","",""
"","","","","","html-keyboard-response","29","140138","0.0-29.0","6E3C709570804E69811BC7A92D030A32","019cf4af-4f0f-7acb-b7a3-3e7e14ab8b8b","019cf498-06e0-702e-b525-9cde1ad77653","","null","
                <div class=""stimulus-container"">
                    <img src=""images/schematic_sequence/hotel_scheme/hotel_scheme_7.png"" class=""exp-image"">
                    <div class=""question-area""></div> 
                </div>","null","","","","","","","","",""
"","","","","","html-button-response","30","140772","0.0-30.0","6E3C709570804E69811BC7A92D030A32","019cf4af-4f0f-7acb-b7a3-3e7e14ab8b8b","019cf498-06e0-702e-b525-9cde1ad77653","","615","
                <div class=""stimulus-container"">
                    <img src=""images/schematic_sequence/hotel_scheme/hotel_scheme_7.png"" class=""exp-image"">
                    <div class=""question-area"">
                        <p style=""font-size: 20px; font-weight: bold; margin: 0;"">Is there a person in this image?</p>
                    </div>
                </div>","0","main_experiment_trial","7","hotel_scheme","schematic_sequence","","","","",""
"","","","","","html-keyboard-response","31","145790","0.0-31.0","6E3C709570804E69811BC7A92D030A32","019cf4af-4f0f-7acb-b7a3-3e7e14ab8b8b","019cf498-06e0-702e-b525-9cde1ad77653","","null","
                <div class=""stimulus-container"">
                    <img src=""images/schematic_sequence/hotel_scheme/hotel_scheme_8.png"" class=""exp-image"">
                    <div class=""question-area""></div> 
                </div>","null","","","","","","","","",""
"","","","","","html-button-response","32","146438","0.0-32.0","6E3C709570804E69811BC7A92D030A32","019cf4af-4f0f-7acb-b7a3-3e7e14ab8b8b","019cf498-06e0-702e-b525-9cde1ad77653","","629","
                <div class=""stimulus-container"">
                    <img src=""images/schematic_sequence/hotel_scheme/hotel_scheme_8.png"" class=""exp-image"">
                    <div class=""question-area"">
                        <p style=""font-size: 20px; font-weight: bold; margin: 0;"">Is there a person in this image?</p>
                    </div>
                </div>","0","main_experiment_trial","8","hotel_scheme","schematic_sequence","","","","",""
"","","","","","html-keyboard-response","33","151457","0.0-33.0","6E3C709570804E69811BC7A92D030A32","019cf4af-4f0f-7acb-b7a3-3e7e14ab8b8b","019cf498-06e0-702e-b525-9cde1ad77653","","null","
                <div class=""stimulus-container"">
                    <img src=""images/schematic_sequence/hotel_scheme/hotel_scheme_9.png"" class=""exp-image"">
                    <div class=""question-area""></div> 
                </div>","null","","","","","","","","",""
"","","","","","html-button-response","34","152272","0.0-34.0","6E3C709570804E69811BC7A92D030A32","019cf4af-4f0f-7acb-b7a3-3e7e14ab8b8b","019cf498-06e0-702e-b525-9cde1ad77653","","797","
                <div class=""stimulus-container"">
                    <img src=""images/schematic_sequence/hotel_scheme/hotel_scheme_9.png"" class=""exp-image"">
                    <div class=""question-area"">
                        <p style=""font-size: 20px; font-weight: bold; margin: 0;"">Is there a person in this image?</p>
                    </div>
                </div>","0","main_experiment_trial","9","hotel_scheme","schematic_sequence","","","","",""
"","","","","","html-keyboard-response","35","157288","0.0-35.0","6E3C709570804E69811BC7A92D030A32","019cf4af-4f0f-7acb-b7a3-3e7e14ab8b8b","019cf498-06e0-702e-b525-9cde1ad77653","","null","
                <div class=""stimulus-container"">
                    <img src=""images/schematic_sequence/hotel_scheme/hotel_scheme_ten.png"" class=""exp-image"">
                    <div class=""question-area""></div> 
                </div>","null","","","","","","","","",""
"","","","","","html-button-response","36","157956","0.0-36.0","6E3C709570804E69811BC7A92D030A32","019cf4af-4f0f-7acb-b7a3-3e7e14ab8b8b","019cf498-06e0-702e-b525-9cde1ad77653","","649","
                <div class=""stimulus-container"">
                    <img src=""images/schematic_sequence/hotel_scheme/hotel_scheme_ten.png"" class=""exp-image"">
                    <div class=""question-area"">
                        <p style=""font-size: 20px; font-weight: bold; margin: 0;"">Is there a person in this image?</p>
                    </div>
                </div>","0","main_experiment_trial","ten","hotel_scheme","schematic_sequence","","","","",""
"","","","","","html-keyboard-response","37","158959","0.0-37.0","6E3C709570804E69811BC7A92D030A32","019cf4af-4f0f-7acb-b7a3-3e7e14ab8b8b","019cf498-06e0-702e-b525-9cde1ad77653","","null","<div style=""background-color: white; width: 100vw; height: 100vh;""></div>","null","","","","","","","","",""
"","","","","","html-keyboard-response","38","163978","0.0-38.0","6E3C709570804E69811BC7A92D030A32","019cf4af-4f0f-7acb-b7a3-3e7e14ab8b8b","019cf498-06e0-702e-b525-9cde1ad77653","","null","
                <div class=""stimulus-container"">
                    <img src=""images/schematic_sequence/flight_scheme/flight_scheme_1.png"" class=""exp-image"">
                    <div class=""question-area""></div> 
                </div>","null","","","","","","","","",""
"","","","","","html-button-response","39","164639","0.0-39.0","6E3C709570804E69811BC7A92D030A32","019cf4af-4f0f-7acb-b7a3-3e7e14ab8b8b","019cf498-06e0-702e-b525-9cde1ad77653","","641","
                <div class=""stimulus-container"">
                    <img src=""images/schematic_sequence/flight_scheme/flight_scheme_1.png"" class=""exp-image"">
                    <div class=""question-area"">
                        <p style=""font-size: 20px; font-weight: bold; margin: 0;"">Is there a person in this image?</p>
                    </div>
                </div>","0","main_experiment_trial","1","flight_scheme","schematic_sequence","","","","",""
"","","","","","html-keyboard-response","40","169656","0.0-40.0","6E3C709570804E69811BC7A92D030A32","019cf4af-4f0f-7acb-b7a3-3e7e14ab8b8b","019cf498-06e0-702e-b525-9cde1ad77653","","null","
                <div class=""stimulus-container"">
                    <img src=""images/schematic_sequence/flight_scheme/flight_scheme_2.png"" class=""exp-image"">
                    <div class=""question-area""></div> 
                </div>","null","","","","","","","","",""
"","","","","","html-button-response","41","170722","0.0-41.0","6E3C709570804E69811BC7A92D030A32","019cf4af-4f0f-7acb-b7a3-3e7e14ab8b8b","019cf498-06e0-702e-b525-9cde1ad77653","","1047","
                <div class=""stimulus-container"">
                    <img src=""images/schematic_sequence/flight_scheme/flight_scheme_2.png"" class=""exp-image"">
                    <div class=""question-area"">
                        <p style=""font-size: 20px; font-weight: bold; margin: 0;"">Is there a person in this image?</p>
                    </div>
                </div>","1","main_experiment_trial","2","flight_scheme","schematic_sequence","","","","",""
"","","","","","html-keyboard-response","42","175741","0.0-42.0","6E3C709570804E69811BC7A92D030A32","019cf4af-4f0f-7acb-b7a3-3e7e14ab8b8b","019cf498-06e0-702e-b525-9cde1ad77653","","null","
                <div class=""stimulus-container"">
                    <img src=""images/schematic_sequence/flight_scheme/flight_scheme_3.png"" class=""exp-image"">
                    <div class=""question-area""></div> 
                </div>","null","","","","","","","","",""
"","","","","","html-button-response","43","177924","0.0-43.0","6E3C709570804E69811BC7A92D030A32","019cf4af-4f0f-7acb-b7a3-3e7e14ab8b8b","019cf498-06e0-702e-b525-9cde1ad77653","","2162","
                <div class=""stimulus-container"">
                    <img src=""images/schematic_sequence/flight_scheme/flight_scheme_3.png"" class=""exp-image"">
                    <div class=""question-area"">
                        <p style=""font-size: 20px; font-weight: bold; margin: 0;"">Is there a person in this image?</p>
                    </div>
                </div>","0","main_experiment_trial","3","flight_scheme","schematic_sequence","","","","",""
"","","","","","html-keyboard-response","44","182946","0.0-44.0","6E3C709570804E69811BC7A92D030A32","019cf4af-4f0f-7acb-b7a3-3e7e14ab8b8b","019cf498-06e0-702e-b525-9cde1ad77653","","null","
                <div class=""stimulus-container"">
                    <img src=""images/schematic_sequence/flight_scheme/flight_scheme_4.png"" class=""exp-image"">
                    <div class=""question-area""></div> 
                </div>","null","","","","","","","","",""
"","","","","","html-button-response","45","184161","0.0-45.0","6E3C709570804E69811BC7A92D030A32","019cf4af-4f0f-7acb-b7a3-3e7e14ab8b8b","019cf498-06e0-702e-b525-9cde1ad77653","","1196","
                <div class=""stimulus-container"">
                    <img src=""images/schematic_sequence/flight_scheme/flight_scheme_4.png"" class=""exp-image"">
                    <div class=""question-area"">
                        <p style=""font-size: 20px; font-weight: bold; margin: 0;"">Is there a person in this image?</p>
                    </div>
                </div>","0","main_experiment_trial","4","flight_scheme","schematic_sequence","","","","",""
"","","","","","html-keyboard-response","46","189179","0.0-46.0","6E3C709570804E69811BC7A92D030A32","019cf4af-4f0f-7acb-b7a3-3e7e14ab8b8b","019cf498-06e0-702e-b525-9cde1ad77653","","null","
                <div class=""stimulus-container"">
                    <img src=""images/schematic_sequence/flight_scheme/flight_scheme_5.png"" class=""exp-image"">
                    <div class=""question-area""></div> 
                </div>","null","","","","","","","","",""
"","","","","","html-button-response","47","189846","0.0-47.0","6E3C709570804E69811BC7A92D030A32","019cf4af-4f0f-7acb-b7a3-3e7e14ab8b8b","019cf498-06e0-702e-b525-9cde1ad77653","","651","
                <div class=""stimulus-container"">
                    <img src=""images/schematic_sequence/flight_scheme/flight_scheme_5.png"" class=""exp-image"">
                    <div class=""question-area"">
                        <p style=""font-size: 20px; font-weight: bold; margin: 0;"">Is there a person in this image?</p>
                    </div>
                </div>","0","main_experiment_trial","5","flight_scheme","schematic_sequence","","","","",""
"","","","","","html-keyboard-response","48","194864","0.0-48.0","6E3C709570804E69811BC7A92D030A32","019cf4af-4f0f-7acb-b7a3-3e7e14ab8b8b","019cf498-06e0-702e-b525-9cde1ad77653","","null","
                <div class=""stimulus-container"">
                    <img src=""images/schematic_sequence/flight_scheme/flight_scheme_6.png"" class=""exp-image"">
                    <div class=""question-area""></div> 
                </div>","null","","","","","","","","",""
"","","","","","html-button-response","49","195848","0.0-49.0","6E3C709570804E69811BC7A92D030A32","019cf4af-4f0f-7acb-b7a3-3e7e14ab8b8b","019cf498-06e0-702e-b525-9cde1ad77653","","966","
                <div class=""stimulus-container"">
                    <img src=""images/schematic_sequence/flight_scheme/flight_scheme_6.png"" class=""exp-image"">
                    <div class=""question-area"">
                        <p style=""font-size: 20px; font-weight: bold; margin: 0;"">Is there a person in this image?</p>
                    </div>
                </div>","1","main_experiment_trial","6","flight_scheme","schematic_sequence","","","","",""
"","","","","","html-keyboard-response","50","200865","0.0-50.0","6E3C709570804E69811BC7A92D030A32","019cf4af-4f0f-7acb-b7a3-3e7e14ab8b8b","019cf498-06e0-702e-b525-9cde1ad77653","","null","
                <div class=""stimulus-container"">
                    <img src=""images/schematic_sequence/flight_scheme/flight_scheme_7.png"" class=""exp-image"">
                    <div class=""question-area""></div> 
                </div>","null","","","","","","","","",""
"","","","","","html-button-response","51","201833","0.0-51.0","6E3C709570804E69811BC7A92D030A32","019cf4af-4f0f-7acb-b7a3-3e7e14ab8b8b","019cf498-06e0-702e-b525-9cde1ad77653","","952","
                <div class=""stimulus-container"">
                    <img src=""images/schematic_sequence/flight_scheme/flight_scheme_7.png"" class=""exp-image"">
                    <div class=""question-area"">
                        <p style=""font-size: 20px; font-weight: bold; margin: 0;"">Is there a person in this image?</p>
                    </div>
                </div>","1","main_experiment_trial","7","flight_scheme","schematic_sequence","","","","",""
"","","","","","html-keyboard-response","52","206852","0.0-52.0","6E3C709570804E69811BC7A92D030A32","019cf4af-4f0f-7acb-b7a3-3e7e14ab8b8b","019cf498-06e0-702e-b525-9cde1ad77653","","null","
                <div class=""stimulus-container"">
                    <img src=""images/schematic_sequence/flight_scheme/flight_scheme_8.png"" class=""exp-image"">
                    <div class=""question-area""></div> 
                </div>","null","","","","","","","","",""
"","","","","","html-button-response","53","209872","0.0-53.0","6E3C709570804E69811BC7A92D030A32","019cf4af-4f0f-7acb-b7a3-3e7e14ab8b8b","019cf498-06e0-702e-b525-9cde1ad77653","","null","
                <div class=""stimulus-container"">
                    <img src=""images/schematic_sequence/flight_scheme/flight_scheme_8.png"" class=""exp-image"">
                    <div class=""question-area"">
                        <p style=""font-size: 20px; font-weight: bold; margin: 0;"">Is there a person in this image?</p>
                    </div>
                </div>","null","main_experiment_trial","8","flight_scheme","schematic_sequence","","","","",""
"","","","","","html-keyboard-response","54","214892","0.0-54.0","6E3C709570804E69811BC7A92D030A32","019cf4af-4f0f-7acb-b7a3-3e7e14ab8b8b","019cf498-06e0-702e-b525-9cde1ad77653","","null","
                <div class=""stimulus-container"">
                    <img src=""images/schematic_sequence/flight_scheme/flight_scheme_9.png"" class=""exp-image"">
                    <div class=""question-area""></div> 
                </div>","null","","","","","","","","",""
"","","","","","html-button-response","55","215783","0.0-55.0","6E3C709570804E69811BC7A92D030A32","019cf4af-4f0f-7acb-b7a3-3e7e14ab8b8b","019cf498-06e0-702e-b525-9cde1ad77653","","875","
                <div class=""stimulus-container"">
                    <img src=""images/schematic_sequence/flight_scheme/flight_scheme_9.png"" class=""exp-image"">
                    <div class=""question-area"">
                        <p style=""font-size: 20px; font-weight: bold; margin: 0;"">Is there a person in this image?</p>
                    </div>
                </div>","0","main_experiment_trial","9","flight_scheme","schematic_sequence","","","","",""
"","","","","","html-keyboard-response","56","220801","0.0-56.0","6E3C709570804E69811BC7A92D030A32","019cf4af-4f0f-7acb-b7a3-3e7e14ab8b8b","019cf498-06e0-702e-b525-9cde1ad77653","","null","
                <div class=""stimulus-container"">
                    <img src=""images/schematic_sequence/flight_scheme/flight_scheme_ten.png"" class=""exp-image"">
                    <div class=""question-area""></div> 
                </div>","null","","","","","","","","",""
"","","","","","html-button-response","57","221784","0.0-57.0","6E3C709570804E69811BC7A92D030A32","019cf4af-4f0f-7acb-b7a3-3e7e14ab8b8b","019cf498-06e0-702e-b525-9cde1ad77653","","966","
                <div class=""stimulus-container"">
                    <img src=""images/schematic_sequence/flight_scheme/flight_scheme_ten.png"" class=""exp-image"">
                    <div class=""question-area"">
                        <p style=""font-size: 20px; font-weight: bold; margin: 0;"">Is there a person in this image?</p>
                    </div>
                </div>","0","main_experiment_trial","ten","flight_scheme","schematic_sequence","","","","",""
"","","","","","html-keyboard-response","58","222786","0.0-58.0","6E3C709570804E69811BC7A92D030A32","019cf4af-4f0f-7acb-b7a3-3e7e14ab8b8b","019cf498-06e0-702e-b525-9cde1ad77653","","null","<div style=""background-color: white; width: 100vw; height: 100vh;""></div>","null","","","","","","","","",""
"","","","","","html-keyboard-response","59","227805","0.0-59.0","6E3C709570804E69811BC7A92D030A32","019cf4af-4f0f-7acb-b7a3-3e7e14ab8b8b","019cf498-06e0-702e-b525-9cde1ad77653","","null","
                <div class=""stimulus-container"">
                    <img src=""images/causal_sequence/dog_causal/dog_causal_1.png"" class=""exp-image"">
                    <div class=""question-area""></div> 
                </div>","null","","","","","","","","",""
"","","","","","html-button-response","60","228535","0.0-60.0","6E3C709570804E69811BC7A92D030A32","019cf4af-4f0f-7acb-b7a3-3e7e14ab8b8b","019cf498-06e0-702e-b525-9cde1ad77653","","711","
                <div class=""stimulus-container"">
                    <img src=""images/causal_sequence/dog_causal/dog_causal_1.png"" class=""exp-image"">
                    <div class=""question-area"">
                        <p style=""font-size: 20px; font-weight: bold; margin: 0;"">Is there a person in this image?</p>
                    </div>
                </div>","0","main_experiment_trial","1","dog_causal","causal_sequence","","","","",""
"","","","","","html-keyboard-response","61","233552","0.0-61.0","6E3C709570804E69811BC7A92D030A32","019cf4af-4f0f-7acb-b7a3-3e7e14ab8b8b","019cf498-06e0-702e-b525-9cde1ad77653","","null","
                <div class=""stimulus-container"">
                    <img src=""images/causal_sequence/dog_causal/dog_causal_2.png"" class=""exp-image"">
                    <div class=""question-area""></div> 
                </div>","null","","","","","","","","",""
"","","","","","html-button-response","62","234384","0.0-62.0","6E3C709570804E69811BC7A92D030A32","019cf4af-4f0f-7acb-b7a3-3e7e14ab8b8b","019cf498-06e0-702e-b525-9cde1ad77653","","818","
                <div class=""stimulus-container"">
                    <img src=""images/causal_sequence/dog_causal/dog_causal_2.png"" class=""exp-image"">
                    <div class=""question-area"">
                        <p style=""font-size: 20px; font-weight: bold; margin: 0;"">Is there a person in this image?</p>
                    </div>
                </div>","0","main_experiment_trial","2","dog_causal","causal_sequence","","","","",""
"","","","","","html-keyboard-response","63","239401","0.0-63.0","6E3C709570804E69811BC7A92D030A32","019cf4af-4f0f-7acb-b7a3-3e7e14ab8b8b","019cf498-06e0-702e-b525-9cde1ad77653","","null","
                <div class=""stimulus-container"">
                    <img src=""images/causal_sequence/dog_causal/dog_causal_3.png"" class=""exp-image"">
                    <div class=""question-area""></div> 
                </div>","null","","","","","","","","",""
"","","","","","html-button-response","64","240051","0.0-64.0","6E3C709570804E69811BC7A92D030A32","019cf4af-4f0f-7acb-b7a3-3e7e14ab8b8b","019cf498-06e0-702e-b525-9cde1ad77653","","631","
                <div class=""stimulus-container"">
                    <img src=""images/causal_sequence/dog_causal/dog_causal_3.png"" class=""exp-image"">
                    <div class=""question-area"">
                        <p style=""font-size: 20px; font-weight: bold; margin: 0;"">Is there a person in this image?</p>
                    </div>
                </div>","0","main_experiment_trial","3","dog_causal","causal_sequence","","","","",""
"","","","","","html-keyboard-response","65","245067","0.0-65.0","6E3C709570804E69811BC7A92D030A32","019cf4af-4f0f-7acb-b7a3-3e7e14ab8b8b","019cf498-06e0-702e-b525-9cde1ad77653","","null","
                <div class=""stimulus-container"">
                    <img src=""images/causal_sequence/dog_causal/dog_causal_4.png"" class=""exp-image"">
                    <div class=""question-area""></div> 
                </div>","null","","","","","","","","",""
"","","","","","html-button-response","66","246217","0.0-66.0","6E3C709570804E69811BC7A92D030A32","019cf4af-4f0f-7acb-b7a3-3e7e14ab8b8b","019cf498-06e0-702e-b525-9cde1ad77653","","1135","
                <div class=""stimulus-container"">
                    <img src=""images/causal_sequence/dog_causal/dog_causal_4.png"" class=""exp-image"">
                    <div class=""question-area"">
                        <p style=""font-size: 20px; font-weight: bold; margin: 0;"">Is there a person in this image?</p>
                    </div>
                </div>","0","main_experiment_trial","4","dog_causal","causal_sequence","","","","",""
"","","","","","html-keyboard-response","67","251235","0.0-67.0","6E3C709570804E69811BC7A92D030A32","019cf4af-4f0f-7acb-b7a3-3e7e14ab8b8b","019cf498-06e0-702e-b525-9cde1ad77653","","null","
                <div class=""stimulus-container"">
                    <img src=""images/causal_sequence/dog_causal/dog_causal_5.png"" class=""exp-image"">
                    <div class=""question-area""></div> 
                </div>","null","","","","","","","","",""
"","","","","","html-button-response","68","251851","0.0-68.0","6E3C709570804E69811BC7A92D030A32","019cf4af-4f0f-7acb-b7a3-3e7e14ab8b8b","019cf498-06e0-702e-b525-9cde1ad77653","","601","
                <div class=""stimulus-container"">
                    <img src=""images/causal_sequence/dog_causal/dog_causal_5.png"" class=""exp-image"">
                    <div class=""question-area"">
                        <p style=""font-size: 20px; font-weight: bold; margin: 0;"">Is there a person in this image?</p>
                    </div>
                </div>","0","main_experiment_trial","5","dog_causal","causal_sequence","","","","",""
"","","","","","html-keyboard-response","69","256868","0.0-69.0","6E3C709570804E69811BC7A92D030A32","019cf4af-4f0f-7acb-b7a3-3e7e14ab8b8b","019cf498-06e0-702e-b525-9cde1ad77653","","null","
                <div class=""stimulus-container"">
                    <img src=""images/causal_sequence/dog_causal/dog_causal_6.png"" class=""exp-image"">
                    <div class=""question-area""></div> 
                </div>","null","","","","","","","","",""
"","","","","","html-button-response","70","258467","0.0-70.0","6E3C709570804E69811BC7A92D030A32","019cf4af-4f0f-7acb-b7a3-3e7e14ab8b8b","019cf498-06e0-702e-b525-9cde1ad77653","","1581","
                <div class=""stimulus-container"">
                    <img src=""images/causal_sequence/dog_causal/dog_causal_6.png"" class=""exp-image"">
                    <div class=""question-area"">
                        <p style=""font-size: 20px; font-weight: bold; margin: 0;"">Is there a person in this image?</p>
                    </div>
                </div>","0","main_experiment_trial","6","dog_causal","causal_sequence","","","","",""
"","","","","","html-keyboard-response","71","263484","0.0-71.0","6E3C709570804E69811BC7A92D030A32","019cf4af-4f0f-7acb-b7a3-3e7e14ab8b8b","019cf498-06e0-702e-b525-9cde1ad77653","","null","
                <div class=""stimulus-container"">
                    <img src=""images/causal_sequence/dog_causal/dog_causal_7.png"" class=""exp-image"">
                    <div class=""question-area""></div> 
                </div>","null","","","","","","","","",""
"","","","","","html-button-response","72","264668","0.0-72.0","6E3C709570804E69811BC7A92D030A32","019cf4af-4f0f-7acb-b7a3-3e7e14ab8b8b","019cf498-06e0-702e-b525-9cde1ad77653","","1165","
                <div class=""stimulus-container"">
                    <img src=""images/causal_sequence/dog_causal/dog_causal_7.png"" class=""exp-image"">
                    <div class=""question-area"">
                        <p style=""font-size: 20px; font-weight: bold; margin: 0;"">Is there a person in this image?</p>
                    </div>
                </div>","0","main_experiment_trial","7","dog_causal","causal_sequence","","","","",""
"","","","","","html-keyboard-response","73","269685","0.0-73.0","6E3C709570804E69811BC7A92D030A32","019cf4af-4f0f-7acb-b7a3-3e7e14ab8b8b","019cf498-06e0-702e-b525-9cde1ad77653","","null","
                <div class=""stimulus-container"">
                    <img src=""images/causal_sequence/dog_causal/dog_causal_8.png"" class=""exp-image"">
                    <div class=""question-area""></div> 
                </div>","null","","","","","","","","",""
"","","","","","html-button-response","74","271151","0.0-74.0","6E3C709570804E69811BC7A92D030A32","019cf4af-4f0f-7acb-b7a3-3e7e14ab8b8b","019cf498-06e0-702e-b525-9cde1ad77653","","1449","
                <div class=""stimulus-container"">
                    <img src=""images/causal_sequence/dog_causal/dog_causal_8.png"" class=""exp-image"">
                    <div class=""question-area"">
                        <p style=""font-size: 20px; font-weight: bold; margin: 0;"">Is there a person in this image?</p>
                    </div>
                </div>","0","main_experiment_trial","8","dog_causal","causal_sequence","","","","",""
"","","","","","html-keyboard-response","75","276169","0.0-75.0","6E3C709570804E69811BC7A92D030A32","019cf4af-4f0f-7acb-b7a3-3e7e14ab8b8b","019cf498-06e0-702e-b525-9cde1ad77653","","null","
                <div class=""stimulus-container"">
                    <img src=""images/causal_sequence/dog_causal/dog_causal_9.png"" class=""exp-image"">
                    <div class=""question-area""></div> 
                </div>","null","","","","","","","","",""
"","","","","","html-button-response","76","277769","0.0-76.0","6E3C709570804E69811BC7A92D030A32","019cf4af-4f0f-7acb-b7a3-3e7e14ab8b8b","019cf498-06e0-702e-b525-9cde1ad77653","","1580","
                <div class=""stimulus-container"">
                    <img src=""images/causal_sequence/dog_causal/dog_causal_9.png"" class=""exp-image"">
                    <div class=""question-area"">
                        <p style=""font-size: 20px; font-weight: bold; margin: 0;"">Is there a person in this image?</p>
                    </div>
                </div>","0","main_experiment_trial","9","dog_causal","causal_sequence","","","","",""
"","","","","","html-keyboard-response","77","282785","0.0-77.0","6E3C709570804E69811BC7A92D030A32","019cf4af-4f0f-7acb-b7a3-3e7e14ab8b8b","019cf498-06e0-702e-b525-9cde1ad77653","","null","
                <div class=""stimulus-container"">
                    <img src=""images/causal_sequence/dog_causal/dog_causal_ten.png"" class=""exp-image"">
                    <div class=""question-area""></div> 
                </div>","null","","","","","","","","",""
"","","","","","html-button-response","78","283552","0.0-78.0","6E3C709570804E69811BC7A92D030A32","019cf4af-4f0f-7acb-b7a3-3e7e14ab8b8b","019cf498-06e0-702e-b525-9cde1ad77653","","749","
                <div class=""stimulus-container"">
                    <img src=""images/causal_sequence/dog_causal/dog_causal_ten.png"" class=""exp-image"">
                    <div class=""question-area"">
                        <p style=""font-size: 20px; font-weight: bold; margin: 0;"">Is there a person in this image?</p>
                    </div>
                </div>","0","main_experiment_trial","ten","dog_causal","causal_sequence","","","","",""
"","","","","","html-keyboard-response","79","284554","0.0-79.0","6E3C709570804E69811BC7A92D030A32","019cf4af-4f0f-7acb-b7a3-3e7e14ab8b8b","019cf498-06e0-702e-b525-9cde1ad77653","","null","<div style=""background-color: white; width: 100vw; height: 100vh;""></div>","null","","","","","","","","",""
"","","","","","html-keyboard-response","80","289573","0.0-80.0","6E3C709570804E69811BC7A92D030A32","019cf4af-4f0f-7acb-b7a3-3e7e14ab8b8b","019cf498-06e0-702e-b525-9cde1ad77653","","null","
                <div class=""stimulus-container"">
                    <img src=""images/causal_sequence/coin_causal/coin_causal_1.png"" class=""exp-image"">
                    <div class=""question-area""></div> 
                </div>","null","","","","","","","","",""
"","","","","","html-button-response","81","290819","0.0-81.0","6E3C709570804E69811BC7A92D030A32","019cf4af-4f0f-7acb-b7a3-3e7e14ab8b8b","019cf498-06e0-702e-b525-9cde1ad77653","","1227","
                <div class=""stimulus-container"">
                    <img src=""images/causal_sequence/coin_causal/coin_causal_1.png"" class=""exp-image"">
                    <div class=""question-area"">
                        <p style=""font-size: 20px; font-weight: bold; margin: 0;"">Is there a person in this image?</p>
                    </div>
                </div>","0","main_experiment_trial","1","coin_causal","causal_sequence","","","","",""
"","","","","","html-keyboard-response","82","295836","0.0-82.0","6E3C709570804E69811BC7A92D030A32","019cf4af-4f0f-7acb-b7a3-3e7e14ab8b8b","019cf498-06e0-702e-b525-9cde1ad77653","","null","
                <div class=""stimulus-container"">
                    <img src=""images/causal_sequence/coin_causal/coin_causal_2.png"" class=""exp-image"">
                    <div class=""question-area""></div> 
                </div>","null","","","","","","","","",""
"","","","","","html-button-response","83","297152","0.0-83.0","6E3C709570804E69811BC7A92D030A32","019cf4af-4f0f-7acb-b7a3-3e7e14ab8b8b","019cf498-06e0-702e-b525-9cde1ad77653","","1297","
                <div class=""stimulus-container"">
                    <img src=""images/causal_sequence/coin_causal/coin_causal_2.png"" class=""exp-image"">
                    <div class=""question-area"">
                        <p style=""font-size: 20px; font-weight: bold; margin: 0;"">Is there a person in this image?</p>
                    </div>
                </div>","0","main_experiment_trial","2","coin_causal","causal_sequence","","","","",""
"","","","","","html-keyboard-response","84","302169","0.0-84.0","6E3C709570804E69811BC7A92D030A32","019cf4af-4f0f-7acb-b7a3-3e7e14ab8b8b","019cf498-06e0-702e-b525-9cde1ad77653","","null","
                <div class=""stimulus-container"">
                    <img src=""images/causal_sequence/coin_causal/coin_causal_3.png"" class=""exp-image"">
                    <div class=""question-area""></div> 
                </div>","null","","","","","","","","",""
"","","","","","html-button-response","85","303401","0.0-85.0","6E3C709570804E69811BC7A92D030A32","019cf4af-4f0f-7acb-b7a3-3e7e14ab8b8b","019cf498-06e0-702e-b525-9cde1ad77653","","1214","
                <div class=""stimulus-container"">
                    <img src=""images/causal_sequence/coin_causal/coin_causal_3.png"" class=""exp-image"">
                    <div class=""question-area"">
                        <p style=""font-size: 20px; font-weight: bold; margin: 0;"">Is there a person in this image?</p>
                    </div>
                </div>","0","main_experiment_trial","3","coin_causal","causal_sequence","","","","",""
"","","","","","html-keyboard-response","86","308419","0.0-86.0","6E3C709570804E69811BC7A92D030A32","019cf4af-4f0f-7acb-b7a3-3e7e14ab8b8b","019cf498-06e0-702e-b525-9cde1ad77653","","null","
                <div class=""stimulus-container"">
                    <img src=""images/causal_sequence/coin_causal/coin_causal_4.png"" class=""exp-image"">
                    <div class=""question-area""></div> 
                </div>","null","","","","","","","","",""
"","","","","","html-button-response","87","309868","0.0-87.0","6E3C709570804E69811BC7A92D030A32","019cf4af-4f0f-7acb-b7a3-3e7e14ab8b8b","019cf498-06e0-702e-b525-9cde1ad77653","","1430","
                <div class=""stimulus-container"">
                    <img src=""images/causal_sequence/coin_causal/coin_causal_4.png"" class=""exp-image"">
                    <div class=""question-area"">
                        <p style=""font-size: 20px; font-weight: bold; margin: 0;"">Is there a person in this image?</p>
                    </div>
                </div>","0","main_experiment_trial","4","coin_causal","causal_sequence","","","","",""
"","","","","","html-keyboard-response","88","314886","0.0-88.0","6E3C709570804E69811BC7A92D030A32","019cf4af-4f0f-7acb-b7a3-3e7e14ab8b8b","019cf498-06e0-702e-b525-9cde1ad77653","","null","
                <div class=""stimulus-container"">
                    <img src=""images/causal_sequence/coin_causal/coin_causal_5.png"" class=""exp-image"">
                    <div class=""question-area""></div> 
                </div>","null","","","","","","","","",""
"","","","","","html-button-response","89","316901","0.0-89.0","6E3C709570804E69811BC7A92D030A32","019cf4af-4f0f-7acb-b7a3-3e7e14ab8b8b","019cf498-06e0-702e-b525-9cde1ad77653","","1996","
                <div class=""stimulus-container"">
                    <img src=""images/causal_sequence/coin_causal/coin_causal_5.png"" class=""exp-image"">
                    <div class=""question-area"">
                        <p style=""font-size: 20px; font-weight: bold; margin: 0;"">Is there a person in this image?</p>
                    </div>
                </div>","0","main_experiment_trial","5","coin_causal","causal_sequence","","","","",""
"","","","","","html-keyboard-response","90","321920","0.0-90.0","6E3C709570804E69811BC7A92D030A32","019cf4af-4f0f-7acb-b7a3-3e7e14ab8b8b","019cf498-06e0-702e-b525-9cde1ad77653","","null","
                <div class=""stimulus-container"">
                    <img src=""images/causal_sequence/coin_causal/coin_causal_6.png"" class=""exp-image"">
                    <div class=""question-area""></div> 
                </div>","null","","","","","","","","",""
"","","","","","html-button-response","91","323068","0.0-91.0","6E3C709570804E69811BC7A92D030A32","019cf4af-4f0f-7acb-b7a3-3e7e14ab8b8b","019cf498-06e0-702e-b525-9cde1ad77653","","1130","
                <div class=""stimulus-container"">
                    <img src=""images/causal_sequence/coin_causal/coin_causal_6.png"" class=""exp-image"">
                    <div class=""question-area"">
                        <p style=""font-size: 20px; font-weight: bold; margin: 0;"">Is there a person in this image?</p>
                    </div>
                </div>","0","main_experiment_trial","6","coin_causal","causal_sequence","","","","",""
"","","","","","html-keyboard-response","92","328085","0.0-92.0","6E3C709570804E69811BC7A92D030A32","019cf4af-4f0f-7acb-b7a3-3e7e14ab8b8b","019cf498-06e0-702e-b525-9cde1ad77653","","null","
                <div class=""stimulus-container"">
                    <img src=""images/causal_sequence/coin_causal/coin_causal_7.png"" class=""exp-image"">
                    <div class=""question-area""></div> 
                </div>","null","","","","","","","","",""
"","","","","","html-button-response","93","329085","0.0-93.0","6E3C709570804E69811BC7A92D030A32","019cf4af-4f0f-7acb-b7a3-3e7e14ab8b8b","019cf498-06e0-702e-b525-9cde1ad77653","","983","
                <div class=""stimulus-container"">
                    <img src=""images/causal_sequence/coin_causal/coin_causal_7.png"" class=""exp-image"">
                    <div class=""question-area"">
                        <p style=""font-size: 20px; font-weight: bold; margin: 0;"">Is there a person in this image?</p>
                    </div>
                </div>","1","main_experiment_trial","7","coin_causal","causal_sequence","","","","",""
"","","","","","html-keyboard-response","94","334101","0.0-94.0","6E3C709570804E69811BC7A92D030A32","019cf4af-4f0f-7acb-b7a3-3e7e14ab8b8b","019cf498-06e0-702e-b525-9cde1ad77653","","null","
                <div class=""stimulus-container"">
                    <img src=""images/causal_sequence/coin_causal/coin_causal_8.png"" class=""exp-image"">
                    <div class=""question-area""></div> 
                </div>","null","","","","","","","","",""
"","","","","","html-button-response","95","334851","0.0-95.0","6E3C709570804E69811BC7A92D030A32","019cf4af-4f0f-7acb-b7a3-3e7e14ab8b8b","019cf498-06e0-702e-b525-9cde1ad77653","","732","
                <div class=""stimulus-container"">
                    <img src=""images/causal_sequence/coin_causal/coin_causal_8.png"" class=""exp-image"">
                    <div class=""question-area"">
                        <p style=""font-size: 20px; font-weight: bold; margin: 0;"">Is there a person in this image?</p>
                    </div>
                </div>","0","main_experiment_trial","8","coin_causal","causal_sequence","","","","",""
"","","","","","html-keyboard-response","96","339867","0.0-96.0","6E3C709570804E69811BC7A92D030A32","019cf4af-4f0f-7acb-b7a3-3e7e14ab8b8b","019cf498-06e0-702e-b525-9cde1ad77653","","null","
                <div class=""stimulus-container"">
                    <img src=""images/causal_sequence/coin_causal/coin_causal_9.png"" class=""exp-image"">
                    <div class=""question-area""></div> 
                </div>","null","","","","","","","","",""
"","","","","","html-button-response","97","340918","0.0-97.0","6E3C709570804E69811BC7A92D030A32","019cf4af-4f0f-7acb-b7a3-3e7e14ab8b8b","019cf498-06e0-702e-b525-9cde1ad77653","","1032","
                <div class=""stimulus-container"">
                    <img src=""images/causal_sequence/coin_causal/coin_causal_9.png"" class=""exp-image"">
                    <div class=""question-area"">
                        <p style=""font-size: 20px; font-weight: bold; margin: 0;"">Is there a person in this image?</p>
                    </div>
                </div>","0","main_experiment_trial","9","coin_causal","causal_sequence","","","","",""
"","","","","","html-keyboard-response","98","345935","0.0-98.0","6E3C709570804E69811BC7A92D030A32","019cf4af-4f0f-7acb-b7a3-3e7e14ab8b8b","019cf498-06e0-702e-b525-9cde1ad77653","","null","
                <div class=""stimulus-container"">
                    <img src=""images/causal_sequence/coin_causal/coin_causal_ten.png"" class=""exp-image"">
                    <div class=""question-area""></div> 
                </div>","null","","","","","","","","",""
"","","","","","html-button-response","99","346551","0.0-99.0","6E3C709570804E69811BC7A92D030A32","019cf4af-4f0f-7acb-b7a3-3e7e14ab8b8b","019cf498-06e0-702e-b525-9cde1ad77653","","600","
                <div class=""stimulus-container"">
                    <img src=""images/causal_sequence/coin_causal/coin_causal_ten.png"" class=""exp-image"">
                    <div class=""question-area"">
                        <p style=""font-size: 20px; font-weight: bold; margin: 0;"">Is there a person in this image?</p>
                    </div>
                </div>","0","main_experiment_trial","ten","coin_causal","causal_sequence","","","","",""
"","","","","","html-keyboard-response","100","347553","0.0-100.0","6E3C709570804E69811BC7A92D030A32","019cf4af-4f0f-7acb-b7a3-3e7e14ab8b8b","019cf498-06e0-702e-b525-9cde1ad77653","","null","<div style=""background-color: white; width: 100vw; height: 100vh;""></div>","null","","","","","","","","",""
"","","","","","html-keyboard-response","101","352572","0.0-101.0","6E3C709570804E69811BC7A92D030A32","019cf4af-4f0f-7acb-b7a3-3e7e14ab8b8b","019cf498-06e0-702e-b525-9cde1ad77653","","null","
                <div class=""stimulus-container"">
                    <img src=""images/schematic_sequence/supermarket_scheme/supermarket_scheme_1.png"" class=""exp-image"">
                    <div class=""question-area""></div> 
                </div>","null","","","","","","","","",""
"","","","","","html-button-response","102","353418","0.0-102.0","6E3C709570804E69811BC7A92D030A32","019cf4af-4f0f-7acb-b7a3-3e7e14ab8b8b","019cf498-06e0-702e-b525-9cde1ad77653","","824","
                <div class=""stimulus-container"">
                    <img src=""images/schematic_sequence/supermarket_scheme/supermarket_scheme_1.png"" class=""exp-image"">
                    <div class=""question-area"">
                        <p style=""font-size: 20px; font-weight: bold; margin: 0;"">Is there a person in this image?</p>
                    </div>
                </div>","1","main_experiment_trial","1","supermarket_scheme","schematic_sequence","","","","",""
"","","","","","html-keyboard-response","103","358434","0.0-103.0","6E3C709570804E69811BC7A92D030A32","019cf4af-4f0f-7acb-b7a3-3e7e14ab8b8b","019cf498-06e0-702e-b525-9cde1ad77653","","null","
                <div class=""stimulus-container"">
                    <img src=""images/schematic_sequence/supermarket_scheme/supermarket_scheme_2.png"" class=""exp-image"">
                    <div class=""question-area""></div> 
                </div>","null","","","","","","","","",""
"","","","","","html-button-response","104","360284","0.0-104.0","6E3C709570804E69811BC7A92D030A32","019cf4af-4f0f-7acb-b7a3-3e7e14ab8b8b","019cf498-06e0-702e-b525-9cde1ad77653","","1831","
                <div class=""stimulus-container"">
                    <img src=""images/schematic_sequence/supermarket_scheme/supermarket_scheme_2.png"" class=""exp-image"">
                    <div class=""question-area"">
                        <p style=""font-size: 20px; font-weight: bold; margin: 0;"">Is there a person in this image?</p>
                    </div>
                </div>","1","main_experiment_trial","2","supermarket_scheme","schematic_sequence","","","","",""
"","","","","","html-keyboard-response","105","365300","0.0-105.0","6E3C709570804E69811BC7A92D030A32","019cf4af-4f0f-7acb-b7a3-3e7e14ab8b8b","019cf498-06e0-702e-b525-9cde1ad77653","","null","
                <div class=""stimulus-container"">
                    <img src=""images/schematic_sequence/supermarket_scheme/supermarket_scheme_3.png"" class=""exp-image"">
                    <div class=""question-area""></div> 
                </div>","null","","","","","","","","",""
"","","","","","html-button-response","106","368319","0.0-106.0","6E3C709570804E69811BC7A92D030A32","019cf4af-4f0f-7acb-b7a3-3e7e14ab8b8b","019cf498-06e0-702e-b525-9cde1ad77653","","null","
                <div class=""stimulus-container"">
                    <img src=""images/schematic_sequence/supermarket_scheme/supermarket_scheme_3.png"" class=""exp-image"">
                    <div class=""question-area"">
                        <p style=""font-size: 20px; font-weight: bold; margin: 0;"">Is there a person in this image?</p>
                    </div>
                </div>","null","main_experiment_trial","3","supermarket_scheme","schematic_sequence","","","","",""
"","","","","","html-keyboard-response","107","373338","0.0-107.0","6E3C709570804E69811BC7A92D030A32","019cf4af-4f0f-7acb-b7a3-3e7e14ab8b8b","019cf498-06e0-702e-b525-9cde1ad77653","","null","
                <div class=""stimulus-container"">
                    <img src=""images/schematic_sequence/supermarket_scheme/supermarket_scheme_4.png"" class=""exp-image"">
                    <div class=""question-area""></div> 
                </div>","null","","","","","","","","",""
"","","","","","html-button-response","108","374017","0.0-108.0","6E3C709570804E69811BC7A92D030A32","019cf4af-4f0f-7acb-b7a3-3e7e14ab8b8b","019cf498-06e0-702e-b525-9cde1ad77653","","660","
                <div class=""stimulus-container"">
                    <img src=""images/schematic_sequence/supermarket_scheme/supermarket_scheme_4.png"" class=""exp-image"">
                    <div class=""question-area"">
                        <p style=""font-size: 20px; font-weight: bold; margin: 0;"">Is there a person in this image?</p>
                    </div>
                </div>","0","main_experiment_trial","4","supermarket_scheme","schematic_sequence","","","","",""
"","","","","","html-keyboard-response","109","379036","0.0-109.0","6E3C709570804E69811BC7A92D030A32","019cf4af-4f0f-7acb-b7a3-3e7e14ab8b8b","019cf498-06e0-702e-b525-9cde1ad77653","","null","
                <div class=""stimulus-container"">
                    <img src=""images/schematic_sequence/supermarket_scheme/supermarket_scheme_5.png"" class=""exp-image"">
                    <div class=""question-area""></div> 
                </div>","null","","","","","","","","",""
"","","","","","html-button-response","110","380651","0.0-110.0","6E3C709570804E69811BC7A92D030A32","019cf4af-4f0f-7acb-b7a3-3e7e14ab8b8b","019cf498-06e0-702e-b525-9cde1ad77653","","1596","
                <div class=""stimulus-container"">
                    <img src=""images/schematic_sequence/supermarket_scheme/supermarket_scheme_5.png"" class=""exp-image"">
                    <div class=""question-area"">
                        <p style=""font-size: 20px; font-weight: bold; margin: 0;"">Is there a person in this image?</p>
                    </div>
                </div>","1","main_experiment_trial","5","supermarket_scheme","schematic_sequence","","","","",""
"","","","","","html-keyboard-response","111","385667","0.0-111.0","6E3C709570804E69811BC7A92D030A32","019cf4af-4f0f-7acb-b7a3-3e7e14ab8b8b","019cf498-06e0-702e-b525-9cde1ad77653","","null","
                <div class=""stimulus-container"">
                    <img src=""images/schematic_sequence/supermarket_scheme/supermarket_scheme_6.png"" class=""exp-image"">
                    <div class=""question-area""></div> 
                </div>","null","","","","","","","","",""
"","","","","","html-button-response","112","386751","0.0-112.0","6E3C709570804E69811BC7A92D030A32","019cf4af-4f0f-7acb-b7a3-3e7e14ab8b8b","019cf498-06e0-702e-b525-9cde1ad77653","","1066","
                <div class=""stimulus-container"">
                    <img src=""images/schematic_sequence/supermarket_scheme/supermarket_scheme_6.png"" class=""exp-image"">
                    <div class=""question-area"">
                        <p style=""font-size: 20px; font-weight: bold; margin: 0;"">Is there a person in this image?</p>
                    </div>
                </div>","0","main_experiment_trial","6","supermarket_scheme","schematic_sequence","","","","",""
"","","","","","html-keyboard-response","113","391768","0.0-113.0","6E3C709570804E69811BC7A92D030A32","019cf4af-4f0f-7acb-b7a3-3e7e14ab8b8b","019cf498-06e0-702e-b525-9cde1ad77653","","null","
                <div class=""stimulus-container"">
                    <img src=""images/schematic_sequence/supermarket_scheme/supermarket_scheme_7.png"" class=""exp-image"">
                    <div class=""question-area""></div> 
                </div>","null","","","","","","","","",""
"","","","","","html-button-response","114","392685","0.0-114.0","6E3C709570804E69811BC7A92D030A32","019cf4af-4f0f-7acb-b7a3-3e7e14ab8b8b","019cf498-06e0-702e-b525-9cde1ad77653","","901","
                <div class=""stimulus-container"">
                    <img src=""images/schematic_sequence/supermarket_scheme/supermarket_scheme_7.png"" class=""exp-image"">
                    <div class=""question-area"">
                        <p style=""font-size: 20px; font-weight: bold; margin: 0;"">Is there a person in this image?</p>
                    </div>
                </div>","0","main_experiment_trial","7","supermarket_scheme","schematic_sequence","","","","",""
"","","","","","html-keyboard-response","115","397701","0.0-115.0","6E3C709570804E69811BC7A92D030A32","019cf4af-4f0f-7acb-b7a3-3e7e14ab8b8b","019cf498-06e0-702e-b525-9cde1ad77653","","null","
                <div class=""stimulus-container"">
                    <img src=""images/schematic_sequence/supermarket_scheme/supermarket_scheme_8.png"" class=""exp-image"">
                    <div class=""question-area""></div> 
                </div>","null","","","","","","","","",""
"","","","","","html-button-response","116","399133","0.0-116.0","6E3C709570804E69811BC7A92D030A32","019cf4af-4f0f-7acb-b7a3-3e7e14ab8b8b","019cf498-06e0-702e-b525-9cde1ad77653","","1418","
                <div class=""stimulus-container"">
                    <img src=""images/schematic_sequence/supermarket_scheme/supermarket_scheme_8.png"" class=""exp-image"">
                    <div class=""question-area"">
                        <p style=""font-size: 20px; font-weight: bold; margin: 0;"">Is there a person in this image?</p>
                    </div>
                </div>","0","main_experiment_trial","8","supermarket_scheme","schematic_sequence","","","","",""
"","","","","","html-keyboard-response","117","404151","0.0-117.0","6E3C709570804E69811BC7A92D030A32","019cf4af-4f0f-7acb-b7a3-3e7e14ab8b8b","019cf498-06e0-702e-b525-9cde1ad77653","","null","
                <div class=""stimulus-container"">
                    <img src=""images/schematic_sequence/supermarket_scheme/supermarket_scheme_9.png"" class=""exp-image"">
                    <div class=""question-area""></div> 
                </div>","null","","","","","","","","",""
"","","","","","html-button-response","118","404967","0.0-118.0","6E3C709570804E69811BC7A92D030A32","019cf4af-4f0f-7acb-b7a3-3e7e14ab8b8b","019cf498-06e0-702e-b525-9cde1ad77653","","799","
                <div class=""stimulus-container"">
                    <img src=""images/schematic_sequence/supermarket_scheme/supermarket_scheme_9.png"" class=""exp-image"">
                    <div class=""question-area"">
                        <p style=""font-size: 20px; font-weight: bold; margin: 0;"">Is there a person in this image?</p>
                    </div>
                </div>","0","main_experiment_trial","9","supermarket_scheme","schematic_sequence","","","","",""
"","","","","","html-keyboard-response","119","409985","0.0-119.0","6E3C709570804E69811BC7A92D030A32","019cf4af-4f0f-7acb-b7a3-3e7e14ab8b8b","019cf498-06e0-702e-b525-9cde1ad77653","","null","
                <div class=""stimulus-container"">
                    <img src=""images/schematic_sequence/supermarket_scheme/supermarket_scheme_ten.png"" class=""exp-image"">
                    <div class=""question-area""></div> 
                </div>","null","","","","","","","","",""
"","","","","","html-button-response","120","410818","0.0-120.0","6E3C709570804E69811BC7A92D030A32","019cf4af-4f0f-7acb-b7a3-3e7e14ab8b8b","019cf498-06e0-702e-b525-9cde1ad77653","","817","
                <div class=""stimulus-container"">
                    <img src=""images/schematic_sequence/supermarket_scheme/supermarket_scheme_ten.png"" class=""exp-image"">
                    <div class=""question-area"">
                        <p style=""font-size: 20px; font-weight: bold; margin: 0;"">Is there a person in this image?</p>
                    </div>
                </div>","1","main_experiment_trial","ten","supermarket_scheme","schematic_sequence","","","","",""
"","","","","","html-keyboard-response","121","411820","0.0-121.0","6E3C709570804E69811BC7A92D030A32","019cf4af-4f0f-7acb-b7a3-3e7e14ab8b8b","019cf498-06e0-702e-b525-9cde1ad77653","","null","<div style=""background-color: white; width: 100vw; height: 100vh;""></div>","null","","","","","","","","",""
"","","","","","html-keyboard-response","122","416839","0.0-122.0","6E3C709570804E69811BC7A92D030A32","019cf4af-4f0f-7acb-b7a3-3e7e14ab8b8b","019cf498-06e0-702e-b525-9cde1ad77653","","null","
                <div class=""stimulus-container"">
                    <img src=""images/causal_sequence/museum_causal/museum_causal_1.png"" class=""exp-image"">
                    <div class=""question-area""></div> 
                </div>","null","","","","","","","","",""
"","","","","","html-button-response","123","418300","0.0-123.0","6E3C709570804E69811BC7A92D030A32","019cf4af-4f0f-7acb-b7a3-3e7e14ab8b8b","019cf498-06e0-702e-b525-9cde1ad77653","","1441","
                <div class=""stimulus-container"">
                    <img src=""images/causal_sequence/museum_causal/museum_causal_1.png"" class=""exp-image"">
                    <div class=""question-area"">
                        <p style=""font-size: 20px; font-weight: bold; margin: 0;"">Is there a person in this image?</p>
                    </div>
                </div>","0","main_experiment_trial","1","museum_causal","causal_sequence","","","","",""
"","","","","","html-keyboard-response","124","423318","0.0-124.0","6E3C709570804E69811BC7A92D030A32","019cf4af-4f0f-7acb-b7a3-3e7e14ab8b8b","019cf498-06e0-702e-b525-9cde1ad77653","","null","
                <div class=""stimulus-container"">
                    <img src=""images/causal_sequence/museum_causal/museum_causal_2.png"" class=""exp-image"">
                    <div class=""question-area""></div> 
                </div>","null","","","","","","","","",""
"","","","","","html-button-response","125","424951","0.0-125.0","6E3C709570804E69811BC7A92D030A32","019cf4af-4f0f-7acb-b7a3-3e7e14ab8b8b","019cf498-06e0-702e-b525-9cde1ad77653","","1618","
                <div class=""stimulus-container"">
                    <img src=""images/causal_sequence/museum_causal/museum_causal_2.png"" class=""exp-image"">
                    <div class=""question-area"">
                        <p style=""font-size: 20px; font-weight: bold; margin: 0;"">Is there a person in this image?</p>
                    </div>
                </div>","0","main_experiment_trial","2","museum_causal","causal_sequence","","","","",""
"","","","","","html-keyboard-response","126","429967","0.0-126.0","6E3C709570804E69811BC7A92D030A32","019cf4af-4f0f-7acb-b7a3-3e7e14ab8b8b","019cf498-06e0-702e-b525-9cde1ad77653","","null","
                <div class=""stimulus-container"">
                    <img src=""images/causal_sequence/museum_causal/museum_causal_3.png"" class=""exp-image"">
                    <div class=""question-area""></div> 
                </div>","null","","","","","","","","",""
"","","","","","html-button-response","127","430900","0.0-127.0","6E3C709570804E69811BC7A92D030A32","019cf4af-4f0f-7acb-b7a3-3e7e14ab8b8b","019cf498-06e0-702e-b525-9cde1ad77653","","918","
                <div class=""stimulus-container"">
                    <img src=""images/causal_sequence/museum_causal/museum_causal_3.png"" class=""exp-image"">
                    <div class=""question-area"">
                        <p style=""font-size: 20px; font-weight: bold; margin: 0;"">Is there a person in this image?</p>
                    </div>
                </div>","0","main_experiment_trial","3","museum_causal","causal_sequence","","","","",""
"","","","","","html-keyboard-response","128","435917","0.0-128.0","6E3C709570804E69811BC7A92D030A32","019cf4af-4f0f-7acb-b7a3-3e7e14ab8b8b","019cf498-06e0-702e-b525-9cde1ad77653","","null","
                <div class=""stimulus-container"">
                    <img src=""images/causal_sequence/museum_causal/museum_causal_4.png"" class=""exp-image"">
                    <div class=""question-area""></div> 
                </div>","null","","","","","","","","",""
"","","","","","html-button-response","129","436953","0.0-129.0","6E3C709570804E69811BC7A92D030A32","019cf4af-4f0f-7acb-b7a3-3e7e14ab8b8b","019cf498-06e0-702e-b525-9cde1ad77653","","1019","
                <div class=""stimulus-container"">
                    <img src=""images/causal_sequence/museum_causal/museum_causal_4.png"" class=""exp-image"">
                    <div class=""question-area"">
                        <p style=""font-size: 20px; font-weight: bold; margin: 0;"">Is there a person in this image?</p>
                    </div>
                </div>","1","main_experiment_trial","4","museum_causal","causal_sequence","","","","",""
"","","","","","html-keyboard-response","130","441971","0.0-130.0","6E3C709570804E69811BC7A92D030A32","019cf4af-4f0f-7acb-b7a3-3e7e14ab8b8b","019cf498-06e0-702e-b525-9cde1ad77653","","null","
                <div class=""stimulus-container"">
                    <img src=""images/causal_sequence/museum_causal/museum_causal_5.png"" class=""exp-image"">
                    <div class=""question-area""></div> 
                </div>","null","","","","","","","","",""
"","","","","","html-button-response","131","443734","0.0-131.0","6E3C709570804E69811BC7A92D030A32","019cf4af-4f0f-7acb-b7a3-3e7e14ab8b8b","019cf498-06e0-702e-b525-9cde1ad77653","","1744","
                <div class=""stimulus-container"">
                    <img src=""images/causal_sequence/museum_causal/museum_causal_5.png"" class=""exp-image"">
                    <div class=""question-area"">
                        <p style=""font-size: 20px; font-weight: bold; margin: 0;"">Is there a person in this image?</p>
                    </div>
                </div>","0","main_experiment_trial","5","museum_causal","causal_sequence","","","","",""
"","","","","","html-keyboard-response","132","448752","0.0-132.0","6E3C709570804E69811BC7A92D030A32","019cf4af-4f0f-7acb-b7a3-3e7e14ab8b8b","019cf498-06e0-702e-b525-9cde1ad77653","","null","
                <div class=""stimulus-container"">
                    <img src=""images/causal_sequence/museum_causal/museum_causal_6.png"" class=""exp-image"">
                    <div class=""question-area""></div> 
                </div>","null","","","","","","","","",""
"","","","","","html-button-response","133","449618","0.0-133.0","6E3C709570804E69811BC7A92D030A32","019cf4af-4f0f-7acb-b7a3-3e7e14ab8b8b","019cf498-06e0-702e-b525-9cde1ad77653","","847","
                <div class=""stimulus-container"">
                    <img src=""images/causal_sequence/museum_causal/museum_causal_6.png"" class=""exp-image"">
                    <div class=""question-area"">
                        <p style=""font-size: 20px; font-weight: bold; margin: 0;"">Is there a person in this image?</p>
                    </div>
                </div>","0","main_experiment_trial","6","museum_causal","causal_sequence","","","","",""
"","","","","","html-keyboard-response","134","454633","0.0-134.0","6E3C709570804E69811BC7A92D030A32","019cf4af-4f0f-7acb-b7a3-3e7e14ab8b8b","019cf498-06e0-702e-b525-9cde1ad77653","","null","
                <div class=""stimulus-container"">
                    <img src=""images/causal_sequence/museum_causal/museum_causal_7.png"" class=""exp-image"">
                    <div class=""question-area""></div> 
                </div>","null","","","","","","","","",""
"","","","","","html-button-response","135","456134","0.0-135.0","6E3C709570804E69811BC7A92D030A32","019cf4af-4f0f-7acb-b7a3-3e7e14ab8b8b","019cf498-06e0-702e-b525-9cde1ad77653","","1486","
                <div class=""stimulus-container"">
                    <img src=""images/causal_sequence/museum_causal/museum_causal_7.png"" class=""exp-image"">
                    <div class=""question-area"">
                        <p style=""font-size: 20px; font-weight: bold; margin: 0;"">Is there a person in this image?</p>
                    </div>
                </div>","1","main_experiment_trial","7","museum_causal","causal_sequence","","","","",""
"","","","","","html-keyboard-response","136","461151","0.0-136.0","6E3C709570804E69811BC7A92D030A32","019cf4af-4f0f-7acb-b7a3-3e7e14ab8b8b","019cf498-06e0-702e-b525-9cde1ad77653","","null","
                <div class=""stimulus-container"">
                    <img src=""images/causal_sequence/museum_causal/museum_causal_8.png"" class=""exp-image"">
                    <div class=""question-area""></div> 
                </div>","null","","","","","","","","",""
"","","","","","html-button-response","137","464170","0.0-137.0","6E3C709570804E69811BC7A92D030A32","019cf4af-4f0f-7acb-b7a3-3e7e14ab8b8b","019cf498-06e0-702e-b525-9cde1ad77653","","null","
                <div class=""stimulus-container"">
                    <img src=""images/causal_sequence/museum_causal/museum_causal_8.png"" class=""exp-image"">
                    <div class=""question-area"">
                        <p style=""font-size: 20px; font-weight: bold; margin: 0;"">Is there a person in this image?</p>
                    </div>
                </div>","null","main_experiment_trial","8","museum_causal","causal_sequence","","","","",""
"","","","","","html-keyboard-response","138","469186","0.0-138.0","6E3C709570804E69811BC7A92D030A32","019cf4af-4f0f-7acb-b7a3-3e7e14ab8b8b","019cf498-06e0-702e-b525-9cde1ad77653","","null","
                <div class=""stimulus-container"">
                    <img src=""images/causal_sequence/museum_causal/museum_causal_9.png"" class=""exp-image"">
                    <div class=""question-area""></div> 
                </div>","null","","","","","","","","",""
"","","","","","html-button-response","139","470118","0.0-139.0","6E3C709570804E69811BC7A92D030A32","019cf4af-4f0f-7acb-b7a3-3e7e14ab8b8b","019cf498-06e0-702e-b525-9cde1ad77653","","915","
                <div class=""stimulus-container"">
                    <img src=""images/causal_sequence/museum_causal/museum_causal_9.png"" class=""exp-image"">
                    <div class=""question-area"">
                        <p style=""font-size: 20px; font-weight: bold; margin: 0;"">Is there a person in this image?</p>
                    </div>
                </div>","1","main_experiment_trial","9","museum_causal","causal_sequence","","","","",""
"","","","","","html-keyboard-response","140","475134","0.0-140.0","6E3C709570804E69811BC7A92D030A32","019cf4af-4f0f-7acb-b7a3-3e7e14ab8b8b","019cf498-06e0-702e-b525-9cde1ad77653","","null","
                <div class=""stimulus-container"">
                    <img src=""images/causal_sequence/museum_causal/museum_causal_ten.png"" class=""exp-image"">
                    <div class=""question-area""></div> 
                </div>","null","","","","","","","","",""
"","","","","","html-button-response","141","477367","0.0-141.0","6E3C709570804E69811BC7A92D030A32","019cf4af-4f0f-7acb-b7a3-3e7e14ab8b8b","019cf498-06e0-702e-b525-9cde1ad77653","","2215","
                <div class=""stimulus-container"">
                    <img src=""images/causal_sequence/museum_causal/museum_causal_ten.png"" class=""exp-image"">
                    <div class=""question-area"">
                        <p style=""font-size: 20px; font-weight: bold; margin: 0;"">Is there a person in this image?</p>
                    </div>
                </div>","0","main_experiment_trial","ten","museum_causal","causal_sequence","","","","",""
"","","","","","html-keyboard-response","142","478369","0.0-142.0","6E3C709570804E69811BC7A92D030A32","019cf4af-4f0f-7acb-b7a3-3e7e14ab8b8b","019cf498-06e0-702e-b525-9cde1ad77653","","null","<div style=""background-color: white; width: 100vw; height: 100vh;""></div>","null","","","","","","","","",""
"","","","","","html-keyboard-response","143","483388","0.0-143.0","6E3C709570804E69811BC7A92D030A32","019cf4af-4f0f-7acb-b7a3-3e7e14ab8b8b","019cf498-06e0-702e-b525-9cde1ad77653","","null","
                <div class=""stimulus-container"">
                    <img src=""images/schematic_sequence/interview_scheme/interview_scheme_1.png"" class=""exp-image"">
                    <div class=""question-area""></div> 
                </div>","null","","","","","","","","",""
"","","","","","html-button-response","144","484968","0.0-144.0","6E3C709570804E69811BC7A92D030A32","019cf4af-4f0f-7acb-b7a3-3e7e14ab8b8b","019cf498-06e0-702e-b525-9cde1ad77653","","1565","
                <div class=""stimulus-container"">
                    <img src=""images/schematic_sequence/interview_scheme/interview_scheme_1.png"" class=""exp-image"">
                    <div class=""question-area"">
                        <p style=""font-size: 20px; font-weight: bold; margin: 0;"">Is there a person in this image?</p>
                    </div>
                </div>","1","main_experiment_trial","1","interview_scheme","schematic_sequence","","","","",""
"","","","","","html-keyboard-response","145","489985","0.0-145.0","6E3C709570804E69811BC7A92D030A32","019cf4af-4f0f-7acb-b7a3-3e7e14ab8b8b","019cf498-06e0-702e-b525-9cde1ad77653","","null","
                <div class=""stimulus-container"">
                    <img src=""images/schematic_sequence/interview_scheme/interview_scheme_2.png"" class=""exp-image"">
                    <div class=""question-area""></div> 
                </div>","null","","","","","","","","",""
"","","","","","html-button-response","146","491534","0.0-146.0","6E3C709570804E69811BC7A92D030A32","019cf4af-4f0f-7acb-b7a3-3e7e14ab8b8b","019cf498-06e0-702e-b525-9cde1ad77653","","1530","
                <div class=""stimulus-container"">
                    <img src=""images/schematic_sequence/interview_scheme/interview_scheme_2.png"" class=""exp-image"">
                    <div class=""question-area"">
                        <p style=""font-size: 20px; font-weight: bold; margin: 0;"">Is there a person in this image?</p>
                    </div>
                </div>","0","main_experiment_trial","2","interview_scheme","schematic_sequence","","","","",""
"","","","","","html-keyboard-response","147","496552","0.0-147.0","6E3C709570804E69811BC7A92D030A32","019cf4af-4f0f-7acb-b7a3-3e7e14ab8b8b","019cf498-06e0-702e-b525-9cde1ad77653","","null","
                <div class=""stimulus-container"">
                    <img src=""images/schematic_sequence/interview_scheme/interview_scheme_3.png"" class=""exp-image"">
                    <div class=""question-area""></div> 
                </div>","null","","","","","","","","",""
"","","","","","html-button-response","148","497950","0.0-148.0","6E3C709570804E69811BC7A92D030A32","019cf4af-4f0f-7acb-b7a3-3e7e14ab8b8b","019cf498-06e0-702e-b525-9cde1ad77653","","1378","
                <div class=""stimulus-container"">
                    <img src=""images/schematic_sequence/interview_scheme/interview_scheme_3.png"" class=""exp-image"">
                    <div class=""question-area"">
                        <p style=""font-size: 20px; font-weight: bold; margin: 0;"">Is there a person in this image?</p>
                    </div>
                </div>","1","main_experiment_trial","3","interview_scheme","schematic_sequence","","","","",""
"","","","","","html-keyboard-response","149","502967","0.0-149.0","6E3C709570804E69811BC7A92D030A32","019cf4af-4f0f-7acb-b7a3-3e7e14ab8b8b","019cf498-06e0-702e-b525-9cde1ad77653","","null","
                <div class=""stimulus-container"">
                    <img src=""images/schematic_sequence/interview_scheme/interview_scheme_4.png"" class=""exp-image"">
                    <div class=""question-area""></div> 
                </div>","null","","","","","","","","",""
"","","","","","html-button-response","150","503818","0.0-150.0","6E3C709570804E69811BC7A92D030A32","019cf4af-4f0f-7acb-b7a3-3e7e14ab8b8b","019cf498-06e0-702e-b525-9cde1ad77653","","833","
                <div class=""stimulus-container"">
                    <img src=""images/schematic_sequence/interview_scheme/interview_scheme_4.png"" class=""exp-image"">
                    <div class=""question-area"">
                        <p style=""font-size: 20px; font-weight: bold; margin: 0;"">Is there a person in this image?</p>
                    </div>
                </div>","1","main_experiment_trial","4","interview_scheme","schematic_sequence","","","","",""
"","","","","","html-keyboard-response","151","508835","0.0-151.0","6E3C709570804E69811BC7A92D030A32","019cf4af-4f0f-7acb-b7a3-3e7e14ab8b8b","019cf498-06e0-702e-b525-9cde1ad77653","","null","
                <div class=""stimulus-container"">
                    <img src=""images/schematic_sequence/interview_scheme/interview_scheme_5.png"" class=""exp-image"">
                    <div class=""question-area""></div> 
                </div>","null","","","","","","","","",""
"","","","","","html-button-response","152","509484","0.0-152.0","6E3C709570804E69811BC7A92D030A32","019cf4af-4f0f-7acb-b7a3-3e7e14ab8b8b","019cf498-06e0-702e-b525-9cde1ad77653","","629","
                <div class=""stimulus-container"">
                    <img src=""images/schematic_sequence/interview_scheme/interview_scheme_5.png"" class=""exp-image"">
                    <div class=""question-area"">
                        <p style=""font-size: 20px; font-weight: bold; margin: 0;"">Is there a person in this image?</p>
                    </div>
                </div>","0","main_experiment_trial","5","interview_scheme","schematic_sequence","","","","",""
"","","","","","html-keyboard-response","153","514502","0.0-153.0","6E3C709570804E69811BC7A92D030A32","019cf4af-4f0f-7acb-b7a3-3e7e14ab8b8b","019cf498-06e0-702e-b525-9cde1ad77653","","null","
                <div class=""stimulus-container"">
                    <img src=""images/schematic_sequence/interview_scheme/interview_scheme_6.png"" class=""exp-image"">
                    <div class=""question-area""></div> 
                </div>","null","","","","","","","","",""
"","","","","","html-button-response","154","515584","0.0-154.0","6E3C709570804E69811BC7A92D030A32","019cf4af-4f0f-7acb-b7a3-3e7e14ab8b8b","019cf498-06e0-702e-b525-9cde1ad77653","","1062","
                <div class=""stimulus-container"">
                    <img src=""images/schematic_sequence/interview_scheme/interview_scheme_6.png"" class=""exp-image"">
                    <div class=""question-area"">
                        <p style=""font-size: 20px; font-weight: bold; margin: 0;"">Is there a person in this image?</p>
                    </div>
                </div>","0","main_experiment_trial","6","interview_scheme","schematic_sequence","","","","",""
"","","","","","html-keyboard-response","155","520601","0.0-155.0","6E3C709570804E69811BC7A92D030A32","019cf4af-4f0f-7acb-b7a3-3e7e14ab8b8b","019cf498-06e0-702e-b525-9cde1ad77653","","null","
                <div class=""stimulus-container"">
                    <img src=""images/schematic_sequence/interview_scheme/interview_scheme_7.png"" class=""exp-image"">
                    <div class=""question-area""></div> 
                </div>","null","","","","","","","","",""
"","","","","","html-button-response","156","522034","0.0-156.0","6E3C709570804E69811BC7A92D030A32","019cf4af-4f0f-7acb-b7a3-3e7e14ab8b8b","019cf498-06e0-702e-b525-9cde1ad77653","","1417","
                <div class=""stimulus-container"">
                    <img src=""images/schematic_sequence/interview_scheme/interview_scheme_7.png"" class=""exp-image"">
                    <div class=""question-area"">
                        <p style=""font-size: 20px; font-weight: bold; margin: 0;"">Is there a person in this image?</p>
                    </div>
                </div>","0","main_experiment_trial","7","interview_scheme","schematic_sequence","","","","",""
"","","","","","html-keyboard-response","157","527052","0.0-157.0","6E3C709570804E69811BC7A92D030A32","019cf4af-4f0f-7acb-b7a3-3e7e14ab8b8b","019cf498-06e0-702e-b525-9cde1ad77653","","null","
                <div class=""stimulus-container"">
                    <img src=""images/schematic_sequence/interview_scheme/interview_scheme_8.png"" class=""exp-image"">
                    <div class=""question-area""></div> 
                </div>","null","","","","","","","","",""
"","","","","","html-button-response","158","528399","0.0-158.0","6E3C709570804E69811BC7A92D030A32","019cf4af-4f0f-7acb-b7a3-3e7e14ab8b8b","019cf498-06e0-702e-b525-9cde1ad77653","","1328","
                <div class=""stimulus-container"">
                    <img src=""images/schematic_sequence/interview_scheme/interview_scheme_8.png"" class=""exp-image"">
                    <div class=""question-area"">
                        <p style=""font-size: 20px; font-weight: bold; margin: 0;"">Is there a person in this image?</p>
                    </div>
                </div>","0","main_experiment_trial","8","interview_scheme","schematic_sequence","","","","",""
"","","","","","html-keyboard-response","159","533418","0.0-159.0","6E3C709570804E69811BC7A92D030A32","019cf4af-4f0f-7acb-b7a3-3e7e14ab8b8b","019cf498-06e0-702e-b525-9cde1ad77653","","null","
                <div class=""stimulus-container"">
                    <img src=""images/schematic_sequence/interview_scheme/interview_scheme_9.png"" class=""exp-image"">
                    <div class=""question-area""></div> 
                </div>","null","","","","","","","","",""
"","","","","","html-button-response","160","535050","0.0-160.0","6E3C709570804E69811BC7A92D030A32","019cf4af-4f0f-7acb-b7a3-3e7e14ab8b8b","019cf498-06e0-702e-b525-9cde1ad77653","","1613","
                <div class=""stimulus-container"">
                    <img src=""images/schematic_sequence/interview_scheme/interview_scheme_9.png"" class=""exp-image"">
                    <div class=""question-area"">
                        <p style=""font-size: 20px; font-weight: bold; margin: 0;"">Is there a person in this image?</p>
                    </div>
                </div>","0","main_experiment_trial","9","interview_scheme","schematic_sequence","","","","",""
"","","","","","html-keyboard-response","161","540068","0.0-161.0","6E3C709570804E69811BC7A92D030A32","019cf4af-4f0f-7acb-b7a3-3e7e14ab8b8b","019cf498-06e0-702e-b525-9cde1ad77653","","null","
                <div class=""stimulus-container"">
                    <img src=""images/schematic_sequence/interview_scheme/interview_scheme_ten.png"" class=""exp-image"">
                    <div class=""question-area""></div> 
                </div>","null","","","","","","","","",""
"","","","","","html-button-response","162","542001","0.0-162.0","6E3C709570804E69811BC7A92D030A32","019cf4af-4f0f-7acb-b7a3-3e7e14ab8b8b","019cf498-06e0-702e-b525-9cde1ad77653","","1914","
                <div class=""stimulus-container"">
                    <img src=""images/schematic_sequence/interview_scheme/interview_scheme_ten.png"" class=""exp-image"">
                    <div class=""question-area"">
                        <p style=""font-size: 20px; font-weight: bold; margin: 0;"">Is there a person in this image?</p>
                    </div>
                </div>","0","main_experiment_trial","ten","interview_scheme","schematic_sequence","","","","",""
"","","","","","html-keyboard-response","163","543003","0.0-163.0","6E3C709570804E69811BC7A92D030A32","019cf4af-4f0f-7acb-b7a3-3e7e14ab8b8b","019cf498-06e0-702e-b525-9cde1ad77653","","null","<div style=""background-color: white; width: 100vw; height: 100vh;""></div>","null","","","","","","","","",""
"","","","","","html-keyboard-response","164","548022","0.0-164.0","6E3C709570804E69811BC7A92D030A32","019cf4af-4f0f-7acb-b7a3-3e7e14ab8b8b","019cf498-06e0-702e-b525-9cde1ad77653","","null","
                <div class=""stimulus-container"">
                    <img src=""images/causal_sequence/saving_a_cat_causal/saving_a_cat_causal_1.png"" class=""exp-image"">
                    <div class=""question-area""></div> 
                </div>","null","","","","","","","","",""
"","","","","","html-button-response","165","549350","0.0-165.0","6E3C709570804E69811BC7A92D030A32","019cf4af-4f0f-7acb-b7a3-3e7e14ab8b8b","019cf498-06e0-702e-b525-9cde1ad77653","","1310","
                <div class=""stimulus-container"">
                    <img src=""images/causal_sequence/saving_a_cat_causal/saving_a_cat_causal_1.png"" class=""exp-image"">
                    <div class=""question-area"">
                        <p style=""font-size: 20px; font-weight: bold; margin: 0;"">Is there a person in this image?</p>
                    </div>
                </div>","0","main_experiment_trial","1","saving_a_cat_causal","causal_sequence","","","","",""
"","","","","","html-keyboard-response","166","554367","0.0-166.0","6E3C709570804E69811BC7A92D030A32","019cf4af-4f0f-7acb-b7a3-3e7e14ab8b8b","019cf498-06e0-702e-b525-9cde1ad77653","","null","
                <div class=""stimulus-container"">
                    <img src=""images/causal_sequence/saving_a_cat_causal/saving_a_cat_causal_2.png"" class=""exp-image"">
                    <div class=""question-area""></div> 
                </div>","null","","","","","","","","",""
"","","","","","html-button-response","167","555817","0.0-167.0","6E3C709570804E69811BC7A92D030A32","019cf4af-4f0f-7acb-b7a3-3e7e14ab8b8b","019cf498-06e0-702e-b525-9cde1ad77653","","1437","
                <div class=""stimulus-container"">
                    <img src=""images/causal_sequence/saving_a_cat_causal/saving_a_cat_causal_2.png"" class=""exp-image"">
                    <div class=""question-area"">
                        <p style=""font-size: 20px; font-weight: bold; margin: 0;"">Is there a person in this image?</p>
                    </div>
                </div>","1","main_experiment_trial","2","saving_a_cat_causal","causal_sequence","","","","",""
"","","","","","html-keyboard-response","168","560835","0.0-168.0","6E3C709570804E69811BC7A92D030A32","019cf4af-4f0f-7acb-b7a3-3e7e14ab8b8b","019cf498-06e0-702e-b525-9cde1ad77653","","null","
                <div class=""stimulus-container"">
                    <img src=""images/causal_sequence/saving_a_cat_causal/saving_a_cat_causal_3.png"" class=""exp-image"">
                    <div class=""question-area""></div> 
                </div>","null","","","","","","","","",""
"","","","","","html-button-response","169","562334","0.0-169.0","6E3C709570804E69811BC7A92D030A32","019cf4af-4f0f-7acb-b7a3-3e7e14ab8b8b","019cf498-06e0-702e-b525-9cde1ad77653","","1480","
                <div class=""stimulus-container"">
                    <img src=""images/causal_sequence/saving_a_cat_causal/saving_a_cat_causal_3.png"" class=""exp-image"">
                    <div class=""question-area"">
                        <p style=""font-size: 20px; font-weight: bold; margin: 0;"">Is there a person in this image?</p>
                    </div>
                </div>","1","main_experiment_trial","3","saving_a_cat_causal","causal_sequence","","","","",""
"","","","","","html-keyboard-response","170","567352","0.0-170.0","6E3C709570804E69811BC7A92D030A32","019cf4af-4f0f-7acb-b7a3-3e7e14ab8b8b","019cf498-06e0-702e-b525-9cde1ad77653","","null","
                <div class=""stimulus-container"">
                    <img src=""images/causal_sequence/saving_a_cat_causal/saving_a_cat_causal_4.png"" class=""exp-image"">
                    <div class=""question-area""></div> 
                </div>","null","","","","","","","","",""
"","","","","","html-button-response","171","568718","0.0-171.0","6E3C709570804E69811BC7A92D030A32","019cf4af-4f0f-7acb-b7a3-3e7e14ab8b8b","019cf498-06e0-702e-b525-9cde1ad77653","","1347","
                <div class=""stimulus-container"">
                    <img src=""images/causal_sequence/saving_a_cat_causal/saving_a_cat_causal_4.png"" class=""exp-image"">
                    <div class=""question-area"">
                        <p style=""font-size: 20px; font-weight: bold; margin: 0;"">Is there a person in this image?</p>
                    </div>
                </div>","0","main_experiment_trial","4","saving_a_cat_causal","causal_sequence","","","","",""
"","","","","","html-keyboard-response","172","573734","0.0-172.0","6E3C709570804E69811BC7A92D030A32","019cf4af-4f0f-7acb-b7a3-3e7e14ab8b8b","019cf498-06e0-702e-b525-9cde1ad77653","","null","
                <div class=""stimulus-container"">
                    <img src=""images/causal_sequence/saving_a_cat_causal/saving_a_cat_causal_5.png"" class=""exp-image"">
                    <div class=""question-area""></div> 
                </div>","null","","","","","","","","",""
"","","","","","html-button-response","173","575267","0.0-173.0","6E3C709570804E69811BC7A92D030A32","019cf4af-4f0f-7acb-b7a3-3e7e14ab8b8b","019cf498-06e0-702e-b525-9cde1ad77653","","1514","
                <div class=""stimulus-container"">
                    <img src=""images/causal_sequence/saving_a_cat_causal/saving_a_cat_causal_5.png"" class=""exp-image"">
                    <div class=""question-area"">
                        <p style=""font-size: 20px; font-weight: bold; margin: 0;"">Is there a person in this image?</p>
                    </div>
                </div>","0","main_experiment_trial","5","saving_a_cat_causal","causal_sequence","","","","",""
"","","","","","html-keyboard-response","174","580285","0.0-174.0","6E3C709570804E69811BC7A92D030A32","019cf4af-4f0f-7acb-b7a3-3e7e14ab8b8b","019cf498-06e0-702e-b525-9cde1ad77653","","null","
                <div class=""stimulus-container"">
                    <img src=""images/causal_sequence/saving_a_cat_causal/saving_a_cat_causal_6.png"" class=""exp-image"">
                    <div class=""question-area""></div> 
                </div>","null","","","","","","","","",""
"","","","","","html-button-response","175","581601","0.0-175.0","6E3C709570804E69811BC7A92D030A32","019cf4af-4f0f-7acb-b7a3-3e7e14ab8b8b","019cf498-06e0-702e-b525-9cde1ad77653","","1297","
                <div class=""stimulus-container"">
                    <img src=""images/causal_sequence/saving_a_cat_causal/saving_a_cat_causal_6.png"" class=""exp-image"">
                    <div class=""question-area"">
                        <p style=""font-size: 20px; font-weight: bold; margin: 0;"">Is there a person in this image?</p>
                    </div>
                </div>","0","main_experiment_trial","6","saving_a_cat_causal","causal_sequence","","","","",""
"","","","","","html-keyboard-response","176","586617","0.0-176.0","6E3C709570804E69811BC7A92D030A32","019cf4af-4f0f-7acb-b7a3-3e7e14ab8b8b","019cf498-06e0-702e-b525-9cde1ad77653","","null","
                <div class=""stimulus-container"">
                    <img src=""images/causal_sequence/saving_a_cat_causal/saving_a_cat_causal_7.png"" class=""exp-image"">
                    <div class=""question-area""></div> 
                </div>","null","","","","","","","","",""
"","","","","","html-button-response","177","587685","0.0-177.0","6E3C709570804E69811BC7A92D030A32","019cf4af-4f0f-7acb-b7a3-3e7e14ab8b8b","019cf498-06e0-702e-b525-9cde1ad77653","","1053","
                <div class=""stimulus-container"">
                    <img src=""images/causal_sequence/saving_a_cat_causal/saving_a_cat_causal_7.png"" class=""exp-image"">
                    <div class=""question-area"">
                        <p style=""font-size: 20px; font-weight: bold; margin: 0;"">Is there a person in this image?</p>
                    </div>
                </div>","0","main_experiment_trial","7","saving_a_cat_causal","causal_sequence","","","","",""
"","","","","","html-keyboard-response","178","592701","0.0-178.0","6E3C709570804E69811BC7A92D030A32","019cf4af-4f0f-7acb-b7a3-3e7e14ab8b8b","019cf498-06e0-702e-b525-9cde1ad77653","","null","
                <div class=""stimulus-container"">
                    <img src=""images/causal_sequence/saving_a_cat_causal/saving_a_cat_causal_8.png"" class=""exp-image"">
                    <div class=""question-area""></div> 
                </div>","null","","","","","","","","",""
"","","","","","html-button-response","179","593417","0.0-179.0","6E3C709570804E69811BC7A92D030A32","019cf4af-4f0f-7acb-b7a3-3e7e14ab8b8b","019cf498-06e0-702e-b525-9cde1ad77653","","703","
                <div class=""stimulus-container"">
                    <img src=""images/causal_sequence/saving_a_cat_causal/saving_a_cat_causal_8.png"" class=""exp-image"">
                    <div class=""question-area"">
                        <p style=""font-size: 20px; font-weight: bold; margin: 0;"">Is there a person in this image?</p>
                    </div>
                </div>","0","main_experiment_trial","8","saving_a_cat_causal","causal_sequence","","","","",""
"","","","","","html-keyboard-response","180","598434","0.0-180.0","6E3C709570804E69811BC7A92D030A32","019cf4af-4f0f-7acb-b7a3-3e7e14ab8b8b","019cf498-06e0-702e-b525-9cde1ad77653","","null","
                <div class=""stimulus-container"">
                    <img src=""images/causal_sequence/saving_a_cat_causal/saving_a_cat_causal_9.png"" class=""exp-image"">
                    <div class=""question-area""></div> 
                </div>","null","","","","","","","","",""
"","","","","","html-button-response","181","599167","0.0-181.0","6E3C709570804E69811BC7A92D030A32","019cf4af-4f0f-7acb-b7a3-3e7e14ab8b8b","019cf498-06e0-702e-b525-9cde1ad77653","","714","
                <div class=""stimulus-container"">
                    <img src=""images/causal_sequence/saving_a_cat_causal/saving_a_cat_causal_9.png"" class=""exp-image"">
                    <div class=""question-area"">
                        <p style=""font-size: 20px; font-weight: bold; margin: 0;"">Is there a person in this image?</p>
                    </div>
                </div>","0","main_experiment_trial","9","saving_a_cat_causal","causal_sequence","","","","",""
"","","","","","html-keyboard-response","182","604183","0.0-182.0","6E3C709570804E69811BC7A92D030A32","019cf4af-4f0f-7acb-b7a3-3e7e14ab8b8b","019cf498-06e0-702e-b525-9cde1ad77653","","null","
                <div class=""stimulus-container"">
                    <img src=""images/causal_sequence/saving_a_cat_causal/saving_a_cat_causal_ten.png"" class=""exp-image"">
                    <div class=""question-area""></div> 
                </div>","null","","","","","","","","",""
"","","","","","html-button-response","183","605834","0.0-183.0","6E3C709570804E69811BC7A92D030A32","019cf4af-4f0f-7acb-b7a3-3e7e14ab8b8b","019cf498-06e0-702e-b525-9cde1ad77653","","1632","
                <div class=""stimulus-container"">
                    <img src=""images/causal_sequence/saving_a_cat_causal/saving_a_cat_causal_ten.png"" class=""exp-image"">
                    <div class=""question-area"">
                        <p style=""font-size: 20px; font-weight: bold; margin: 0;"">Is there a person in this image?</p>
                    </div>
                </div>","0","main_experiment_trial","ten","saving_a_cat_causal","causal_sequence","","","","",""
"","","","","","html-keyboard-response","184","606836","0.0-184.0","6E3C709570804E69811BC7A92D030A32","019cf4af-4f0f-7acb-b7a3-3e7e14ab8b8b","019cf498-06e0-702e-b525-9cde1ad77653","","null","<div style=""background-color: white; width: 100vw; height: 100vh;""></div>","null","","","","","","","","",""
