"success","timeout","failed_images","failed_audio","failed_video","trial_type","trial_index","time_elapsed","internal_node_id","subject_id","study_id","session_id","view_history","rt","stimulus","response","task","image_index","folder","sequence_type","valuable_image_index","reward_type","chosen_image_index","target_X","correct_choice"
"true","false","[]","[]","[]","preload","0","12582","0.0-0.0","7BFB3148D55A4F9D9FF2B7778641C771","019cf7c5-9374-7717-a3aa-5d51c7972323","019cf7bd-52b9-7f96-9138-a5960b400b31","","","","","","","","","","","","",""
"","","","","","instructions","1","15807","0.0-1.0","7BFB3148D55A4F9D9FF2B7778641C771","019cf7c5-9374-7717-a3aa-5d51c7972323","019cf7bd-52b9-7f96-9138-a5960b400b31","[{""page_index"":0,""viewing_time"":3218}]","3222","","","","","","","","","","",""
"","","","","","instructions","2","21094","0.0-2.0","7BFB3148D55A4F9D9FF2B7778641C771","019cf7c5-9374-7717-a3aa-5d51c7972323","019cf7bd-52b9-7f96-9138-a5960b400b31","[{""page_index"":0,""viewing_time"":5282}]","5284","","","","","","","","","","",""
"true","","","","","fullscreen","3","25748","0.0-3.0","7BFB3148D55A4F9D9FF2B7778641C771","019cf7c5-9374-7717-a3aa-5d51c7972323","019cf7bd-52b9-7f96-9138-a5960b400b31","","3640","","","","","","","","","","",""
"","","","","","instructions","4","30182","0.0-4.0","7BFB3148D55A4F9D9FF2B7778641C771","019cf7c5-9374-7717-a3aa-5d51c7972323","019cf7bd-52b9-7f96-9138-a5960b400b31","[{""page_index"":0,""viewing_time"":4432}]","4433","","","","","","","","","","",""
"","","","","","instructions","5","32374","0.0-5.0","7BFB3148D55A4F9D9FF2B7778641C771","019cf7c5-9374-7717-a3aa-5d51c7972323","019cf7bd-52b9-7f96-9138-a5960b400b31","[{""page_index"":0,""viewing_time"":2188}]","2189","","","","","","","","","","",""
"","","","","","html-keyboard-response","6","36387","0.0-6.0","7BFB3148D55A4F9D9FF2B7778641C771","019cf7c5-9374-7717-a3aa-5d51c7972323","019cf7bd-52b9-7f96-9138-a5960b400b31","","null","
                <div class=""stimulus-container"">
                    <img src=""images/instructions/movie_1.png"" class=""exp-image"">
                    <div class=""question-area""></div> 
                </div>","null","","","","","","","","",""
"","","","","","html-button-response","7","38930","0.0-7.0","7BFB3148D55A4F9D9FF2B7778641C771","019cf7c5-9374-7717-a3aa-5d51c7972323","019cf7bd-52b9-7f96-9138-a5960b400b31","","2533","
                <div class=""stimulus-container"">
                    <img src=""images/instructions/movie_1.png"" class=""exp-image"">
                    <div class=""question-area"">
                        <p style=""font-size: 20px; font-weight: bold; margin: 0;"">Was there a person in this image?</p>
                    </div>
                </div>","0","example_question","1","","","","","","",""
"","","","","","html-keyboard-response","8","42936","0.0-8.0","7BFB3148D55A4F9D9FF2B7778641C771","019cf7c5-9374-7717-a3aa-5d51c7972323","019cf7bd-52b9-7f96-9138-a5960b400b31","","null","
                <div class=""stimulus-container"">
                    <img src=""images/instructions/movie_2.png"" class=""exp-image"">
                    <div class=""question-area""></div> 
                </div>","null","","","","","","","","",""
"","","","","","html-button-response","9","45017","0.0-9.0","7BFB3148D55A4F9D9FF2B7778641C771","019cf7c5-9374-7717-a3aa-5d51c7972323","019cf7bd-52b9-7f96-9138-a5960b400b31","","2072","
                <div class=""stimulus-container"">
                    <img src=""images/instructions/movie_2.png"" class=""exp-image"">
                    <div class=""question-area"">
                        <p style=""font-size: 20px; font-weight: bold; margin: 0;"">Was there a person in this image?</p>
                    </div>
                </div>","0","example_question","2","","","","","","",""
"","","","","","html-keyboard-response","10","49026","0.0-10.0","7BFB3148D55A4F9D9FF2B7778641C771","019cf7c5-9374-7717-a3aa-5d51c7972323","019cf7bd-52b9-7f96-9138-a5960b400b31","","null","
                <div class=""stimulus-container"">
                    <img src=""images/instructions/movie_3.png"" class=""exp-image"">
                    <div class=""question-area""></div> 
                </div>","null","","","","","","","","",""
"","","","","","html-button-response","11","49933","0.0-11.0","7BFB3148D55A4F9D9FF2B7778641C771","019cf7c5-9374-7717-a3aa-5d51c7972323","019cf7bd-52b9-7f96-9138-a5960b400b31","","896","
                <div class=""stimulus-container"">
                    <img src=""images/instructions/movie_3.png"" class=""exp-image"">
                    <div class=""question-area"">
                        <p style=""font-size: 20px; font-weight: bold; margin: 0;"">Was there a person in this image?</p>
                    </div>
                </div>","0","example_question","3","","","","","","",""
"","","","","","html-keyboard-response","12","53942","0.0-12.0","7BFB3148D55A4F9D9FF2B7778641C771","019cf7c5-9374-7717-a3aa-5d51c7972323","019cf7bd-52b9-7f96-9138-a5960b400b31","","null","
                <div class=""stimulus-container"">
                    <img src=""images/instructions/movie_4.png"" class=""exp-image"">
                    <div class=""question-area""></div> 
                </div>","null","","","","","","","","",""
"","","","","","html-button-response","13","54426","0.0-13.0","7BFB3148D55A4F9D9FF2B7778641C771","019cf7c5-9374-7717-a3aa-5d51c7972323","019cf7bd-52b9-7f96-9138-a5960b400b31","","473","
                <div class=""stimulus-container"">
                    <img src=""images/instructions/movie_4.png"" class=""exp-image"">
                    <div class=""question-area"">
                        <p style=""font-size: 20px; font-weight: bold; margin: 0;"">Was there a person in this image?</p>
                    </div>
                </div>","0","example_question","4","","","","","","",""
"","","","","","instructions","14","55899","0.0-14.0","7BFB3148D55A4F9D9FF2B7778641C771","019cf7c5-9374-7717-a3aa-5d51c7972323","019cf7bd-52b9-7f96-9138-a5960b400b31","[{""page_index"":0,""viewing_time"":1468}]","1469","","","","","","","","","","",""
"","","","","","instructions","15","58456","0.0-15.0","7BFB3148D55A4F9D9FF2B7778641C771","019cf7c5-9374-7717-a3aa-5d51c7972323","019cf7bd-52b9-7f96-9138-a5960b400b31","[{""page_index"":0,""viewing_time"":2554}]","2555","","","","","","","","","","",""
"","","","","","html-keyboard-response","16","59461","0.0-16.0","7BFB3148D55A4F9D9FF2B7778641C771","019cf7c5-9374-7717-a3aa-5d51c7972323","019cf7bd-52b9-7f96-9138-a5960b400b31","","null","<div style=""background-color: white; width: 100vw; height: 100vh;""></div>","null","","","","","","","","",""
"","","","","","html-keyboard-response","17","64470","0.0-17.0","7BFB3148D55A4F9D9FF2B7778641C771","019cf7c5-9374-7717-a3aa-5d51c7972323","019cf7bd-52b9-7f96-9138-a5960b400b31","","null","
                <div class=""stimulus-container"">
                    <img src=""images/schematic_sequence/flight_scheme/flight_scheme_1.png"" class=""exp-image"">
                    <div class=""question-area""></div> 
                </div>","null","","","","","","","","",""
"","","","","","html-button-response","18","65431","0.0-18.0","7BFB3148D55A4F9D9FF2B7778641C771","019cf7c5-9374-7717-a3aa-5d51c7972323","019cf7bd-52b9-7f96-9138-a5960b400b31","","947","
                <div class=""stimulus-container"">
                    <img src=""images/schematic_sequence/flight_scheme/flight_scheme_1.png"" class=""exp-image"">
                    <div class=""question-area"">
                        <p style=""font-size: 20px; font-weight: bold; margin: 0;"">Is there a person in this image?</p>
                    </div>
                </div>","0","main_experiment_trial","1","flight_scheme","schematic_sequence","","","","",""
"","","","","","html-keyboard-response","19","70439","0.0-19.0","7BFB3148D55A4F9D9FF2B7778641C771","019cf7c5-9374-7717-a3aa-5d51c7972323","019cf7bd-52b9-7f96-9138-a5960b400b31","","null","
                <div class=""stimulus-container"">
                    <img src=""images/schematic_sequence/flight_scheme/flight_scheme_2.png"" class=""exp-image"">
                    <div class=""question-area""></div> 
                </div>","null","","","","","","","","",""
"","","","","","html-button-response","20","73446","0.0-20.0","7BFB3148D55A4F9D9FF2B7778641C771","019cf7c5-9374-7717-a3aa-5d51c7972323","019cf7bd-52b9-7f96-9138-a5960b400b31","","null","
                <div class=""stimulus-container"">
                    <img src=""images/schematic_sequence/flight_scheme/flight_scheme_2.png"" class=""exp-image"">
                    <div class=""question-area"">
                        <p style=""font-size: 20px; font-weight: bold; margin: 0;"">Is there a person in this image?</p>
                    </div>
                </div>","null","main_experiment_trial","2","flight_scheme","schematic_sequence","","","","",""
"","","","","","html-keyboard-response","21","78455","0.0-21.0","7BFB3148D55A4F9D9FF2B7778641C771","019cf7c5-9374-7717-a3aa-5d51c7972323","019cf7bd-52b9-7f96-9138-a5960b400b31","","null","
                <div class=""stimulus-container"">
                    <img src=""images/schematic_sequence/flight_scheme/flight_scheme_3.png"" class=""exp-image"">
                    <div class=""question-area""></div> 
                </div>","null","","","","","","","","",""
"","","","","","html-button-response","22","79401","0.0-22.0","7BFB3148D55A4F9D9FF2B7778641C771","019cf7c5-9374-7717-a3aa-5d51c7972323","019cf7bd-52b9-7f96-9138-a5960b400b31","","935","
                <div class=""stimulus-container"">
                    <img src=""images/schematic_sequence/flight_scheme/flight_scheme_3.png"" class=""exp-image"">
                    <div class=""question-area"">
                        <p style=""font-size: 20px; font-weight: bold; margin: 0;"">Is there a person in this image?</p>
                    </div>
                </div>","0","main_experiment_trial","3","flight_scheme","schematic_sequence","","","","",""
"","","","","","html-keyboard-response","23","84408","0.0-23.0","7BFB3148D55A4F9D9FF2B7778641C771","019cf7c5-9374-7717-a3aa-5d51c7972323","019cf7bd-52b9-7f96-9138-a5960b400b31","","null","
                <div class=""stimulus-container"">
                    <img src=""images/schematic_sequence/flight_scheme/flight_scheme_4.png"" class=""exp-image"">
                    <div class=""question-area""></div> 
                </div>","null","","","","","","","","",""
"","","","","","html-button-response","24","84844","0.0-24.0","7BFB3148D55A4F9D9FF2B7778641C771","019cf7c5-9374-7717-a3aa-5d51c7972323","019cf7bd-52b9-7f96-9138-a5960b400b31","","422","
                <div class=""stimulus-container"">
                    <img src=""images/schematic_sequence/flight_scheme/flight_scheme_4.png"" class=""exp-image"">
                    <div class=""question-area"">
                        <p style=""font-size: 20px; font-weight: bold; margin: 0;"">Is there a person in this image?</p>
                    </div>
                </div>","0","main_experiment_trial","4","flight_scheme","schematic_sequence","","","","",""
"","","","","","html-keyboard-response","25","89852","0.0-25.0","7BFB3148D55A4F9D9FF2B7778641C771","019cf7c5-9374-7717-a3aa-5d51c7972323","019cf7bd-52b9-7f96-9138-a5960b400b31","","null","
                <div class=""stimulus-container"">
                    <img src=""images/schematic_sequence/flight_scheme/flight_scheme_5.png"" class=""exp-image"">
                    <div class=""question-area""></div> 
                </div>","null","","","","","","","","",""
"","","","","","html-button-response","26","90552","0.0-26.0","7BFB3148D55A4F9D9FF2B7778641C771","019cf7c5-9374-7717-a3aa-5d51c7972323","019cf7bd-52b9-7f96-9138-a5960b400b31","","689","
                <div class=""stimulus-container"">
                    <img src=""images/schematic_sequence/flight_scheme/flight_scheme_5.png"" class=""exp-image"">
                    <div class=""question-area"">
                        <p style=""font-size: 20px; font-weight: bold; margin: 0;"">Is there a person in this image?</p>
                    </div>
                </div>","0","main_experiment_trial","5","flight_scheme","schematic_sequence","","","","",""
"","","","","","html-keyboard-response","27","95558","0.0-27.0","7BFB3148D55A4F9D9FF2B7778641C771","019cf7c5-9374-7717-a3aa-5d51c7972323","019cf7bd-52b9-7f96-9138-a5960b400b31","","null","
                <div class=""stimulus-container"">
                    <img src=""images/schematic_sequence/flight_scheme/flight_scheme_6.png"" class=""exp-image"">
                    <div class=""question-area""></div> 
                </div>","null","","","","","","","","",""
"","","","","","html-button-response","28","96287","0.0-28.0","7BFB3148D55A4F9D9FF2B7778641C771","019cf7c5-9374-7717-a3aa-5d51c7972323","019cf7bd-52b9-7f96-9138-a5960b400b31","","719","
                <div class=""stimulus-container"">
                    <img src=""images/schematic_sequence/flight_scheme/flight_scheme_6.png"" class=""exp-image"">
                    <div class=""question-area"">
                        <p style=""font-size: 20px; font-weight: bold; margin: 0;"">Is there a person in this image?</p>
                    </div>
                </div>","1","main_experiment_trial","6","flight_scheme","schematic_sequence","","","","",""
"","","","","","html-keyboard-response","29","101294","0.0-29.0","7BFB3148D55A4F9D9FF2B7778641C771","019cf7c5-9374-7717-a3aa-5d51c7972323","019cf7bd-52b9-7f96-9138-a5960b400b31","","null","
                <div class=""stimulus-container"">
                    <img src=""images/schematic_sequence/flight_scheme/flight_scheme_7.png"" class=""exp-image"">
                    <div class=""question-area""></div> 
                </div>","null","","","","","","","","",""
"","","","","","html-button-response","30","101870","0.0-30.0","7BFB3148D55A4F9D9FF2B7778641C771","019cf7c5-9374-7717-a3aa-5d51c7972323","019cf7bd-52b9-7f96-9138-a5960b400b31","","565","
                <div class=""stimulus-container"">
                    <img src=""images/schematic_sequence/flight_scheme/flight_scheme_7.png"" class=""exp-image"">
                    <div class=""question-area"">
                        <p style=""font-size: 20px; font-weight: bold; margin: 0;"">Is there a person in this image?</p>
                    </div>
                </div>","0","main_experiment_trial","7","flight_scheme","schematic_sequence","","","","",""
"","","","","","html-keyboard-response","31","106876","0.0-31.0","7BFB3148D55A4F9D9FF2B7778641C771","019cf7c5-9374-7717-a3aa-5d51c7972323","019cf7bd-52b9-7f96-9138-a5960b400b31","","null","
                <div class=""stimulus-container"">
                    <img src=""images/schematic_sequence/flight_scheme/flight_scheme_8.png"" class=""exp-image"">
                    <div class=""question-area""></div> 
                </div>","null","","","","","","","","",""
"","","","","","html-button-response","32","107467","0.0-32.0","7BFB3148D55A4F9D9FF2B7778641C771","019cf7c5-9374-7717-a3aa-5d51c7972323","019cf7bd-52b9-7f96-9138-a5960b400b31","","585","
                <div class=""stimulus-container"">
                    <img src=""images/schematic_sequence/flight_scheme/flight_scheme_8.png"" class=""exp-image"">
                    <div class=""question-area"">
                        <p style=""font-size: 20px; font-weight: bold; margin: 0;"">Is there a person in this image?</p>
                    </div>
                </div>","1","main_experiment_trial","8","flight_scheme","schematic_sequence","","","","",""
"","","","","","html-keyboard-response","33","112475","0.0-33.0","7BFB3148D55A4F9D9FF2B7778641C771","019cf7c5-9374-7717-a3aa-5d51c7972323","019cf7bd-52b9-7f96-9138-a5960b400b31","","null","
                <div class=""stimulus-container"">
                    <img src=""images/schematic_sequence/flight_scheme/flight_scheme_9.png"" class=""exp-image"">
                    <div class=""question-area""></div> 
                </div>","null","","","","","","","","",""
"","","","","","html-button-response","34","113230","0.0-34.0","7BFB3148D55A4F9D9FF2B7778641C771","019cf7c5-9374-7717-a3aa-5d51c7972323","019cf7bd-52b9-7f96-9138-a5960b400b31","","745","
                <div class=""stimulus-container"">
                    <img src=""images/schematic_sequence/flight_scheme/flight_scheme_9.png"" class=""exp-image"">
                    <div class=""question-area"">
                        <p style=""font-size: 20px; font-weight: bold; margin: 0;"">Is there a person in this image?</p>
                    </div>
                </div>","0","main_experiment_trial","9","flight_scheme","schematic_sequence","","","","",""
"","","","","","html-keyboard-response","35","118236","0.0-35.0","7BFB3148D55A4F9D9FF2B7778641C771","019cf7c5-9374-7717-a3aa-5d51c7972323","019cf7bd-52b9-7f96-9138-a5960b400b31","","null","
                <div class=""stimulus-container"">
                    <img src=""images/schematic_sequence/flight_scheme/flight_scheme_ten.png"" class=""exp-image"">
                    <div class=""question-area""></div> 
                </div>","null","","","","","","","","",""
"","","","","","html-button-response","36","118888","0.0-36.0","7BFB3148D55A4F9D9FF2B7778641C771","019cf7c5-9374-7717-a3aa-5d51c7972323","019cf7bd-52b9-7f96-9138-a5960b400b31","","639","
                <div class=""stimulus-container"">
                    <img src=""images/schematic_sequence/flight_scheme/flight_scheme_ten.png"" class=""exp-image"">
                    <div class=""question-area"">
                        <p style=""font-size: 20px; font-weight: bold; margin: 0;"">Is there a person in this image?</p>
                    </div>
                </div>","0","main_experiment_trial","ten","flight_scheme","schematic_sequence","","","","",""
"","","","","","html-keyboard-response","37","119894","0.0-37.0","7BFB3148D55A4F9D9FF2B7778641C771","019cf7c5-9374-7717-a3aa-5d51c7972323","019cf7bd-52b9-7f96-9138-a5960b400b31","","null","<div style=""background-color: white; width: 100vw; height: 100vh;""></div>","null","","","","","","","","",""
"","","","","","html-keyboard-response","38","124905","0.0-38.0","7BFB3148D55A4F9D9FF2B7778641C771","019cf7c5-9374-7717-a3aa-5d51c7972323","019cf7bd-52b9-7f96-9138-a5960b400b31","","null","
                <div class=""stimulus-container"">
                    <img src=""images/semantic_sequence/creative_activities_semantic/creative_activities_semantic_1.png"" class=""exp-image"">
                    <div class=""question-area""></div> 
                </div>","null","","","","","","","","",""
"","","","","","html-button-response","39","126627","0.0-39.0","7BFB3148D55A4F9D9FF2B7778641C771","019cf7c5-9374-7717-a3aa-5d51c7972323","019cf7bd-52b9-7f96-9138-a5960b400b31","","1717","
                <div class=""stimulus-container"">
                    <img src=""images/semantic_sequence/creative_activities_semantic/creative_activities_semantic_1.png"" class=""exp-image"">
                    <div class=""question-area"">
                        <p style=""font-size: 20px; font-weight: bold; margin: 0;"">Is there a person in this image?</p>
                    </div>
                </div>","0","main_experiment_trial","1","creative_activities_semantic","semantic_sequence","","","","",""
"","","","","","html-keyboard-response","40","131634","0.0-40.0","7BFB3148D55A4F9D9FF2B7778641C771","019cf7c5-9374-7717-a3aa-5d51c7972323","019cf7bd-52b9-7f96-9138-a5960b400b31","","null","
                <div class=""stimulus-container"">
                    <img src=""images/semantic_sequence/creative_activities_semantic/creative_activities_semantic_2.png"" class=""exp-image"">
                    <div class=""question-area""></div> 
                </div>","null","","","","","","","","",""
"","","","","","html-button-response","41","132124","0.0-41.0","7BFB3148D55A4F9D9FF2B7778641C771","019cf7c5-9374-7717-a3aa-5d51c7972323","019cf7bd-52b9-7f96-9138-a5960b400b31","","479","
                <div class=""stimulus-container"">
                    <img src=""images/semantic_sequence/creative_activities_semantic/creative_activities_semantic_2.png"" class=""exp-image"">
                    <div class=""question-area"">
                        <p style=""font-size: 20px; font-weight: bold; margin: 0;"">Is there a person in this image?</p>
                    </div>
                </div>","0","main_experiment_trial","2","creative_activities_semantic","semantic_sequence","","","","",""
"","","","","","html-keyboard-response","42","137129","0.0-42.0","7BFB3148D55A4F9D9FF2B7778641C771","019cf7c5-9374-7717-a3aa-5d51c7972323","019cf7bd-52b9-7f96-9138-a5960b400b31","","null","
                <div class=""stimulus-container"">
                    <img src=""images/semantic_sequence/creative_activities_semantic/creative_activities_semantic_3.png"" class=""exp-image"">
                    <div class=""question-area""></div> 
                </div>","null","","","","","","","","",""
"","","","","","html-button-response","43","137634","0.0-43.0","7BFB3148D55A4F9D9FF2B7778641C771","019cf7c5-9374-7717-a3aa-5d51c7972323","019cf7bd-52b9-7f96-9138-a5960b400b31","","492","
                <div class=""stimulus-container"">
                    <img src=""images/semantic_sequence/creative_activities_semantic/creative_activities_semantic_3.png"" class=""exp-image"">
                    <div class=""question-area"">
                        <p style=""font-size: 20px; font-weight: bold; margin: 0;"">Is there a person in this image?</p>
                    </div>
                </div>","0","main_experiment_trial","3","creative_activities_semantic","semantic_sequence","","","","",""
"","","","","","html-keyboard-response","44","142641","0.0-44.0","7BFB3148D55A4F9D9FF2B7778641C771","019cf7c5-9374-7717-a3aa-5d51c7972323","019cf7bd-52b9-7f96-9138-a5960b400b31","","null","
                <div class=""stimulus-container"">
                    <img src=""images/semantic_sequence/creative_activities_semantic/creative_activities_semantic_4.png"" class=""exp-image"">
                    <div class=""question-area""></div> 
                </div>","null","","","","","","","","",""
"","","","","","html-button-response","45","143178","0.0-45.0","7BFB3148D55A4F9D9FF2B7778641C771","019cf7c5-9374-7717-a3aa-5d51c7972323","019cf7bd-52b9-7f96-9138-a5960b400b31","","525","
                <div class=""stimulus-container"">
                    <img src=""images/semantic_sequence/creative_activities_semantic/creative_activities_semantic_4.png"" class=""exp-image"">
                    <div class=""question-area"">
                        <p style=""font-size: 20px; font-weight: bold; margin: 0;"">Is there a person in this image?</p>
                    </div>
                </div>","0","main_experiment_trial","4","creative_activities_semantic","semantic_sequence","","","","",""
"","","","","","html-keyboard-response","46","148184","0.0-46.0","7BFB3148D55A4F9D9FF2B7778641C771","019cf7c5-9374-7717-a3aa-5d51c7972323","019cf7bd-52b9-7f96-9138-a5960b400b31","","null","
                <div class=""stimulus-container"">
                    <img src=""images/semantic_sequence/creative_activities_semantic/creative_activities_semantic_5.png"" class=""exp-image"">
                    <div class=""question-area""></div> 
                </div>","null","","","","","","","","",""
"","","","","","html-button-response","47","148662","0.0-47.0","7BFB3148D55A4F9D9FF2B7778641C771","019cf7c5-9374-7717-a3aa-5d51c7972323","019cf7bd-52b9-7f96-9138-a5960b400b31","","468","
                <div class=""stimulus-container"">
                    <img src=""images/semantic_sequence/creative_activities_semantic/creative_activities_semantic_5.png"" class=""exp-image"">
                    <div class=""question-area"">
                        <p style=""font-size: 20px; font-weight: bold; margin: 0;"">Is there a person in this image?</p>
                    </div>
                </div>","0","main_experiment_trial","5","creative_activities_semantic","semantic_sequence","","","","",""
"","","","","","html-keyboard-response","48","153672","0.0-48.0","7BFB3148D55A4F9D9FF2B7778641C771","019cf7c5-9374-7717-a3aa-5d51c7972323","019cf7bd-52b9-7f96-9138-a5960b400b31","","null","
                <div class=""stimulus-container"">
                    <img src=""images/semantic_sequence/creative_activities_semantic/creative_activities_semantic_6.png"" class=""exp-image"">
                    <div class=""question-area""></div> 
                </div>","null","","","","","","","","",""
"","","","","","html-button-response","49","154209","0.0-49.0","7BFB3148D55A4F9D9FF2B7778641C771","019cf7c5-9374-7717-a3aa-5d51c7972323","019cf7bd-52b9-7f96-9138-a5960b400b31","","524","
                <div class=""stimulus-container"">
                    <img src=""images/semantic_sequence/creative_activities_semantic/creative_activities_semantic_6.png"" class=""exp-image"">
                    <div class=""question-area"">
                        <p style=""font-size: 20px; font-weight: bold; margin: 0;"">Is there a person in this image?</p>
                    </div>
                </div>","0","main_experiment_trial","6","creative_activities_semantic","semantic_sequence","","","","",""
"","","","","","html-keyboard-response","50","159217","0.0-50.0","7BFB3148D55A4F9D9FF2B7778641C771","019cf7c5-9374-7717-a3aa-5d51c7972323","019cf7bd-52b9-7f96-9138-a5960b400b31","","null","
                <div class=""stimulus-container"">
                    <img src=""images/semantic_sequence/creative_activities_semantic/creative_activities_semantic_7.png"" class=""exp-image"">
                    <div class=""question-area""></div> 
                </div>","null","","","","","","","","",""
"","","","","","html-button-response","51","159594","0.0-51.0","7BFB3148D55A4F9D9FF2B7778641C771","019cf7c5-9374-7717-a3aa-5d51c7972323","019cf7bd-52b9-7f96-9138-a5960b400b31","","368","
                <div class=""stimulus-container"">
                    <img src=""images/semantic_sequence/creative_activities_semantic/creative_activities_semantic_7.png"" class=""exp-image"">
                    <div class=""question-area"">
                        <p style=""font-size: 20px; font-weight: bold; margin: 0;"">Is there a person in this image?</p>
                    </div>
                </div>","0","main_experiment_trial","7","creative_activities_semantic","semantic_sequence","","","","",""
"","","","","","html-keyboard-response","52","164600","0.0-52.0","7BFB3148D55A4F9D9FF2B7778641C771","019cf7c5-9374-7717-a3aa-5d51c7972323","019cf7bd-52b9-7f96-9138-a5960b400b31","","null","
                <div class=""stimulus-container"">
                    <img src=""images/semantic_sequence/creative_activities_semantic/creative_activities_semantic_8.png"" class=""exp-image"">
                    <div class=""question-area""></div> 
                </div>","null","","","","","","","","",""
"","","","","","html-button-response","53","164931","0.0-53.0","7BFB3148D55A4F9D9FF2B7778641C771","019cf7c5-9374-7717-a3aa-5d51c7972323","019cf7bd-52b9-7f96-9138-a5960b400b31","","320","
                <div class=""stimulus-container"">
                    <img src=""images/semantic_sequence/creative_activities_semantic/creative_activities_semantic_8.png"" class=""exp-image"">
                    <div class=""question-area"">
                        <p style=""font-size: 20px; font-weight: bold; margin: 0;"">Is there a person in this image?</p>
                    </div>
                </div>","0","main_experiment_trial","8","creative_activities_semantic","semantic_sequence","","","","",""
"","","","","","html-keyboard-response","54","169939","0.0-54.0","7BFB3148D55A4F9D9FF2B7778641C771","019cf7c5-9374-7717-a3aa-5d51c7972323","019cf7bd-52b9-7f96-9138-a5960b400b31","","null","
                <div class=""stimulus-container"">
                    <img src=""images/semantic_sequence/creative_activities_semantic/creative_activities_semantic_9.png"" class=""exp-image"">
                    <div class=""question-area""></div> 
                </div>","null","","","","","","","","",""
"","","","","","html-button-response","55","170302","0.0-55.0","7BFB3148D55A4F9D9FF2B7778641C771","019cf7c5-9374-7717-a3aa-5d51c7972323","019cf7bd-52b9-7f96-9138-a5960b400b31","","352","
                <div class=""stimulus-container"">
                    <img src=""images/semantic_sequence/creative_activities_semantic/creative_activities_semantic_9.png"" class=""exp-image"">
                    <div class=""question-area"">
                        <p style=""font-size: 20px; font-weight: bold; margin: 0;"">Is there a person in this image?</p>
                    </div>
                </div>","0","main_experiment_trial","9","creative_activities_semantic","semantic_sequence","","","","",""
"","","","","","html-keyboard-response","56","175312","0.0-56.0","7BFB3148D55A4F9D9FF2B7778641C771","019cf7c5-9374-7717-a3aa-5d51c7972323","019cf7bd-52b9-7f96-9138-a5960b400b31","","null","
                <div class=""stimulus-container"">
                    <img src=""images/semantic_sequence/creative_activities_semantic/creative_activities_semantic_ten.png"" class=""exp-image"">
                    <div class=""question-area""></div> 
                </div>","null","","","","","","","","",""
"","","","","","html-button-response","57","175640","0.0-57.0","7BFB3148D55A4F9D9FF2B7778641C771","019cf7c5-9374-7717-a3aa-5d51c7972323","019cf7bd-52b9-7f96-9138-a5960b400b31","","319","
                <div class=""stimulus-container"">
                    <img src=""images/semantic_sequence/creative_activities_semantic/creative_activities_semantic_ten.png"" class=""exp-image"">
                    <div class=""question-area"">
                        <p style=""font-size: 20px; font-weight: bold; margin: 0;"">Is there a person in this image?</p>
                    </div>
                </div>","0","main_experiment_trial","ten","creative_activities_semantic","semantic_sequence","","","","",""
"","","","","","html-keyboard-response","58","176644","0.0-58.0","7BFB3148D55A4F9D9FF2B7778641C771","019cf7c5-9374-7717-a3aa-5d51c7972323","019cf7bd-52b9-7f96-9138-a5960b400b31","","null","<div style=""background-color: white; width: 100vw; height: 100vh;""></div>","null","","","","","","","","",""
"","","","","","html-keyboard-response","59","181654","0.0-59.0","7BFB3148D55A4F9D9FF2B7778641C771","019cf7c5-9374-7717-a3aa-5d51c7972323","019cf7bd-52b9-7f96-9138-a5960b400b31","","null","
                <div class=""stimulus-container"">
                    <img src=""images/schematic_sequence/interview_scheme/interview_scheme_1.png"" class=""exp-image"">
                    <div class=""question-area""></div> 
                </div>","null","","","","","","","","",""
"","","","","","html-button-response","60","182049","0.0-60.0","7BFB3148D55A4F9D9FF2B7778641C771","019cf7c5-9374-7717-a3aa-5d51c7972323","019cf7bd-52b9-7f96-9138-a5960b400b31","","387","
                <div class=""stimulus-container"">
                    <img src=""images/schematic_sequence/interview_scheme/interview_scheme_1.png"" class=""exp-image"">
                    <div class=""question-area"">
                        <p style=""font-size: 20px; font-weight: bold; margin: 0;"">Is there a person in this image?</p>
                    </div>
                </div>","1","main_experiment_trial","1","interview_scheme","schematic_sequence","","","","",""
"","","","","","html-keyboard-response","61","187057","0.0-61.0","7BFB3148D55A4F9D9FF2B7778641C771","019cf7c5-9374-7717-a3aa-5d51c7972323","019cf7bd-52b9-7f96-9138-a5960b400b31","","null","
                <div class=""stimulus-container"">
                    <img src=""images/schematic_sequence/interview_scheme/interview_scheme_2.png"" class=""exp-image"">
                    <div class=""question-area""></div> 
                </div>","null","","","","","","","","",""
"","","","","","html-button-response","62","187523","0.0-62.0","7BFB3148D55A4F9D9FF2B7778641C771","019cf7c5-9374-7717-a3aa-5d51c7972323","019cf7bd-52b9-7f96-9138-a5960b400b31","","458","
                <div class=""stimulus-container"">
                    <img src=""images/schematic_sequence/interview_scheme/interview_scheme_2.png"" class=""exp-image"">
                    <div class=""question-area"">
                        <p style=""font-size: 20px; font-weight: bold; margin: 0;"">Is there a person in this image?</p>
                    </div>
                </div>","0","main_experiment_trial","2","interview_scheme","schematic_sequence","","","","",""
"","","","","","html-keyboard-response","63","192534","0.0-63.0","7BFB3148D55A4F9D9FF2B7778641C771","019cf7c5-9374-7717-a3aa-5d51c7972323","019cf7bd-52b9-7f96-9138-a5960b400b31","","null","
                <div class=""stimulus-container"">
                    <img src=""images/schematic_sequence/interview_scheme/interview_scheme_3.png"" class=""exp-image"">
                    <div class=""question-area""></div> 
                </div>","null","","","","","","","","",""
"","","","","","html-button-response","64","192910","0.0-64.0","7BFB3148D55A4F9D9FF2B7778641C771","019cf7c5-9374-7717-a3aa-5d51c7972323","019cf7bd-52b9-7f96-9138-a5960b400b31","","363","
                <div class=""stimulus-container"">
                    <img src=""images/schematic_sequence/interview_scheme/interview_scheme_3.png"" class=""exp-image"">
                    <div class=""question-area"">
                        <p style=""font-size: 20px; font-weight: bold; margin: 0;"">Is there a person in this image?</p>
                    </div>
                </div>","1","main_experiment_trial","3","interview_scheme","schematic_sequence","","","","",""
"","","","","","html-keyboard-response","65","197917","0.0-65.0","7BFB3148D55A4F9D9FF2B7778641C771","019cf7c5-9374-7717-a3aa-5d51c7972323","019cf7bd-52b9-7f96-9138-a5960b400b31","","null","
                <div class=""stimulus-container"">
                    <img src=""images/schematic_sequence/interview_scheme/interview_scheme_4.png"" class=""exp-image"">
                    <div class=""question-area""></div> 
                </div>","null","","","","","","","","",""
"","","","","","html-button-response","66","198988","0.0-66.0","7BFB3148D55A4F9D9FF2B7778641C771","019cf7c5-9374-7717-a3aa-5d51c7972323","019cf7bd-52b9-7f96-9138-a5960b400b31","","1058","
                <div class=""stimulus-container"">
                    <img src=""images/schematic_sequence/interview_scheme/interview_scheme_4.png"" class=""exp-image"">
                    <div class=""question-area"">
                        <p style=""font-size: 20px; font-weight: bold; margin: 0;"">Is there a person in this image?</p>
                    </div>
                </div>","1","main_experiment_trial","4","interview_scheme","schematic_sequence","","","","",""
"","","","","","html-keyboard-response","67","203995","0.0-67.0","7BFB3148D55A4F9D9FF2B7778641C771","019cf7c5-9374-7717-a3aa-5d51c7972323","019cf7bd-52b9-7f96-9138-a5960b400b31","","null","
                <div class=""stimulus-container"">
                    <img src=""images/schematic_sequence/interview_scheme/interview_scheme_5.png"" class=""exp-image"">
                    <div class=""question-area""></div> 
                </div>","null","","","","","","","","",""
"","","","","","html-button-response","68","207005","0.0-68.0","7BFB3148D55A4F9D9FF2B7778641C771","019cf7c5-9374-7717-a3aa-5d51c7972323","019cf7bd-52b9-7f96-9138-a5960b400b31","","null","
                <div class=""stimulus-container"">
                    <img src=""images/schematic_sequence/interview_scheme/interview_scheme_5.png"" class=""exp-image"">
                    <div class=""question-area"">
                        <p style=""font-size: 20px; font-weight: bold; margin: 0;"">Is there a person in this image?</p>
                    </div>
                </div>","null","main_experiment_trial","5","interview_scheme","schematic_sequence","","","","",""
"","","","","","html-keyboard-response","69","212014","0.0-69.0","7BFB3148D55A4F9D9FF2B7778641C771","019cf7c5-9374-7717-a3aa-5d51c7972323","019cf7bd-52b9-7f96-9138-a5960b400b31","","null","
                <div class=""stimulus-container"">
                    <img src=""images/schematic_sequence/interview_scheme/interview_scheme_6.png"" class=""exp-image"">
                    <div class=""question-area""></div> 
                </div>","null","","","","","","","","",""
"","","","","","html-button-response","70","212462","0.0-70.0","7BFB3148D55A4F9D9FF2B7778641C771","019cf7c5-9374-7717-a3aa-5d51c7972323","019cf7bd-52b9-7f96-9138-a5960b400b31","","443","
                <div class=""stimulus-container"">
                    <img src=""images/schematic_sequence/interview_scheme/interview_scheme_6.png"" class=""exp-image"">
                    <div class=""question-area"">
                        <p style=""font-size: 20px; font-weight: bold; margin: 0;"">Is there a person in this image?</p>
                    </div>
                </div>","0","main_experiment_trial","6","interview_scheme","schematic_sequence","","","","",""
"","","","","","html-keyboard-response","71","217471","0.0-71.0","7BFB3148D55A4F9D9FF2B7778641C771","019cf7c5-9374-7717-a3aa-5d51c7972323","019cf7bd-52b9-7f96-9138-a5960b400b31","","null","
                <div class=""stimulus-container"">
                    <img src=""images/schematic_sequence/interview_scheme/interview_scheme_7.png"" class=""exp-image"">
                    <div class=""question-area""></div> 
                </div>","null","","","","","","","","",""
"","","","","","html-button-response","72","218000","0.0-72.0","7BFB3148D55A4F9D9FF2B7778641C771","019cf7c5-9374-7717-a3aa-5d51c7972323","019cf7bd-52b9-7f96-9138-a5960b400b31","","517","
                <div class=""stimulus-container"">
                    <img src=""images/schematic_sequence/interview_scheme/interview_scheme_7.png"" class=""exp-image"">
                    <div class=""question-area"">
                        <p style=""font-size: 20px; font-weight: bold; margin: 0;"">Is there a person in this image?</p>
                    </div>
                </div>","0","main_experiment_trial","7","interview_scheme","schematic_sequence","","","","",""
"","","","","","html-keyboard-response","73","223010","0.0-73.0","7BFB3148D55A4F9D9FF2B7778641C771","019cf7c5-9374-7717-a3aa-5d51c7972323","019cf7bd-52b9-7f96-9138-a5960b400b31","","null","
                <div class=""stimulus-container"">
                    <img src=""images/schematic_sequence/interview_scheme/interview_scheme_8.png"" class=""exp-image"">
                    <div class=""question-area""></div> 
                </div>","null","","","","","","","","",""
"","","","","","html-button-response","74","223793","0.0-74.0","7BFB3148D55A4F9D9FF2B7778641C771","019cf7c5-9374-7717-a3aa-5d51c7972323","019cf7bd-52b9-7f96-9138-a5960b400b31","","770","
                <div class=""stimulus-container"">
                    <img src=""images/schematic_sequence/interview_scheme/interview_scheme_8.png"" class=""exp-image"">
                    <div class=""question-area"">
                        <p style=""font-size: 20px; font-weight: bold; margin: 0;"">Is there a person in this image?</p>
                    </div>
                </div>","0","main_experiment_trial","8","interview_scheme","schematic_sequence","","","","",""
"","","","","","html-keyboard-response","75","228802","0.0-75.0","7BFB3148D55A4F9D9FF2B7778641C771","019cf7c5-9374-7717-a3aa-5d51c7972323","019cf7bd-52b9-7f96-9138-a5960b400b31","","null","
                <div class=""stimulus-container"">
                    <img src=""images/schematic_sequence/interview_scheme/interview_scheme_9.png"" class=""exp-image"">
                    <div class=""question-area""></div> 
                </div>","null","","","","","","","","",""
"","","","","","html-button-response","76","229363","0.0-76.0","7BFB3148D55A4F9D9FF2B7778641C771","019cf7c5-9374-7717-a3aa-5d51c7972323","019cf7bd-52b9-7f96-9138-a5960b400b31","","552","
                <div class=""stimulus-container"">
                    <img src=""images/schematic_sequence/interview_scheme/interview_scheme_9.png"" class=""exp-image"">
                    <div class=""question-area"">
                        <p style=""font-size: 20px; font-weight: bold; margin: 0;"">Is there a person in this image?</p>
                    </div>
                </div>","0","main_experiment_trial","9","interview_scheme","schematic_sequence","","","","",""
"","","","","","html-keyboard-response","77","234372","0.0-77.0","7BFB3148D55A4F9D9FF2B7778641C771","019cf7c5-9374-7717-a3aa-5d51c7972323","019cf7bd-52b9-7f96-9138-a5960b400b31","","null","
                <div class=""stimulus-container"">
                    <img src=""images/schematic_sequence/interview_scheme/interview_scheme_ten.png"" class=""exp-image"">
                    <div class=""question-area""></div> 
                </div>","null","","","","","","","","",""
"","","","","","html-button-response","78","235015","0.0-78.0","7BFB3148D55A4F9D9FF2B7778641C771","019cf7c5-9374-7717-a3aa-5d51c7972323","019cf7bd-52b9-7f96-9138-a5960b400b31","","635","
                <div class=""stimulus-container"">
                    <img src=""images/schematic_sequence/interview_scheme/interview_scheme_ten.png"" class=""exp-image"">
                    <div class=""question-area"">
                        <p style=""font-size: 20px; font-weight: bold; margin: 0;"">Is there a person in this image?</p>
                    </div>
                </div>","0","main_experiment_trial","ten","interview_scheme","schematic_sequence","","","","",""
"","","","","","html-keyboard-response","79","236020","0.0-79.0","7BFB3148D55A4F9D9FF2B7778641C771","019cf7c5-9374-7717-a3aa-5d51c7972323","019cf7bd-52b9-7f96-9138-a5960b400b31","","null","<div style=""background-color: white; width: 100vw; height: 100vh;""></div>","null","","","","","","","","",""
"","","","","","html-keyboard-response","80","241033","0.0-80.0","7BFB3148D55A4F9D9FF2B7778641C771","019cf7c5-9374-7717-a3aa-5d51c7972323","019cf7bd-52b9-7f96-9138-a5960b400b31","","null","
                <div class=""stimulus-container"">
                    <img src=""images/semantic_sequence/kitchen_operations_semantic/kitchen_operations_semantic_1.png"" class=""exp-image"">
                    <div class=""question-area""></div> 
                </div>","null","","","","","","","","",""
"","","","","","html-button-response","81","241413","0.0-81.0","7BFB3148D55A4F9D9FF2B7778641C771","019cf7c5-9374-7717-a3aa-5d51c7972323","019cf7bd-52b9-7f96-9138-a5960b400b31","","375","
                <div class=""stimulus-container"">
                    <img src=""images/semantic_sequence/kitchen_operations_semantic/kitchen_operations_semantic_1.png"" class=""exp-image"">
                    <div class=""question-area"">
                        <p style=""font-size: 20px; font-weight: bold; margin: 0;"">Is there a person in this image?</p>
                    </div>
                </div>","0","main_experiment_trial","1","kitchen_operations_semantic","semantic_sequence","","","","",""
"","","","","","html-keyboard-response","82","246421","0.0-82.0","7BFB3148D55A4F9D9FF2B7778641C771","019cf7c5-9374-7717-a3aa-5d51c7972323","019cf7bd-52b9-7f96-9138-a5960b400b31","","null","
                <div class=""stimulus-container"">
                    <img src=""images/semantic_sequence/kitchen_operations_semantic/kitchen_operations_semantic_2.png"" class=""exp-image"">
                    <div class=""question-area""></div> 
                </div>","null","","","","","","","","",""
"","","","","","html-button-response","83","246710","0.0-83.0","7BFB3148D55A4F9D9FF2B7778641C771","019cf7c5-9374-7717-a3aa-5d51c7972323","019cf7bd-52b9-7f96-9138-a5960b400b31","","280","
                <div class=""stimulus-container"">
                    <img src=""images/semantic_sequence/kitchen_operations_semantic/kitchen_operations_semantic_2.png"" class=""exp-image"">
                    <div class=""question-area"">
                        <p style=""font-size: 20px; font-weight: bold; margin: 0;"">Is there a person in this image?</p>
                    </div>
                </div>","0","main_experiment_trial","2","kitchen_operations_semantic","semantic_sequence","","","","",""
"","","","","","html-keyboard-response","84","251716","0.0-84.0","7BFB3148D55A4F9D9FF2B7778641C771","019cf7c5-9374-7717-a3aa-5d51c7972323","019cf7bd-52b9-7f96-9138-a5960b400b31","","null","
                <div class=""stimulus-container"">
                    <img src=""images/semantic_sequence/kitchen_operations_semantic/kitchen_operations_semantic_3.png"" class=""exp-image"">
                    <div class=""question-area""></div> 
                </div>","null","","","","","","","","",""
"","","","","","html-button-response","85","252040","0.0-85.0","7BFB3148D55A4F9D9FF2B7778641C771","019cf7c5-9374-7717-a3aa-5d51c7972323","019cf7bd-52b9-7f96-9138-a5960b400b31","","315","
                <div class=""stimulus-container"">
                    <img src=""images/semantic_sequence/kitchen_operations_semantic/kitchen_operations_semantic_3.png"" class=""exp-image"">
                    <div class=""question-area"">
                        <p style=""font-size: 20px; font-weight: bold; margin: 0;"">Is there a person in this image?</p>
                    </div>
                </div>","0","main_experiment_trial","3","kitchen_operations_semantic","semantic_sequence","","","","",""
"","","","","","html-keyboard-response","86","257047","0.0-86.0","7BFB3148D55A4F9D9FF2B7778641C771","019cf7c5-9374-7717-a3aa-5d51c7972323","019cf7bd-52b9-7f96-9138-a5960b400b31","","null","
                <div class=""stimulus-container"">
                    <img src=""images/semantic_sequence/kitchen_operations_semantic/kitchen_operations_semantic_4.png"" class=""exp-image"">
                    <div class=""question-area""></div> 
                </div>","null","","","","","","","","",""
"","","","","","html-button-response","87","257438","0.0-87.0","7BFB3148D55A4F9D9FF2B7778641C771","019cf7c5-9374-7717-a3aa-5d51c7972323","019cf7bd-52b9-7f96-9138-a5960b400b31","","384","
                <div class=""stimulus-container"">
                    <img src=""images/semantic_sequence/kitchen_operations_semantic/kitchen_operations_semantic_4.png"" class=""exp-image"">
                    <div class=""question-area"">
                        <p style=""font-size: 20px; font-weight: bold; margin: 0;"">Is there a person in this image?</p>
                    </div>
                </div>","0","main_experiment_trial","4","kitchen_operations_semantic","semantic_sequence","","","","",""
"","","","","","html-keyboard-response","88","262447","0.0-88.0","7BFB3148D55A4F9D9FF2B7778641C771","019cf7c5-9374-7717-a3aa-5d51c7972323","019cf7bd-52b9-7f96-9138-a5960b400b31","","null","
                <div class=""stimulus-container"">
                    <img src=""images/semantic_sequence/kitchen_operations_semantic/kitchen_operations_semantic_5.png"" class=""exp-image"">
                    <div class=""question-area""></div> 
                </div>","null","","","","","","","","",""
"","","","","","html-button-response","89","262916","0.0-89.0","7BFB3148D55A4F9D9FF2B7778641C771","019cf7c5-9374-7717-a3aa-5d51c7972323","019cf7bd-52b9-7f96-9138-a5960b400b31","","460","
                <div class=""stimulus-container"">
                    <img src=""images/semantic_sequence/kitchen_operations_semantic/kitchen_operations_semantic_5.png"" class=""exp-image"">
                    <div class=""question-area"">
                        <p style=""font-size: 20px; font-weight: bold; margin: 0;"">Is there a person in this image?</p>
                    </div>
                </div>","0","main_experiment_trial","5","kitchen_operations_semantic","semantic_sequence","","","","",""
"","","","","","html-keyboard-response","90","267925","0.0-90.0","7BFB3148D55A4F9D9FF2B7778641C771","019cf7c5-9374-7717-a3aa-5d51c7972323","019cf7bd-52b9-7f96-9138-a5960b400b31","","null","
                <div class=""stimulus-container"">
                    <img src=""images/semantic_sequence/kitchen_operations_semantic/kitchen_operations_semantic_6.png"" class=""exp-image"">
                    <div class=""question-area""></div> 
                </div>","null","","","","","","","","",""
"","","","","","html-button-response","91","268383","0.0-91.0","7BFB3148D55A4F9D9FF2B7778641C771","019cf7c5-9374-7717-a3aa-5d51c7972323","019cf7bd-52b9-7f96-9138-a5960b400b31","","444","
                <div class=""stimulus-container"">
                    <img src=""images/semantic_sequence/kitchen_operations_semantic/kitchen_operations_semantic_6.png"" class=""exp-image"">
                    <div class=""question-area"">
                        <p style=""font-size: 20px; font-weight: bold; margin: 0;"">Is there a person in this image?</p>
                    </div>
                </div>","0","main_experiment_trial","6","kitchen_operations_semantic","semantic_sequence","","","","",""
"","","","","","html-keyboard-response","92","273392","0.0-92.0","7BFB3148D55A4F9D9FF2B7778641C771","019cf7c5-9374-7717-a3aa-5d51c7972323","019cf7bd-52b9-7f96-9138-a5960b400b31","","null","
                <div class=""stimulus-container"">
                    <img src=""images/semantic_sequence/kitchen_operations_semantic/kitchen_operations_semantic_7.png"" class=""exp-image"">
                    <div class=""question-area""></div> 
                </div>","null","","","","","","","","",""
"","","","","","html-button-response","93","273943","0.0-93.0","7BFB3148D55A4F9D9FF2B7778641C771","019cf7c5-9374-7717-a3aa-5d51c7972323","019cf7bd-52b9-7f96-9138-a5960b400b31","","539","
                <div class=""stimulus-container"">
                    <img src=""images/semantic_sequence/kitchen_operations_semantic/kitchen_operations_semantic_7.png"" class=""exp-image"">
                    <div class=""question-area"">
                        <p style=""font-size: 20px; font-weight: bold; margin: 0;"">Is there a person in this image?</p>
                    </div>
                </div>","0","main_experiment_trial","7","kitchen_operations_semantic","semantic_sequence","","","","",""
"","","","","","html-keyboard-response","94","278949","0.0-94.0","7BFB3148D55A4F9D9FF2B7778641C771","019cf7c5-9374-7717-a3aa-5d51c7972323","019cf7bd-52b9-7f96-9138-a5960b400b31","","null","
                <div class=""stimulus-container"">
                    <img src=""images/semantic_sequence/kitchen_operations_semantic/kitchen_operations_semantic_8.png"" class=""exp-image"">
                    <div class=""question-area""></div> 
                </div>","null","","","","","","","","",""
"","","","","","html-button-response","95","279427","0.0-95.0","7BFB3148D55A4F9D9FF2B7778641C771","019cf7c5-9374-7717-a3aa-5d51c7972323","019cf7bd-52b9-7f96-9138-a5960b400b31","","465","
                <div class=""stimulus-container"">
                    <img src=""images/semantic_sequence/kitchen_operations_semantic/kitchen_operations_semantic_8.png"" class=""exp-image"">
                    <div class=""question-area"">
                        <p style=""font-size: 20px; font-weight: bold; margin: 0;"">Is there a person in this image?</p>
                    </div>
                </div>","0","main_experiment_trial","8","kitchen_operations_semantic","semantic_sequence","","","","",""
"","","","","","html-keyboard-response","96","284433","0.0-96.0","7BFB3148D55A4F9D9FF2B7778641C771","019cf7c5-9374-7717-a3aa-5d51c7972323","019cf7bd-52b9-7f96-9138-a5960b400b31","","null","
                <div class=""stimulus-container"">
                    <img src=""images/semantic_sequence/kitchen_operations_semantic/kitchen_operations_semantic_9.png"" class=""exp-image"">
                    <div class=""question-area""></div> 
                </div>","null","","","","","","","","",""
"","","","","","html-button-response","97","285038","0.0-97.0","7BFB3148D55A4F9D9FF2B7778641C771","019cf7c5-9374-7717-a3aa-5d51c7972323","019cf7bd-52b9-7f96-9138-a5960b400b31","","598","
                <div class=""stimulus-container"">
                    <img src=""images/semantic_sequence/kitchen_operations_semantic/kitchen_operations_semantic_9.png"" class=""exp-image"">
                    <div class=""question-area"">
                        <p style=""font-size: 20px; font-weight: bold; margin: 0;"">Is there a person in this image?</p>
                    </div>
                </div>","0","main_experiment_trial","9","kitchen_operations_semantic","semantic_sequence","","","","",""
"","","","","","html-keyboard-response","98","290047","0.0-98.0","7BFB3148D55A4F9D9FF2B7778641C771","019cf7c5-9374-7717-a3aa-5d51c7972323","019cf7bd-52b9-7f96-9138-a5960b400b31","","null","
                <div class=""stimulus-container"">
                    <img src=""images/semantic_sequence/kitchen_operations_semantic/kitchen_operations_semantic_ten.png"" class=""exp-image"">
                    <div class=""question-area""></div> 
                </div>","null","","","","","","","","",""
"","","","","","html-button-response","99","290711","0.0-99.0","7BFB3148D55A4F9D9FF2B7778641C771","019cf7c5-9374-7717-a3aa-5d51c7972323","019cf7bd-52b9-7f96-9138-a5960b400b31","","654","
                <div class=""stimulus-container"">
                    <img src=""images/semantic_sequence/kitchen_operations_semantic/kitchen_operations_semantic_ten.png"" class=""exp-image"">
                    <div class=""question-area"">
                        <p style=""font-size: 20px; font-weight: bold; margin: 0;"">Is there a person in this image?</p>
                    </div>
                </div>","0","main_experiment_trial","ten","kitchen_operations_semantic","semantic_sequence","","","","",""
"","","","","","html-keyboard-response","100","291717","0.0-100.0","7BFB3148D55A4F9D9FF2B7778641C771","019cf7c5-9374-7717-a3aa-5d51c7972323","019cf7bd-52b9-7f96-9138-a5960b400b31","","null","<div style=""background-color: white; width: 100vw; height: 100vh;""></div>","null","","","","","","","","",""
"","","","","","html-keyboard-response","101","296731","0.0-101.0","7BFB3148D55A4F9D9FF2B7778641C771","019cf7c5-9374-7717-a3aa-5d51c7972323","019cf7bd-52b9-7f96-9138-a5960b400b31","","null","
                <div class=""stimulus-container"">
                    <img src=""images/semantic_sequence/using_technology_semantic/using_technology_semantic_1.png"" class=""exp-image"">
                    <div class=""question-area""></div> 
                </div>","null","","","","","","","","",""
"","","","","","html-button-response","102","297130","0.0-102.0","7BFB3148D55A4F9D9FF2B7778641C771","019cf7c5-9374-7717-a3aa-5d51c7972323","019cf7bd-52b9-7f96-9138-a5960b400b31","","388","
                <div class=""stimulus-container"">
                    <img src=""images/semantic_sequence/using_technology_semantic/using_technology_semantic_1.png"" class=""exp-image"">
                    <div class=""question-area"">
                        <p style=""font-size: 20px; font-weight: bold; margin: 0;"">Is there a person in this image?</p>
                    </div>
                </div>","0","main_experiment_trial","1","using_technology_semantic","semantic_sequence","","","","",""
"","","","","","html-keyboard-response","103","302137","0.0-103.0","7BFB3148D55A4F9D9FF2B7778641C771","019cf7c5-9374-7717-a3aa-5d51c7972323","019cf7bd-52b9-7f96-9138-a5960b400b31","","null","
                <div class=""stimulus-container"">
                    <img src=""images/semantic_sequence/using_technology_semantic/using_technology_semantic_2.png"" class=""exp-image"">
                    <div class=""question-area""></div> 
                </div>","null","","","","","","","","",""
"","","","","","html-button-response","104","302612","0.0-104.0","7BFB3148D55A4F9D9FF2B7778641C771","019cf7c5-9374-7717-a3aa-5d51c7972323","019cf7bd-52b9-7f96-9138-a5960b400b31","","462","
                <div class=""stimulus-container"">
                    <img src=""images/semantic_sequence/using_technology_semantic/using_technology_semantic_2.png"" class=""exp-image"">
                    <div class=""question-area"">
                        <p style=""font-size: 20px; font-weight: bold; margin: 0;"">Is there a person in this image?</p>
                    </div>
                </div>","0","main_experiment_trial","2","using_technology_semantic","semantic_sequence","","","","",""
"","","","","","html-keyboard-response","105","307621","0.0-105.0","7BFB3148D55A4F9D9FF2B7778641C771","019cf7c5-9374-7717-a3aa-5d51c7972323","019cf7bd-52b9-7f96-9138-a5960b400b31","","null","
                <div class=""stimulus-container"">
                    <img src=""images/semantic_sequence/using_technology_semantic/using_technology_semantic_3.png"" class=""exp-image"">
                    <div class=""question-area""></div> 
                </div>","null","","","","","","","","",""
"","","","","","html-button-response","106","308076","0.0-106.0","7BFB3148D55A4F9D9FF2B7778641C771","019cf7c5-9374-7717-a3aa-5d51c7972323","019cf7bd-52b9-7f96-9138-a5960b400b31","","446","
                <div class=""stimulus-container"">
                    <img src=""images/semantic_sequence/using_technology_semantic/using_technology_semantic_3.png"" class=""exp-image"">
                    <div class=""question-area"">
                        <p style=""font-size: 20px; font-weight: bold; margin: 0;"">Is there a person in this image?</p>
                    </div>
                </div>","0","main_experiment_trial","3","using_technology_semantic","semantic_sequence","","","","",""
"","","","","","html-keyboard-response","107","313085","0.0-107.0","7BFB3148D55A4F9D9FF2B7778641C771","019cf7c5-9374-7717-a3aa-5d51c7972323","019cf7bd-52b9-7f96-9138-a5960b400b31","","null","
                <div class=""stimulus-container"">
                    <img src=""images/semantic_sequence/using_technology_semantic/using_technology_semantic_4.png"" class=""exp-image"">
                    <div class=""question-area""></div> 
                </div>","null","","","","","","","","",""
"","","","","","html-button-response","108","313669","0.0-108.0","7BFB3148D55A4F9D9FF2B7778641C771","019cf7c5-9374-7717-a3aa-5d51c7972323","019cf7bd-52b9-7f96-9138-a5960b400b31","","571","
                <div class=""stimulus-container"">
                    <img src=""images/semantic_sequence/using_technology_semantic/using_technology_semantic_4.png"" class=""exp-image"">
                    <div class=""question-area"">
                        <p style=""font-size: 20px; font-weight: bold; margin: 0;"">Is there a person in this image?</p>
                    </div>
                </div>","0","main_experiment_trial","4","using_technology_semantic","semantic_sequence","","","","",""
"","","","","","html-keyboard-response","109","318677","0.0-109.0","7BFB3148D55A4F9D9FF2B7778641C771","019cf7c5-9374-7717-a3aa-5d51c7972323","019cf7bd-52b9-7f96-9138-a5960b400b31","","null","
                <div class=""stimulus-container"">
                    <img src=""images/semantic_sequence/using_technology_semantic/using_technology_semantic_5.png"" class=""exp-image"">
                    <div class=""question-area""></div> 
                </div>","null","","","","","","","","",""
"","","","","","html-button-response","110","319210","0.0-110.0","7BFB3148D55A4F9D9FF2B7778641C771","019cf7c5-9374-7717-a3aa-5d51c7972323","019cf7bd-52b9-7f96-9138-a5960b400b31","","522","
                <div class=""stimulus-container"">
                    <img src=""images/semantic_sequence/using_technology_semantic/using_technology_semantic_5.png"" class=""exp-image"">
                    <div class=""question-area"">
                        <p style=""font-size: 20px; font-weight: bold; margin: 0;"">Is there a person in this image?</p>
                    </div>
                </div>","0","main_experiment_trial","5","using_technology_semantic","semantic_sequence","","","","",""
"","","","","","html-keyboard-response","111","324216","0.0-111.0","7BFB3148D55A4F9D9FF2B7778641C771","019cf7c5-9374-7717-a3aa-5d51c7972323","019cf7bd-52b9-7f96-9138-a5960b400b31","","null","
                <div class=""stimulus-container"">
                    <img src=""images/semantic_sequence/using_technology_semantic/using_technology_semantic_6.png"" class=""exp-image"">
                    <div class=""question-area""></div> 
                </div>","null","","","","","","","","",""
"","","","","","html-button-response","112","325168","0.0-112.0","7BFB3148D55A4F9D9FF2B7778641C771","019cf7c5-9374-7717-a3aa-5d51c7972323","019cf7bd-52b9-7f96-9138-a5960b400b31","","943","
                <div class=""stimulus-container"">
                    <img src=""images/semantic_sequence/using_technology_semantic/using_technology_semantic_6.png"" class=""exp-image"">
                    <div class=""question-area"">
                        <p style=""font-size: 20px; font-weight: bold; margin: 0;"">Is there a person in this image?</p>
                    </div>
                </div>","0","main_experiment_trial","6","using_technology_semantic","semantic_sequence","","","","",""
"","","","","","html-keyboard-response","113","330175","0.0-113.0","7BFB3148D55A4F9D9FF2B7778641C771","019cf7c5-9374-7717-a3aa-5d51c7972323","019cf7bd-52b9-7f96-9138-a5960b400b31","","null","
                <div class=""stimulus-container"">
                    <img src=""images/semantic_sequence/using_technology_semantic/using_technology_semantic_7.png"" class=""exp-image"">
                    <div class=""question-area""></div> 
                </div>","null","","","","","","","","",""
"","","","","","html-button-response","114","330784","0.0-114.0","7BFB3148D55A4F9D9FF2B7778641C771","019cf7c5-9374-7717-a3aa-5d51c7972323","019cf7bd-52b9-7f96-9138-a5960b400b31","","595","
                <div class=""stimulus-container"">
                    <img src=""images/semantic_sequence/using_technology_semantic/using_technology_semantic_7.png"" class=""exp-image"">
                    <div class=""question-area"">
                        <p style=""font-size: 20px; font-weight: bold; margin: 0;"">Is there a person in this image?</p>
                    </div>
                </div>","0","main_experiment_trial","7","using_technology_semantic","semantic_sequence","","","","",""
"","","","","","html-keyboard-response","115","335791","0.0-115.0","7BFB3148D55A4F9D9FF2B7778641C771","019cf7c5-9374-7717-a3aa-5d51c7972323","019cf7bd-52b9-7f96-9138-a5960b400b31","","null","
                <div class=""stimulus-container"">
                    <img src=""images/semantic_sequence/using_technology_semantic/using_technology_semantic_8.png"" class=""exp-image"">
                    <div class=""question-area""></div> 
                </div>","null","","","","","","","","",""
"","","","","","html-button-response","116","336621","0.0-116.0","7BFB3148D55A4F9D9FF2B7778641C771","019cf7c5-9374-7717-a3aa-5d51c7972323","019cf7bd-52b9-7f96-9138-a5960b400b31","","823","
                <div class=""stimulus-container"">
                    <img src=""images/semantic_sequence/using_technology_semantic/using_technology_semantic_8.png"" class=""exp-image"">
                    <div class=""question-area"">
                        <p style=""font-size: 20px; font-weight: bold; margin: 0;"">Is there a person in this image?</p>
                    </div>
                </div>","0","main_experiment_trial","8","using_technology_semantic","semantic_sequence","","","","",""
"","","","","","html-keyboard-response","117","341627","0.0-117.0","7BFB3148D55A4F9D9FF2B7778641C771","019cf7c5-9374-7717-a3aa-5d51c7972323","019cf7bd-52b9-7f96-9138-a5960b400b31","","null","
                <div class=""stimulus-container"">
                    <img src=""images/semantic_sequence/using_technology_semantic/using_technology_semantic_9.png"" class=""exp-image"">
                    <div class=""question-area""></div> 
                </div>","null","","","","","","","","",""
"","","","","","html-button-response","118","341999","0.0-118.0","7BFB3148D55A4F9D9FF2B7778641C771","019cf7c5-9374-7717-a3aa-5d51c7972323","019cf7bd-52b9-7f96-9138-a5960b400b31","","359","
                <div class=""stimulus-container"">
                    <img src=""images/semantic_sequence/using_technology_semantic/using_technology_semantic_9.png"" class=""exp-image"">
                    <div class=""question-area"">
                        <p style=""font-size: 20px; font-weight: bold; margin: 0;"">Is there a person in this image?</p>
                    </div>
                </div>","0","main_experiment_trial","9","using_technology_semantic","semantic_sequence","","","","",""
"","","","","","html-keyboard-response","119","347006","0.0-119.0","7BFB3148D55A4F9D9FF2B7778641C771","019cf7c5-9374-7717-a3aa-5d51c7972323","019cf7bd-52b9-7f96-9138-a5960b400b31","","null","
                <div class=""stimulus-container"">
                    <img src=""images/semantic_sequence/using_technology_semantic/using_technology_semantic_ten.png"" class=""exp-image"">
                    <div class=""question-area""></div> 
                </div>","null","","","","","","","","",""
"","","","","","html-button-response","120","347461","0.0-120.0","7BFB3148D55A4F9D9FF2B7778641C771","019cf7c5-9374-7717-a3aa-5d51c7972323","019cf7bd-52b9-7f96-9138-a5960b400b31","","448","
                <div class=""stimulus-container"">
                    <img src=""images/semantic_sequence/using_technology_semantic/using_technology_semantic_ten.png"" class=""exp-image"">
                    <div class=""question-area"">
                        <p style=""font-size: 20px; font-weight: bold; margin: 0;"">Is there a person in this image?</p>
                    </div>
                </div>","0","main_experiment_trial","ten","using_technology_semantic","semantic_sequence","","","","",""
"","","","","","html-keyboard-response","121","348466","0.0-121.0","7BFB3148D55A4F9D9FF2B7778641C771","019cf7c5-9374-7717-a3aa-5d51c7972323","019cf7bd-52b9-7f96-9138-a5960b400b31","","null","<div style=""background-color: white; width: 100vw; height: 100vh;""></div>","null","","","","","","","","",""
"","","","","","html-keyboard-response","122","353476","0.0-122.0","7BFB3148D55A4F9D9FF2B7778641C771","019cf7c5-9374-7717-a3aa-5d51c7972323","019cf7bd-52b9-7f96-9138-a5960b400b31","","null","
                <div class=""stimulus-container"">
                    <img src=""images/semantic_sequence/physical_activity_semantic/physical_activity_semantic_1.png"" class=""exp-image"">
                    <div class=""question-area""></div> 
                </div>","null","","","","","","","","",""
"","","","","","html-button-response","123","353956","0.0-123.0","7BFB3148D55A4F9D9FF2B7778641C771","019cf7c5-9374-7717-a3aa-5d51c7972323","019cf7bd-52b9-7f96-9138-a5960b400b31","","473","
                <div class=""stimulus-container"">
                    <img src=""images/semantic_sequence/physical_activity_semantic/physical_activity_semantic_1.png"" class=""exp-image"">
                    <div class=""question-area"">
                        <p style=""font-size: 20px; font-weight: bold; margin: 0;"">Is there a person in this image?</p>
                    </div>
                </div>","0","main_experiment_trial","1","physical_activity_semantic","semantic_sequence","","","","",""
"","","","","","html-keyboard-response","124","358965","0.0-124.0","7BFB3148D55A4F9D9FF2B7778641C771","019cf7c5-9374-7717-a3aa-5d51c7972323","019cf7bd-52b9-7f96-9138-a5960b400b31","","null","
                <div class=""stimulus-container"">
                    <img src=""images/semantic_sequence/physical_activity_semantic/physical_activity_semantic_2.png"" class=""exp-image"">
                    <div class=""question-area""></div> 
                </div>","null","","","","","","","","",""
"","","","","","html-button-response","125","359862","0.0-125.0","7BFB3148D55A4F9D9FF2B7778641C771","019cf7c5-9374-7717-a3aa-5d51c7972323","019cf7bd-52b9-7f96-9138-a5960b400b31","","885","
                <div class=""stimulus-container"">
                    <img src=""images/semantic_sequence/physical_activity_semantic/physical_activity_semantic_2.png"" class=""exp-image"">
                    <div class=""question-area"">
                        <p style=""font-size: 20px; font-weight: bold; margin: 0;"">Is there a person in this image?</p>
                    </div>
                </div>","0","main_experiment_trial","2","physical_activity_semantic","semantic_sequence","","","","",""
"","","","","","html-keyboard-response","126","364872","0.0-126.0","7BFB3148D55A4F9D9FF2B7778641C771","019cf7c5-9374-7717-a3aa-5d51c7972323","019cf7bd-52b9-7f96-9138-a5960b400b31","","null","
                <div class=""stimulus-container"">
                    <img src=""images/semantic_sequence/physical_activity_semantic/physical_activity_semantic_3.png"" class=""exp-image"">
                    <div class=""question-area""></div> 
                </div>","null","","","","","","","","",""
"","","","","","html-button-response","127","365373","0.0-127.0","7BFB3148D55A4F9D9FF2B7778641C771","019cf7c5-9374-7717-a3aa-5d51c7972323","019cf7bd-52b9-7f96-9138-a5960b400b31","","487","
                <div class=""stimulus-container"">
                    <img src=""images/semantic_sequence/physical_activity_semantic/physical_activity_semantic_3.png"" class=""exp-image"">
                    <div class=""question-area"">
                        <p style=""font-size: 20px; font-weight: bold; margin: 0;"">Is there a person in this image?</p>
                    </div>
                </div>","0","main_experiment_trial","3","physical_activity_semantic","semantic_sequence","","","","",""
"","","","","","html-keyboard-response","128","370380","0.0-128.0","7BFB3148D55A4F9D9FF2B7778641C771","019cf7c5-9374-7717-a3aa-5d51c7972323","019cf7bd-52b9-7f96-9138-a5960b400b31","","null","
                <div class=""stimulus-container"">
                    <img src=""images/semantic_sequence/physical_activity_semantic/physical_activity_semantic_4.png"" class=""exp-image"">
                    <div class=""question-area""></div> 
                </div>","null","","","","","","","","",""
"","","","","","html-button-response","129","370859","0.0-129.0","7BFB3148D55A4F9D9FF2B7778641C771","019cf7c5-9374-7717-a3aa-5d51c7972323","019cf7bd-52b9-7f96-9138-a5960b400b31","","467","
                <div class=""stimulus-container"">
                    <img src=""images/semantic_sequence/physical_activity_semantic/physical_activity_semantic_4.png"" class=""exp-image"">
                    <div class=""question-area"">
                        <p style=""font-size: 20px; font-weight: bold; margin: 0;"">Is there a person in this image?</p>
                    </div>
                </div>","0","main_experiment_trial","4","physical_activity_semantic","semantic_sequence","","","","",""
"","","","","","html-keyboard-response","130","375865","0.0-130.0","7BFB3148D55A4F9D9FF2B7778641C771","019cf7c5-9374-7717-a3aa-5d51c7972323","019cf7bd-52b9-7f96-9138-a5960b400b31","","null","
                <div class=""stimulus-container"">
                    <img src=""images/semantic_sequence/physical_activity_semantic/physical_activity_semantic_5.png"" class=""exp-image"">
                    <div class=""question-area""></div> 
                </div>","null","","","","","","","","",""
"","","","","","html-button-response","131","378877","0.0-131.0","7BFB3148D55A4F9D9FF2B7778641C771","019cf7c5-9374-7717-a3aa-5d51c7972323","019cf7bd-52b9-7f96-9138-a5960b400b31","","null","
                <div class=""stimulus-container"">
                    <img src=""images/semantic_sequence/physical_activity_semantic/physical_activity_semantic_5.png"" class=""exp-image"">
                    <div class=""question-area"">
                        <p style=""font-size: 20px; font-weight: bold; margin: 0;"">Is there a person in this image?</p>
                    </div>
                </div>","null","main_experiment_trial","5","physical_activity_semantic","semantic_sequence","","","","",""
"","","","","","html-keyboard-response","132","383885","0.0-132.0","7BFB3148D55A4F9D9FF2B7778641C771","019cf7c5-9374-7717-a3aa-5d51c7972323","019cf7bd-52b9-7f96-9138-a5960b400b31","","null","
                <div class=""stimulus-container"">
                    <img src=""images/semantic_sequence/physical_activity_semantic/physical_activity_semantic_6.png"" class=""exp-image"">
                    <div class=""question-area""></div> 
                </div>","null","","","","","","","","",""
"","","","","","html-button-response","133","384708","0.0-133.0","7BFB3148D55A4F9D9FF2B7778641C771","019cf7c5-9374-7717-a3aa-5d51c7972323","019cf7bd-52b9-7f96-9138-a5960b400b31","","809","
                <div class=""stimulus-container"">
                    <img src=""images/semantic_sequence/physical_activity_semantic/physical_activity_semantic_6.png"" class=""exp-image"">
                    <div class=""question-area"">
                        <p style=""font-size: 20px; font-weight: bold; margin: 0;"">Is there a person in this image?</p>
                    </div>
                </div>","0","main_experiment_trial","6","physical_activity_semantic","semantic_sequence","","","","",""
"","","","","","html-keyboard-response","134","389714","0.0-134.0","7BFB3148D55A4F9D9FF2B7778641C771","019cf7c5-9374-7717-a3aa-5d51c7972323","019cf7bd-52b9-7f96-9138-a5960b400b31","","null","
                <div class=""stimulus-container"">
                    <img src=""images/semantic_sequence/physical_activity_semantic/physical_activity_semantic_7.png"" class=""exp-image"">
                    <div class=""question-area""></div> 
                </div>","null","","","","","","","","",""
"","","","","","html-button-response","135","390498","0.0-135.0","7BFB3148D55A4F9D9FF2B7778641C771","019cf7c5-9374-7717-a3aa-5d51c7972323","019cf7bd-52b9-7f96-9138-a5960b400b31","","773","
                <div class=""stimulus-container"">
                    <img src=""images/semantic_sequence/physical_activity_semantic/physical_activity_semantic_7.png"" class=""exp-image"">
                    <div class=""question-area"">
                        <p style=""font-size: 20px; font-weight: bold; margin: 0;"">Is there a person in this image?</p>
                    </div>
                </div>","0","main_experiment_trial","7","physical_activity_semantic","semantic_sequence","","","","",""
"","","","","","html-keyboard-response","136","395509","0.0-136.0","7BFB3148D55A4F9D9FF2B7778641C771","019cf7c5-9374-7717-a3aa-5d51c7972323","019cf7bd-52b9-7f96-9138-a5960b400b31","","null","
                <div class=""stimulus-container"">
                    <img src=""images/semantic_sequence/physical_activity_semantic/physical_activity_semantic_8.png"" class=""exp-image"">
                    <div class=""question-area""></div> 
                </div>","null","","","","","","","","",""
"","","","","","html-button-response","137","395936","0.0-137.0","7BFB3148D55A4F9D9FF2B7778641C771","019cf7c5-9374-7717-a3aa-5d51c7972323","019cf7bd-52b9-7f96-9138-a5960b400b31","","416","
                <div class=""stimulus-container"">
                    <img src=""images/semantic_sequence/physical_activity_semantic/physical_activity_semantic_8.png"" class=""exp-image"">
                    <div class=""question-area"">
                        <p style=""font-size: 20px; font-weight: bold; margin: 0;"">Is there a person in this image?</p>
                    </div>
                </div>","0","main_experiment_trial","8","physical_activity_semantic","semantic_sequence","","","","",""
"","","","","","html-keyboard-response","138","400944","0.0-138.0","7BFB3148D55A4F9D9FF2B7778641C771","019cf7c5-9374-7717-a3aa-5d51c7972323","019cf7bd-52b9-7f96-9138-a5960b400b31","","null","
                <div class=""stimulus-container"">
                    <img src=""images/semantic_sequence/physical_activity_semantic/physical_activity_semantic_9.png"" class=""exp-image"">
                    <div class=""question-area""></div> 
                </div>","null","","","","","","","","",""
"","","","","","html-button-response","139","401832","0.0-139.0","7BFB3148D55A4F9D9FF2B7778641C771","019cf7c5-9374-7717-a3aa-5d51c7972323","019cf7bd-52b9-7f96-9138-a5960b400b31","","876","
                <div class=""stimulus-container"">
                    <img src=""images/semantic_sequence/physical_activity_semantic/physical_activity_semantic_9.png"" class=""exp-image"">
                    <div class=""question-area"">
                        <p style=""font-size: 20px; font-weight: bold; margin: 0;"">Is there a person in this image?</p>
                    </div>
                </div>","0","main_experiment_trial","9","physical_activity_semantic","semantic_sequence","","","","",""
"","","","","","html-keyboard-response","140","406840","0.0-140.0","7BFB3148D55A4F9D9FF2B7778641C771","019cf7c5-9374-7717-a3aa-5d51c7972323","019cf7bd-52b9-7f96-9138-a5960b400b31","","null","
                <div class=""stimulus-container"">
                    <img src=""images/semantic_sequence/physical_activity_semantic/physical_activity_semantic_ten.png"" class=""exp-image"">
                    <div class=""question-area""></div> 
                </div>","null","","","","","","","","",""
"","","","","","html-button-response","141","407263","0.0-141.0","7BFB3148D55A4F9D9FF2B7778641C771","019cf7c5-9374-7717-a3aa-5d51c7972323","019cf7bd-52b9-7f96-9138-a5960b400b31","","413","
                <div class=""stimulus-container"">
                    <img src=""images/semantic_sequence/physical_activity_semantic/physical_activity_semantic_ten.png"" class=""exp-image"">
                    <div class=""question-area"">
                        <p style=""font-size: 20px; font-weight: bold; margin: 0;"">Is there a person in this image?</p>
                    </div>
                </div>","0","main_experiment_trial","ten","physical_activity_semantic","semantic_sequence","","","","",""
"","","","","","html-keyboard-response","142","408268","0.0-142.0","7BFB3148D55A4F9D9FF2B7778641C771","019cf7c5-9374-7717-a3aa-5d51c7972323","019cf7bd-52b9-7f96-9138-a5960b400b31","","null","<div style=""background-color: white; width: 100vw; height: 100vh;""></div>","null","","","","","","","","",""
"","","","","","html-keyboard-response","143","413276","0.0-143.0","7BFB3148D55A4F9D9FF2B7778641C771","019cf7c5-9374-7717-a3aa-5d51c7972323","019cf7bd-52b9-7f96-9138-a5960b400b31","","null","
                <div class=""stimulus-container"">
                    <img src=""images/schematic_sequence/supermarket_scheme/supermarket_scheme_1.png"" class=""exp-image"">
                    <div class=""question-area""></div> 
                </div>","null","","","","","","","","",""
"","","","","","html-button-response","144","414003","0.0-144.0","7BFB3148D55A4F9D9FF2B7778641C771","019cf7c5-9374-7717-a3aa-5d51c7972323","019cf7bd-52b9-7f96-9138-a5960b400b31","","714","
                <div class=""stimulus-container"">
                    <img src=""images/schematic_sequence/supermarket_scheme/supermarket_scheme_1.png"" class=""exp-image"">
                    <div class=""question-area"">
                        <p style=""font-size: 20px; font-weight: bold; margin: 0;"">Is there a person in this image?</p>
                    </div>
                </div>","1","main_experiment_trial","1","supermarket_scheme","schematic_sequence","","","","",""
"","","","","","html-keyboard-response","145","419009","0.0-145.0","7BFB3148D55A4F9D9FF2B7778641C771","019cf7c5-9374-7717-a3aa-5d51c7972323","019cf7bd-52b9-7f96-9138-a5960b400b31","","null","
                <div class=""stimulus-container"">
                    <img src=""images/schematic_sequence/supermarket_scheme/supermarket_scheme_2.png"" class=""exp-image"">
                    <div class=""question-area""></div> 
                </div>","null","","","","","","","","",""
"","","","","","html-button-response","146","419470","0.0-146.0","7BFB3148D55A4F9D9FF2B7778641C771","019cf7c5-9374-7717-a3aa-5d51c7972323","019cf7bd-52b9-7f96-9138-a5960b400b31","","449","
                <div class=""stimulus-container"">
                    <img src=""images/schematic_sequence/supermarket_scheme/supermarket_scheme_2.png"" class=""exp-image"">
                    <div class=""question-area"">
                        <p style=""font-size: 20px; font-weight: bold; margin: 0;"">Is there a person in this image?</p>
                    </div>
                </div>","1","main_experiment_trial","2","supermarket_scheme","schematic_sequence","","","","",""
"","","","","","html-keyboard-response","147","424480","0.0-147.0","7BFB3148D55A4F9D9FF2B7778641C771","019cf7c5-9374-7717-a3aa-5d51c7972323","019cf7bd-52b9-7f96-9138-a5960b400b31","","null","
                <div class=""stimulus-container"">
                    <img src=""images/schematic_sequence/supermarket_scheme/supermarket_scheme_3.png"" class=""exp-image"">
                    <div class=""question-area""></div> 
                </div>","null","","","","","","","","",""
"","","","","","html-button-response","148","424808","0.0-148.0","7BFB3148D55A4F9D9FF2B7778641C771","019cf7c5-9374-7717-a3aa-5d51c7972323","019cf7bd-52b9-7f96-9138-a5960b400b31","","320","
                <div class=""stimulus-container"">
                    <img src=""images/schematic_sequence/supermarket_scheme/supermarket_scheme_3.png"" class=""exp-image"">
                    <div class=""question-area"">
                        <p style=""font-size: 20px; font-weight: bold; margin: 0;"">Is there a person in this image?</p>
                    </div>
                </div>","1","main_experiment_trial","3","supermarket_scheme","schematic_sequence","","","","",""
"","","","","","html-keyboard-response","149","429813","0.0-149.0","7BFB3148D55A4F9D9FF2B7778641C771","019cf7c5-9374-7717-a3aa-5d51c7972323","019cf7bd-52b9-7f96-9138-a5960b400b31","","null","
                <div class=""stimulus-container"">
                    <img src=""images/schematic_sequence/supermarket_scheme/supermarket_scheme_4.png"" class=""exp-image"">
                    <div class=""question-area""></div> 
                </div>","null","","","","","","","","",""
"","","","","","html-button-response","150","430144","0.0-150.0","7BFB3148D55A4F9D9FF2B7778641C771","019cf7c5-9374-7717-a3aa-5d51c7972323","019cf7bd-52b9-7f96-9138-a5960b400b31","","319","
                <div class=""stimulus-container"">
                    <img src=""images/schematic_sequence/supermarket_scheme/supermarket_scheme_4.png"" class=""exp-image"">
                    <div class=""question-area"">
                        <p style=""font-size: 20px; font-weight: bold; margin: 0;"">Is there a person in this image?</p>
                    </div>
                </div>","0","main_experiment_trial","4","supermarket_scheme","schematic_sequence","","","","",""
"","","","","","html-keyboard-response","151","435152","0.0-151.0","7BFB3148D55A4F9D9FF2B7778641C771","019cf7c5-9374-7717-a3aa-5d51c7972323","019cf7bd-52b9-7f96-9138-a5960b400b31","","null","
                <div class=""stimulus-container"">
                    <img src=""images/schematic_sequence/supermarket_scheme/supermarket_scheme_5.png"" class=""exp-image"">
                    <div class=""question-area""></div> 
                </div>","null","","","","","","","","",""
"","","","","","html-button-response","152","435577","0.0-152.0","7BFB3148D55A4F9D9FF2B7778641C771","019cf7c5-9374-7717-a3aa-5d51c7972323","019cf7bd-52b9-7f96-9138-a5960b400b31","","412","
                <div class=""stimulus-container"">
                    <img src=""images/schematic_sequence/supermarket_scheme/supermarket_scheme_5.png"" class=""exp-image"">
                    <div class=""question-area"">
                        <p style=""font-size: 20px; font-weight: bold; margin: 0;"">Is there a person in this image?</p>
                    </div>
                </div>","1","main_experiment_trial","5","supermarket_scheme","schematic_sequence","","","","",""
"","","","","","html-keyboard-response","153","440583","0.0-153.0","7BFB3148D55A4F9D9FF2B7778641C771","019cf7c5-9374-7717-a3aa-5d51c7972323","019cf7bd-52b9-7f96-9138-a5960b400b31","","null","
                <div class=""stimulus-container"">
                    <img src=""images/schematic_sequence/supermarket_scheme/supermarket_scheme_6.png"" class=""exp-image"">
                    <div class=""question-area""></div> 
                </div>","null","","","","","","","","",""
"","","","","","html-button-response","154","440952","0.0-154.0","7BFB3148D55A4F9D9FF2B7778641C771","019cf7c5-9374-7717-a3aa-5d51c7972323","019cf7bd-52b9-7f96-9138-a5960b400b31","","360","
                <div class=""stimulus-container"">
                    <img src=""images/schematic_sequence/supermarket_scheme/supermarket_scheme_6.png"" class=""exp-image"">
                    <div class=""question-area"">
                        <p style=""font-size: 20px; font-weight: bold; margin: 0;"">Is there a person in this image?</p>
                    </div>
                </div>","0","main_experiment_trial","6","supermarket_scheme","schematic_sequence","","","","",""
"","","","","","html-keyboard-response","155","445959","0.0-155.0","7BFB3148D55A4F9D9FF2B7778641C771","019cf7c5-9374-7717-a3aa-5d51c7972323","019cf7bd-52b9-7f96-9138-a5960b400b31","","null","
                <div class=""stimulus-container"">
                    <img src=""images/schematic_sequence/supermarket_scheme/supermarket_scheme_7.png"" class=""exp-image"">
                    <div class=""question-area""></div> 
                </div>","null","","","","","","","","",""
"","","","","","html-button-response","156","446290","0.0-156.0","7BFB3148D55A4F9D9FF2B7778641C771","019cf7c5-9374-7717-a3aa-5d51c7972323","019cf7bd-52b9-7f96-9138-a5960b400b31","","325","
                <div class=""stimulus-container"">
                    <img src=""images/schematic_sequence/supermarket_scheme/supermarket_scheme_7.png"" class=""exp-image"">
                    <div class=""question-area"">
                        <p style=""font-size: 20px; font-weight: bold; margin: 0;"">Is there a person in this image?</p>
                    </div>
                </div>","0","main_experiment_trial","7","supermarket_scheme","schematic_sequence","","","","",""
"","","","","","html-keyboard-response","157","451296","0.0-157.0","7BFB3148D55A4F9D9FF2B7778641C771","019cf7c5-9374-7717-a3aa-5d51c7972323","019cf7bd-52b9-7f96-9138-a5960b400b31","","null","
                <div class=""stimulus-container"">
                    <img src=""images/schematic_sequence/supermarket_scheme/supermarket_scheme_8.png"" class=""exp-image"">
                    <div class=""question-area""></div> 
                </div>","null","","","","","","","","",""
"","","","","","html-button-response","158","451678","0.0-158.0","7BFB3148D55A4F9D9FF2B7778641C771","019cf7c5-9374-7717-a3aa-5d51c7972323","019cf7bd-52b9-7f96-9138-a5960b400b31","","376","
                <div class=""stimulus-container"">
                    <img src=""images/schematic_sequence/supermarket_scheme/supermarket_scheme_8.png"" class=""exp-image"">
                    <div class=""question-area"">
                        <p style=""font-size: 20px; font-weight: bold; margin: 0;"">Is there a person in this image?</p>
                    </div>
                </div>","0","main_experiment_trial","8","supermarket_scheme","schematic_sequence","","","","",""
"","","","","","html-keyboard-response","159","456687","0.0-159.0","7BFB3148D55A4F9D9FF2B7778641C771","019cf7c5-9374-7717-a3aa-5d51c7972323","019cf7bd-52b9-7f96-9138-a5960b400b31","","null","
                <div class=""stimulus-container"">
                    <img src=""images/schematic_sequence/supermarket_scheme/supermarket_scheme_9.png"" class=""exp-image"">
                    <div class=""question-area""></div> 
                </div>","null","","","","","","","","",""
"","","","","","html-button-response","160","457106","0.0-160.0","7BFB3148D55A4F9D9FF2B7778641C771","019cf7c5-9374-7717-a3aa-5d51c7972323","019cf7bd-52b9-7f96-9138-a5960b400b31","","410","
                <div class=""stimulus-container"">
                    <img src=""images/schematic_sequence/supermarket_scheme/supermarket_scheme_9.png"" class=""exp-image"">
                    <div class=""question-area"">
                        <p style=""font-size: 20px; font-weight: bold; margin: 0;"">Is there a person in this image?</p>
                    </div>
                </div>","0","main_experiment_trial","9","supermarket_scheme","schematic_sequence","","","","",""
"","","","","","html-keyboard-response","161","462113","0.0-161.0","7BFB3148D55A4F9D9FF2B7778641C771","019cf7c5-9374-7717-a3aa-5d51c7972323","019cf7bd-52b9-7f96-9138-a5960b400b31","","null","
                <div class=""stimulus-container"">
                    <img src=""images/schematic_sequence/supermarket_scheme/supermarket_scheme_ten.png"" class=""exp-image"">
                    <div class=""question-area""></div> 
                </div>","null","","","","","","","","",""
"","","","","","html-button-response","162","462433","0.0-162.0","7BFB3148D55A4F9D9FF2B7778641C771","019cf7c5-9374-7717-a3aa-5d51c7972323","019cf7bd-52b9-7f96-9138-a5960b400b31","","312","
                <div class=""stimulus-container"">
                    <img src=""images/schematic_sequence/supermarket_scheme/supermarket_scheme_ten.png"" class=""exp-image"">
                    <div class=""question-area"">
                        <p style=""font-size: 20px; font-weight: bold; margin: 0;"">Is there a person in this image?</p>
                    </div>
                </div>","1","main_experiment_trial","ten","supermarket_scheme","schematic_sequence","","","","",""
"","","","","","html-keyboard-response","163","463437","0.0-163.0","7BFB3148D55A4F9D9FF2B7778641C771","019cf7c5-9374-7717-a3aa-5d51c7972323","019cf7bd-52b9-7f96-9138-a5960b400b31","","null","<div style=""background-color: white; width: 100vw; height: 100vh;""></div>","null","","","","","","","","",""
"","","","","","html-keyboard-response","164","468448","0.0-164.0","7BFB3148D55A4F9D9FF2B7778641C771","019cf7c5-9374-7717-a3aa-5d51c7972323","019cf7bd-52b9-7f96-9138-a5960b400b31","","null","
                <div class=""stimulus-container"">
                    <img src=""images/schematic_sequence/hotel_scheme/hotel_scheme_1.png"" class=""exp-image"">
                    <div class=""question-area""></div> 
                </div>","null","","","","","","","","",""
"","","","","","html-button-response","165","468801","0.0-165.0","7BFB3148D55A4F9D9FF2B7778641C771","019cf7c5-9374-7717-a3aa-5d51c7972323","019cf7bd-52b9-7f96-9138-a5960b400b31","","343","
                <div class=""stimulus-container"">
                    <img src=""images/schematic_sequence/hotel_scheme/hotel_scheme_1.png"" class=""exp-image"">
                    <div class=""question-area"">
                        <p style=""font-size: 20px; font-weight: bold; margin: 0;"">Is there a person in this image?</p>
                    </div>
                </div>","1","main_experiment_trial","1","hotel_scheme","schematic_sequence","","","","",""
"","","","","","html-keyboard-response","166","473808","0.0-166.0","7BFB3148D55A4F9D9FF2B7778641C771","019cf7c5-9374-7717-a3aa-5d51c7972323","019cf7bd-52b9-7f96-9138-a5960b400b31","","null","
                <div class=""stimulus-container"">
                    <img src=""images/schematic_sequence/hotel_scheme/hotel_scheme_2.png"" class=""exp-image"">
                    <div class=""question-area""></div> 
                </div>","null","","","","","","","","",""
"","","","","","html-button-response","167","474130","0.0-167.0","7BFB3148D55A4F9D9FF2B7778641C771","019cf7c5-9374-7717-a3aa-5d51c7972323","019cf7bd-52b9-7f96-9138-a5960b400b31","","313","
                <div class=""stimulus-container"">
                    <img src=""images/schematic_sequence/hotel_scheme/hotel_scheme_2.png"" class=""exp-image"">
                    <div class=""question-area"">
                        <p style=""font-size: 20px; font-weight: bold; margin: 0;"">Is there a person in this image?</p>
                    </div>
                </div>","0","main_experiment_trial","2","hotel_scheme","schematic_sequence","","","","",""
"","","","","","html-keyboard-response","168","479135","0.0-168.0","7BFB3148D55A4F9D9FF2B7778641C771","019cf7c5-9374-7717-a3aa-5d51c7972323","019cf7bd-52b9-7f96-9138-a5960b400b31","","null","
                <div class=""stimulus-container"">
                    <img src=""images/schematic_sequence/hotel_scheme/hotel_scheme_3.png"" class=""exp-image"">
                    <div class=""question-area""></div> 
                </div>","null","","","","","","","","",""
"","","","","","html-button-response","169","479498","0.0-169.0","7BFB3148D55A4F9D9FF2B7778641C771","019cf7c5-9374-7717-a3aa-5d51c7972323","019cf7bd-52b9-7f96-9138-a5960b400b31","","354","
                <div class=""stimulus-container"">
                    <img src=""images/schematic_sequence/hotel_scheme/hotel_scheme_3.png"" class=""exp-image"">
                    <div class=""question-area"">
                        <p style=""font-size: 20px; font-weight: bold; margin: 0;"">Is there a person in this image?</p>
                    </div>
                </div>","0","main_experiment_trial","3","hotel_scheme","schematic_sequence","","","","",""
"","","","","","html-keyboard-response","170","484505","0.0-170.0","7BFB3148D55A4F9D9FF2B7778641C771","019cf7c5-9374-7717-a3aa-5d51c7972323","019cf7bd-52b9-7f96-9138-a5960b400b31","","null","
                <div class=""stimulus-container"">
                    <img src=""images/schematic_sequence/hotel_scheme/hotel_scheme_4.png"" class=""exp-image"">
                    <div class=""question-area""></div> 
                </div>","null","","","","","","","","",""
"","","","","","html-button-response","171","484933","0.0-171.0","7BFB3148D55A4F9D9FF2B7778641C771","019cf7c5-9374-7717-a3aa-5d51c7972323","019cf7bd-52b9-7f96-9138-a5960b400b31","","422","
                <div class=""stimulus-container"">
                    <img src=""images/schematic_sequence/hotel_scheme/hotel_scheme_4.png"" class=""exp-image"">
                    <div class=""question-area"">
                        <p style=""font-size: 20px; font-weight: bold; margin: 0;"">Is there a person in this image?</p>
                    </div>
                </div>","1","main_experiment_trial","4","hotel_scheme","schematic_sequence","","","","",""
"","","","","","html-keyboard-response","172","489938","0.0-172.0","7BFB3148D55A4F9D9FF2B7778641C771","019cf7c5-9374-7717-a3aa-5d51c7972323","019cf7bd-52b9-7f96-9138-a5960b400b31","","null","
                <div class=""stimulus-container"">
                    <img src=""images/schematic_sequence/hotel_scheme/hotel_scheme_5.png"" class=""exp-image"">
                    <div class=""question-area""></div> 
                </div>","null","","","","","","","","",""
"","","","","","html-button-response","173","492242","0.0-173.0","7BFB3148D55A4F9D9FF2B7778641C771","019cf7c5-9374-7717-a3aa-5d51c7972323","019cf7bd-52b9-7f96-9138-a5960b400b31","","2297","
                <div class=""stimulus-container"">
                    <img src=""images/schematic_sequence/hotel_scheme/hotel_scheme_5.png"" class=""exp-image"">
                    <div class=""question-area"">
                        <p style=""font-size: 20px; font-weight: bold; margin: 0;"">Is there a person in this image?</p>
                    </div>
                </div>","0","main_experiment_trial","5","hotel_scheme","schematic_sequence","","","","",""
"","","","","","html-keyboard-response","174","497250","0.0-174.0","7BFB3148D55A4F9D9FF2B7778641C771","019cf7c5-9374-7717-a3aa-5d51c7972323","019cf7bd-52b9-7f96-9138-a5960b400b31","","null","
                <div class=""stimulus-container"">
                    <img src=""images/schematic_sequence/hotel_scheme/hotel_scheme_6.png"" class=""exp-image"">
                    <div class=""question-area""></div> 
                </div>","null","","","","","","","","",""
"","","","","","html-button-response","175","497843","0.0-175.0","7BFB3148D55A4F9D9FF2B7778641C771","019cf7c5-9374-7717-a3aa-5d51c7972323","019cf7bd-52b9-7f96-9138-a5960b400b31","","581","
                <div class=""stimulus-container"">
                    <img src=""images/schematic_sequence/hotel_scheme/hotel_scheme_6.png"" class=""exp-image"">
                    <div class=""question-area"">
                        <p style=""font-size: 20px; font-weight: bold; margin: 0;"">Is there a person in this image?</p>
                    </div>
                </div>","0","main_experiment_trial","6","hotel_scheme","schematic_sequence","","","","",""
"","","","","","html-keyboard-response","176","502857","0.0-176.0","7BFB3148D55A4F9D9FF2B7778641C771","019cf7c5-9374-7717-a3aa-5d51c7972323","019cf7bd-52b9-7f96-9138-a5960b400b31","","null","
                <div class=""stimulus-container"">
                    <img src=""images/schematic_sequence/hotel_scheme/hotel_scheme_7.png"" class=""exp-image"">
                    <div class=""question-area""></div> 
                </div>","null","","","","","","","","",""
"","","","","","html-button-response","177","503612","0.0-177.0","7BFB3148D55A4F9D9FF2B7778641C771","019cf7c5-9374-7717-a3aa-5d51c7972323","019cf7bd-52b9-7f96-9138-a5960b400b31","","744","
                <div class=""stimulus-container"">
                    <img src=""images/schematic_sequence/hotel_scheme/hotel_scheme_7.png"" class=""exp-image"">
                    <div class=""question-area"">
                        <p style=""font-size: 20px; font-weight: bold; margin: 0;"">Is there a person in this image?</p>
                    </div>
                </div>","0","main_experiment_trial","7","hotel_scheme","schematic_sequence","","","","",""
"","","","","","html-keyboard-response","178","508619","0.0-178.0","7BFB3148D55A4F9D9FF2B7778641C771","019cf7c5-9374-7717-a3aa-5d51c7972323","019cf7bd-52b9-7f96-9138-a5960b400b31","","null","
                <div class=""stimulus-container"">
                    <img src=""images/schematic_sequence/hotel_scheme/hotel_scheme_8.png"" class=""exp-image"">
                    <div class=""question-area""></div> 
                </div>","null","","","","","","","","",""
"","","","","","html-button-response","179","509179","0.0-179.0","7BFB3148D55A4F9D9FF2B7778641C771","019cf7c5-9374-7717-a3aa-5d51c7972323","019cf7bd-52b9-7f96-9138-a5960b400b31","","546","
                <div class=""stimulus-container"">
                    <img src=""images/schematic_sequence/hotel_scheme/hotel_scheme_8.png"" class=""exp-image"">
                    <div class=""question-area"">
                        <p style=""font-size: 20px; font-weight: bold; margin: 0;"">Is there a person in this image?</p>
