"success","timeout","failed_images","failed_audio","failed_video","trial_type","trial_index","time_elapsed","internal_node_id","subject_id","study_id","session_id","view_history","rt","stimulus","response","task","image_index","folder","sequence_type","valuable_image_index","reward_type","chosen_image_index","target_X","v_index","n_index","v_folder","n_folder","correct_choice"
"true","false","[]","[]","[]","preload","0","22075","0.0-0.0","D4DBA0000B9C4D8980E02F5238FBAC77","019ceffd-70b1-72d4-8eda-af19c65d73c8","019ceff9-9f67-7034-9722-02cda2445e09","","","","","","","","","","","","","","","","",""
"","","","","","instructions","1","24014","0.0-1.0","D4DBA0000B9C4D8980E02F5238FBAC77","019ceffd-70b1-72d4-8eda-af19c65d73c8","019ceff9-9f67-7034-9722-02cda2445e09","[{""page_index"":0,""viewing_time"":1934}]","1936","","","","","","","","","","","","","","",""
"","","","","","instructions","2","154136","0.0-2.0","D4DBA0000B9C4D8980E02F5238FBAC77","019ceffd-70b1-72d4-8eda-af19c65d73c8","019ceff9-9f67-7034-9722-02cda2445e09","[{""page_index"":0,""viewing_time"":130120}]","130121","","","","","","","","","","","","","","",""
"true","","","","","fullscreen","3","156930","0.0-3.0","D4DBA0000B9C4D8980E02F5238FBAC77","019ceffd-70b1-72d4-8eda-af19c65d73c8","019ceff9-9f67-7034-9722-02cda2445e09","","1788","","","","","","","","","","","","","","",""
"","","","","","instructions","4","159625","0.0-4.0","D4DBA0000B9C4D8980E02F5238FBAC77","019ceffd-70b1-72d4-8eda-af19c65d73c8","019ceff9-9f67-7034-9722-02cda2445e09","[{""page_index"":0,""viewing_time"":2692}]","2693","","","","","","","","","","","","","","",""
"","","","","","instructions","5","167802","0.0-5.0","D4DBA0000B9C4D8980E02F5238FBAC77","019ceffd-70b1-72d4-8eda-af19c65d73c8","019ceff9-9f67-7034-9722-02cda2445e09","[{""page_index"":0,""viewing_time"":8175}]","8177","","","","","","","","","","","","","","",""
"","","","","","html-keyboard-response","6","171808","0.0-6.0","D4DBA0000B9C4D8980E02F5238FBAC77","019ceffd-70b1-72d4-8eda-af19c65d73c8","019ceff9-9f67-7034-9722-02cda2445e09","","null","
                <div class=""stimulus-container"">
                    <img src=""images/instructions/movie_1.png"" class=""exp-image"">
                    <div class=""question-area""></div> 
                </div>","null","","","","","","","","","","","","",""
"","","","","","html-button-response","7","173260","0.0-7.0","D4DBA0000B9C4D8980E02F5238FBAC77","019ceffd-70b1-72d4-8eda-af19c65d73c8","019ceff9-9f67-7034-9722-02cda2445e09","","1447","
                <div class=""stimulus-container"">
                    <img src=""images/instructions/movie_1.png"" class=""exp-image"">
                    <div class=""question-area"">
                        <p style=""font-size: 20px; font-weight: bold; margin: 0;"">Was there a person in this image?</p>
                    </div>
                </div>","0","example_question","1","","","","","","","","","","",""
"","","","","","html-keyboard-response","8","177264","0.0-8.0","D4DBA0000B9C4D8980E02F5238FBAC77","019ceffd-70b1-72d4-8eda-af19c65d73c8","019ceff9-9f67-7034-9722-02cda2445e09","","null","
                <div class=""stimulus-container"">
                    <img src=""images/instructions/movie_2.png"" class=""exp-image"">
                    <div class=""question-area""></div> 
                </div>","null","","","","","","","","","","","","",""
"","","","","","html-button-response","9","178090","0.0-9.0","D4DBA0000B9C4D8980E02F5238FBAC77","019ceffd-70b1-72d4-8eda-af19c65d73c8","019ceff9-9f67-7034-9722-02cda2445e09","","824","
                <div class=""stimulus-container"">
                    <img src=""images/instructions/movie_2.png"" class=""exp-image"">
                    <div class=""question-area"">
                        <p style=""font-size: 20px; font-weight: bold; margin: 0;"">Was there a person in this image?</p>
                    </div>
                </div>","0","example_question","2","","","","","","","","","","",""
"","","","","","html-keyboard-response","10","182093","0.0-10.0","D4DBA0000B9C4D8980E02F5238FBAC77","019ceffd-70b1-72d4-8eda-af19c65d73c8","019ceff9-9f67-7034-9722-02cda2445e09","","null","
                <div class=""stimulus-container"">
                    <img src=""images/instructions/movie_3.png"" class=""exp-image"">
                    <div class=""question-area""></div> 
                </div>","null","","","","","","","","","","","","",""
"","","","","","html-button-response","11","182908","0.0-11.0","D4DBA0000B9C4D8980E02F5238FBAC77","019ceffd-70b1-72d4-8eda-af19c65d73c8","019ceff9-9f67-7034-9722-02cda2445e09","","813","
                <div class=""stimulus-container"">
                    <img src=""images/instructions/movie_3.png"" class=""exp-image"">
                    <div class=""question-area"">
                        <p style=""font-size: 20px; font-weight: bold; margin: 0;"">Was there a person in this image?</p>
                    </div>
                </div>","0","example_question","3","","","","","","","","","","",""
"","","","","","html-keyboard-response","12","186911","0.0-12.0","D4DBA0000B9C4D8980E02F5238FBAC77","019ceffd-70b1-72d4-8eda-af19c65d73c8","019ceff9-9f67-7034-9722-02cda2445e09","","null","
                <div class=""stimulus-container"">
                    <img src=""images/instructions/movie_4.png"" class=""exp-image"">
                    <div class=""question-area""></div> 
                </div>","null","","","","","","","","","","","","",""
"","","","","","html-button-response","13","187766","0.0-13.0","D4DBA0000B9C4D8980E02F5238FBAC77","019ceffd-70b1-72d4-8eda-af19c65d73c8","019ceff9-9f67-7034-9722-02cda2445e09","","851","
                <div class=""stimulus-container"">
                    <img src=""images/instructions/movie_4.png"" class=""exp-image"">
                    <div class=""question-area"">
                        <p style=""font-size: 20px; font-weight: bold; margin: 0;"">Was there a person in this image?</p>
                    </div>
                </div>","0","example_question","4","","","","","","","","","","",""
"","","","","","instructions","14","189908","0.0-14.0","D4DBA0000B9C4D8980E02F5238FBAC77","019ceffd-70b1-72d4-8eda-af19c65d73c8","019ceff9-9f67-7034-9722-02cda2445e09","[{""page_index"":0,""viewing_time"":2140}]","2141","","","","","","","","","","","","","","",""
"","","","","","instructions","15","193972","0.0-15.0","D4DBA0000B9C4D8980E02F5238FBAC77","019ceffd-70b1-72d4-8eda-af19c65d73c8","019ceff9-9f67-7034-9722-02cda2445e09","[{""page_index"":0,""viewing_time"":4062}]","4062","","","","","","","","","","","","","","",""
"","","","","","html-keyboard-response","16","194974","0.0-16.0","D4DBA0000B9C4D8980E02F5238FBAC77","019ceffd-70b1-72d4-8eda-af19c65d73c8","019ceff9-9f67-7034-9722-02cda2445e09","","null","<div style=""background-color: white; width: 100vw; height: 100vh;""></div>","null","","","","","","","","","","","","",""
"","","","","","html-keyboard-response","17","199977","0.0-17.0","D4DBA0000B9C4D8980E02F5238FBAC77","019ceffd-70b1-72d4-8eda-af19c65d73c8","019ceff9-9f67-7034-9722-02cda2445e09","","null","
                <div class=""stimulus-container"">
                    <img src=""images/causal_sequence/coin_causal/coin_causal_1.png"" class=""exp-image"">
                    <div class=""question-area""></div> 
                </div>","null","","","","","","","","","","","","",""
"","","","","","html-button-response","18","201174","0.0-18.0","D4DBA0000B9C4D8980E02F5238FBAC77","019ceffd-70b1-72d4-8eda-af19c65d73c8","019ceff9-9f67-7034-9722-02cda2445e09","","1192","
                <div class=""stimulus-container"">
                    <img src=""images/causal_sequence/coin_causal/coin_causal_1.png"" class=""exp-image"">
                    <div class=""question-area"">
                        <p style=""font-size: 20px; font-weight: bold; margin: 0;"">Is there a person in this image?</p>
                    </div>
                </div>","1","main_experiment_trial","1","coin_causal","causal_sequence","","","","","","","","",""
"","","","","","html-keyboard-response","19","206177","0.0-19.0","D4DBA0000B9C4D8980E02F5238FBAC77","019ceffd-70b1-72d4-8eda-af19c65d73c8","019ceff9-9f67-7034-9722-02cda2445e09","","null","
                <div class=""stimulus-container"">
                    <img src=""images/causal_sequence/coin_causal/coin_causal_2.png"" class=""exp-image"">
                    <div class=""question-area""></div> 
                </div>","null","","","","","","","","","","","","",""
"","","","","","html-button-response","20","206903","0.0-20.0","D4DBA0000B9C4D8980E02F5238FBAC77","019ceffd-70b1-72d4-8eda-af19c65d73c8","019ceff9-9f67-7034-9722-02cda2445e09","","724","
                <div class=""stimulus-container"">
                    <img src=""images/causal_sequence/coin_causal/coin_causal_2.png"" class=""exp-image"">
                    <div class=""question-area"">
                        <p style=""font-size: 20px; font-weight: bold; margin: 0;"">Is there a person in this image?</p>
                    </div>
                </div>","0","main_experiment_trial","2","coin_causal","causal_sequence","","","","","","","","",""
"","","","","","html-keyboard-response","21","211906","0.0-21.0","D4DBA0000B9C4D8980E02F5238FBAC77","019ceffd-70b1-72d4-8eda-af19c65d73c8","019ceff9-9f67-7034-9722-02cda2445e09","","null","
                <div class=""stimulus-container"">
                    <img src=""images/causal_sequence/coin_causal/coin_causal_3.png"" class=""exp-image"">
                    <div class=""question-area""></div> 
                </div>","null","","","","","","","","","","","","",""
"","","","","","html-button-response","22","212817","0.0-22.0","D4DBA0000B9C4D8980E02F5238FBAC77","019ceffd-70b1-72d4-8eda-af19c65d73c8","019ceff9-9f67-7034-9722-02cda2445e09","","908","
                <div class=""stimulus-container"">
                    <img src=""images/causal_sequence/coin_causal/coin_causal_3.png"" class=""exp-image"">
                    <div class=""question-area"">
                        <p style=""font-size: 20px; font-weight: bold; margin: 0;"">Is there a person in this image?</p>
                    </div>
                </div>","1","main_experiment_trial","3","coin_causal","causal_sequence","","","","","","","","",""
"","","","","","html-keyboard-response","23","217820","0.0-23.0","D4DBA0000B9C4D8980E02F5238FBAC77","019ceffd-70b1-72d4-8eda-af19c65d73c8","019ceff9-9f67-7034-9722-02cda2445e09","","null","
                <div class=""stimulus-container"">
                    <img src=""images/causal_sequence/coin_causal/coin_causal_4.png"" class=""exp-image"">
                    <div class=""question-area""></div> 
                </div>","null","","","","","","","","","","","","",""
"","","","","","html-button-response","24","218403","0.0-24.0","D4DBA0000B9C4D8980E02F5238FBAC77","019ceffd-70b1-72d4-8eda-af19c65d73c8","019ceff9-9f67-7034-9722-02cda2445e09","","581","
                <div class=""stimulus-container"">
                    <img src=""images/causal_sequence/coin_causal/coin_causal_4.png"" class=""exp-image"">
                    <div class=""question-area"">
                        <p style=""font-size: 20px; font-weight: bold; margin: 0;"">Is there a person in this image?</p>
                    </div>
                </div>","1","main_experiment_trial","4","coin_causal","causal_sequence","","","","","","","","",""
"","","","","","html-keyboard-response","25","223405","0.0-25.0","D4DBA0000B9C4D8980E02F5238FBAC77","019ceffd-70b1-72d4-8eda-af19c65d73c8","019ceff9-9f67-7034-9722-02cda2445e09","","null","
                <div class=""stimulus-container"">
                    <img src=""images/causal_sequence/coin_causal/coin_causal_5.png"" class=""exp-image"">
                    <div class=""question-area""></div> 
                </div>","null","","","","","","","","","","","","",""
"","","","","","html-button-response","26","223949","0.0-26.0","D4DBA0000B9C4D8980E02F5238FBAC77","019ceffd-70b1-72d4-8eda-af19c65d73c8","019ceff9-9f67-7034-9722-02cda2445e09","","540","
                <div class=""stimulus-container"">
                    <img src=""images/causal_sequence/coin_causal/coin_causal_5.png"" class=""exp-image"">
                    <div class=""question-area"">
                        <p style=""font-size: 20px; font-weight: bold; margin: 0;"">Is there a person in this image?</p>
                    </div>
                </div>","1","main_experiment_trial","5","coin_causal","causal_sequence","","","","","","","","",""
"","","","","","html-keyboard-response","27","228951","0.0-27.0","D4DBA0000B9C4D8980E02F5238FBAC77","019ceffd-70b1-72d4-8eda-af19c65d73c8","019ceff9-9f67-7034-9722-02cda2445e09","","null","
                <div class=""stimulus-container"">
                    <img src=""images/causal_sequence/coin_causal/coin_causal_6.png"" class=""exp-image"">
                    <div class=""question-area""></div> 
                </div>","null","","","","","","","","","","","","",""
"","","","","","html-button-response","28","229480","0.0-28.0","D4DBA0000B9C4D8980E02F5238FBAC77","019ceffd-70b1-72d4-8eda-af19c65d73c8","019ceff9-9f67-7034-9722-02cda2445e09","","526","
                <div class=""stimulus-container"">
                    <img src=""images/causal_sequence/coin_causal/coin_causal_6.png"" class=""exp-image"">
                    <div class=""question-area"">
                        <p style=""font-size: 20px; font-weight: bold; margin: 0;"">Is there a person in this image?</p>
                    </div>
                </div>","1","main_experiment_trial","6","coin_causal","causal_sequence","","","","","","","","",""
"","","","","","html-keyboard-response","29","234482","0.0-29.0","D4DBA0000B9C4D8980E02F5238FBAC77","019ceffd-70b1-72d4-8eda-af19c65d73c8","019ceff9-9f67-7034-9722-02cda2445e09","","null","
                <div class=""stimulus-container"">
                    <img src=""images/causal_sequence/coin_causal/coin_causal_7.png"" class=""exp-image"">
                    <div class=""question-area""></div> 
                </div>","null","","","","","","","","","","","","",""
"","","","","","html-button-response","30","234974","0.0-30.0","D4DBA0000B9C4D8980E02F5238FBAC77","019ceffd-70b1-72d4-8eda-af19c65d73c8","019ceff9-9f67-7034-9722-02cda2445e09","","488","
                <div class=""stimulus-container"">
                    <img src=""images/causal_sequence/coin_causal/coin_causal_7.png"" class=""exp-image"">
                    <div class=""question-area"">
                        <p style=""font-size: 20px; font-weight: bold; margin: 0;"">Is there a person in this image?</p>
                    </div>
                </div>","1","main_experiment_trial","7","coin_causal","causal_sequence","","","","","","","","",""
"","","","","","html-keyboard-response","31","239977","0.0-31.0","D4DBA0000B9C4D8980E02F5238FBAC77","019ceffd-70b1-72d4-8eda-af19c65d73c8","019ceff9-9f67-7034-9722-02cda2445e09","","null","
                <div class=""stimulus-container"">
                    <img src=""images/causal_sequence/coin_causal/coin_causal_8.png"" class=""exp-image"">
                    <div class=""question-area""></div> 
                </div>","null","","","","","","","","","","","","",""
"","","","","","html-button-response","32","240518","0.0-32.0","D4DBA0000B9C4D8980E02F5238FBAC77","019ceffd-70b1-72d4-8eda-af19c65d73c8","019ceff9-9f67-7034-9722-02cda2445e09","","538","
                <div class=""stimulus-container"">
                    <img src=""images/causal_sequence/coin_causal/coin_causal_8.png"" class=""exp-image"">
                    <div class=""question-area"">
                        <p style=""font-size: 20px; font-weight: bold; margin: 0;"">Is there a person in this image?</p>
                    </div>
                </div>","1","main_experiment_trial","8","coin_causal","causal_sequence","","","","","","","","",""
"","","","","","html-keyboard-response","33","245520","0.0-33.0","D4DBA0000B9C4D8980E02F5238FBAC77","019ceffd-70b1-72d4-8eda-af19c65d73c8","019ceff9-9f67-7034-9722-02cda2445e09","","null","
                <div class=""stimulus-container"">
                    <img src=""images/causal_sequence/coin_causal/coin_causal_9.png"" class=""exp-image"">
                    <div class=""question-area""></div> 
                </div>","null","","","","","","","","","","","","",""
"","","","","","html-button-response","34","246200","0.0-34.0","D4DBA0000B9C4D8980E02F5238FBAC77","019ceffd-70b1-72d4-8eda-af19c65d73c8","019ceff9-9f67-7034-9722-02cda2445e09","","677","
                <div class=""stimulus-container"">
                    <img src=""images/causal_sequence/coin_causal/coin_causal_9.png"" class=""exp-image"">
                    <div class=""question-area"">
                        <p style=""font-size: 20px; font-weight: bold; margin: 0;"">Is there a person in this image?</p>
                    </div>
                </div>","1","main_experiment_trial","9","coin_causal","causal_sequence","","","","","","","","",""
"","","","","","html-keyboard-response","35","251202","0.0-35.0","D4DBA0000B9C4D8980E02F5238FBAC77","019ceffd-70b1-72d4-8eda-af19c65d73c8","019ceff9-9f67-7034-9722-02cda2445e09","","null","
                <div class=""stimulus-container"">
                    <img src=""images/causal_sequence/coin_causal/coin_causal_ten.png"" class=""exp-image"">
                    <div class=""question-area""></div> 
                </div>","null","","","","","","","","","","","","",""
"","","","","","html-button-response","36","251777","0.0-36.0","D4DBA0000B9C4D8980E02F5238FBAC77","019ceffd-70b1-72d4-8eda-af19c65d73c8","019ceff9-9f67-7034-9722-02cda2445e09","","572","
                <div class=""stimulus-container"">
                    <img src=""images/causal_sequence/coin_causal/coin_causal_ten.png"" class=""exp-image"">
                    <div class=""question-area"">
                        <p style=""font-size: 20px; font-weight: bold; margin: 0;"">Is there a person in this image?</p>
                    </div>
                </div>","1","main_experiment_trial","ten","coin_causal","causal_sequence","","","","","","","","",""
"","","","","","html-keyboard-response","37","252780","0.0-37.0","D4DBA0000B9C4D8980E02F5238FBAC77","019ceffd-70b1-72d4-8eda-af19c65d73c8","019ceff9-9f67-7034-9722-02cda2445e09","","null","<div style=""background-color: white; width: 100vw; height: 100vh;""></div>","null","","","","","","","","","","","","",""
"","","","","","html-keyboard-response","38","257782","0.0-38.0","D4DBA0000B9C4D8980E02F5238FBAC77","019ceffd-70b1-72d4-8eda-af19c65d73c8","019ceff9-9f67-7034-9722-02cda2445e09","","null","
                <div class=""stimulus-container"">
                    <img src=""images/schematic_sequence/hotel_scheme/hotel_scheme_1.png"" class=""exp-image"">
                    <div class=""question-area""></div> 
                </div>","null","","","","","","","","","","","","",""
"","","","","","html-button-response","39","258384","0.0-39.0","D4DBA0000B9C4D8980E02F5238FBAC77","019ceffd-70b1-72d4-8eda-af19c65d73c8","019ceff9-9f67-7034-9722-02cda2445e09","","598","
                <div class=""stimulus-container"">
                    <img src=""images/schematic_sequence/hotel_scheme/hotel_scheme_1.png"" class=""exp-image"">
                    <div class=""question-area"">
                        <p style=""font-size: 20px; font-weight: bold; margin: 0;"">Is there a person in this image?</p>
                    </div>
                </div>","1","main_experiment_trial","1","hotel_scheme","schematic_sequence","","","","","","","","",""
"","","","","","html-keyboard-response","40","263386","0.0-40.0","D4DBA0000B9C4D8980E02F5238FBAC77","019ceffd-70b1-72d4-8eda-af19c65d73c8","019ceff9-9f67-7034-9722-02cda2445e09","","null","
                <div class=""stimulus-container"">
                    <img src=""images/schematic_sequence/hotel_scheme/hotel_scheme_2.png"" class=""exp-image"">
                    <div class=""question-area""></div> 
                </div>","null","","","","","","","","","","","","",""
"","","","","","html-button-response","41","264138","0.0-41.0","D4DBA0000B9C4D8980E02F5238FBAC77","019ceffd-70b1-72d4-8eda-af19c65d73c8","019ceff9-9f67-7034-9722-02cda2445e09","","749","
                <div class=""stimulus-container"">
                    <img src=""images/schematic_sequence/hotel_scheme/hotel_scheme_2.png"" class=""exp-image"">
                    <div class=""question-area"">
                        <p style=""font-size: 20px; font-weight: bold; margin: 0;"">Is there a person in this image?</p>
                    </div>
                </div>","0","main_experiment_trial","2","hotel_scheme","schematic_sequence","","","","","","","","",""
"","","","","","html-keyboard-response","42","269140","0.0-42.0","D4DBA0000B9C4D8980E02F5238FBAC77","019ceffd-70b1-72d4-8eda-af19c65d73c8","019ceff9-9f67-7034-9722-02cda2445e09","","null","
                <div class=""stimulus-container"">
                    <img src=""images/schematic_sequence/hotel_scheme/hotel_scheme_3.png"" class=""exp-image"">
                    <div class=""question-area""></div> 
                </div>","null","","","","","","","","","","","","",""
"","","","","","html-button-response","43","269714","0.0-43.0","D4DBA0000B9C4D8980E02F5238FBAC77","019ceffd-70b1-72d4-8eda-af19c65d73c8","019ceff9-9f67-7034-9722-02cda2445e09","","572","
                <div class=""stimulus-container"">
                    <img src=""images/schematic_sequence/hotel_scheme/hotel_scheme_3.png"" class=""exp-image"">
                    <div class=""question-area"">
                        <p style=""font-size: 20px; font-weight: bold; margin: 0;"">Is there a person in this image?</p>
                    </div>
                </div>","0","main_experiment_trial","3","hotel_scheme","schematic_sequence","","","","","","","","",""
"","","","","","html-keyboard-response","44","274716","0.0-44.0","D4DBA0000B9C4D8980E02F5238FBAC77","019ceffd-70b1-72d4-8eda-af19c65d73c8","019ceff9-9f67-7034-9722-02cda2445e09","","null","
                <div class=""stimulus-container"">
                    <img src=""images/schematic_sequence/hotel_scheme/hotel_scheme_4.png"" class=""exp-image"">
                    <div class=""question-area""></div> 
                </div>","null","","","","","","","","","","","","",""
"","","","","","html-button-response","45","275591","0.0-45.0","D4DBA0000B9C4D8980E02F5238FBAC77","019ceffd-70b1-72d4-8eda-af19c65d73c8","019ceff9-9f67-7034-9722-02cda2445e09","","872","
                <div class=""stimulus-container"">
                    <img src=""images/schematic_sequence/hotel_scheme/hotel_scheme_4.png"" class=""exp-image"">
                    <div class=""question-area"">
                        <p style=""font-size: 20px; font-weight: bold; margin: 0;"">Is there a person in this image?</p>
                    </div>
                </div>","1","main_experiment_trial","4","hotel_scheme","schematic_sequence","","","","","","","","",""
"","","","","","html-keyboard-response","46","280594","0.0-46.0","D4DBA0000B9C4D8980E02F5238FBAC77","019ceffd-70b1-72d4-8eda-af19c65d73c8","019ceff9-9f67-7034-9722-02cda2445e09","","null","
                <div class=""stimulus-container"">
                    <img src=""images/schematic_sequence/hotel_scheme/hotel_scheme_5.png"" class=""exp-image"">
                    <div class=""question-area""></div> 
                </div>","null","","","","","","","","","","","","",""
"","","","","","html-button-response","47","281126","0.0-47.0","D4DBA0000B9C4D8980E02F5238FBAC77","019ceffd-70b1-72d4-8eda-af19c65d73c8","019ceff9-9f67-7034-9722-02cda2445e09","","529","
                <div class=""stimulus-container"">
                    <img src=""images/schematic_sequence/hotel_scheme/hotel_scheme_5.png"" class=""exp-image"">
                    <div class=""question-area"">
                        <p style=""font-size: 20px; font-weight: bold; margin: 0;"">Is there a person in this image?</p>
                    </div>
                </div>","0","main_experiment_trial","5","hotel_scheme","schematic_sequence","","","","","","","","",""
"","","","","","html-keyboard-response","48","286129","0.0-48.0","D4DBA0000B9C4D8980E02F5238FBAC77","019ceffd-70b1-72d4-8eda-af19c65d73c8","019ceff9-9f67-7034-9722-02cda2445e09","","null","
                <div class=""stimulus-container"">
                    <img src=""images/schematic_sequence/hotel_scheme/hotel_scheme_6.png"" class=""exp-image"">
                    <div class=""question-area""></div> 
                </div>","null","","","","","","","","","","","","",""
"","","","","","html-button-response","49","286774","0.0-49.0","D4DBA0000B9C4D8980E02F5238FBAC77","019ceffd-70b1-72d4-8eda-af19c65d73c8","019ceff9-9f67-7034-9722-02cda2445e09","","642","
                <div class=""stimulus-container"">
                    <img src=""images/schematic_sequence/hotel_scheme/hotel_scheme_6.png"" class=""exp-image"">
                    <div class=""question-area"">
                        <p style=""font-size: 20px; font-weight: bold; margin: 0;"">Is there a person in this image?</p>
                    </div>
                </div>","0","main_experiment_trial","6","hotel_scheme","schematic_sequence","","","","","","","","",""
"","","","","","html-keyboard-response","50","291776","0.0-50.0","D4DBA0000B9C4D8980E02F5238FBAC77","019ceffd-70b1-72d4-8eda-af19c65d73c8","019ceff9-9f67-7034-9722-02cda2445e09","","null","
                <div class=""stimulus-container"">
                    <img src=""images/schematic_sequence/hotel_scheme/hotel_scheme_7.png"" class=""exp-image"">
                    <div class=""question-area""></div> 
                </div>","null","","","","","","","","","","","","",""
"","","","","","html-button-response","51","292549","0.0-51.0","D4DBA0000B9C4D8980E02F5238FBAC77","019ceffd-70b1-72d4-8eda-af19c65d73c8","019ceff9-9f67-7034-9722-02cda2445e09","","770","
                <div class=""stimulus-container"">
                    <img src=""images/schematic_sequence/hotel_scheme/hotel_scheme_7.png"" class=""exp-image"">
                    <div class=""question-area"">
                        <p style=""font-size: 20px; font-weight: bold; margin: 0;"">Is there a person in this image?</p>
                    </div>
                </div>","0","main_experiment_trial","7","hotel_scheme","schematic_sequence","","","","","","","","",""
"","","","","","html-keyboard-response","52","297552","0.0-52.0","D4DBA0000B9C4D8980E02F5238FBAC77","019ceffd-70b1-72d4-8eda-af19c65d73c8","019ceff9-9f67-7034-9722-02cda2445e09","","null","
                <div class=""stimulus-container"">
                    <img src=""images/schematic_sequence/hotel_scheme/hotel_scheme_8.png"" class=""exp-image"">
                    <div class=""question-area""></div> 
                </div>","null","","","","","","","","","","","","",""
"","","","","","html-button-response","53","298268","0.0-53.0","D4DBA0000B9C4D8980E02F5238FBAC77","019ceffd-70b1-72d4-8eda-af19c65d73c8","019ceff9-9f67-7034-9722-02cda2445e09","","714","
                <div class=""stimulus-container"">
                    <img src=""images/schematic_sequence/hotel_scheme/hotel_scheme_8.png"" class=""exp-image"">
                    <div class=""question-area"">
                        <p style=""font-size: 20px; font-weight: bold; margin: 0;"">Is there a person in this image?</p>
                    </div>
                </div>","0","main_experiment_trial","8","hotel_scheme","schematic_sequence","","","","","","","","",""
"","","","","","html-keyboard-response","54","303271","0.0-54.0","D4DBA0000B9C4D8980E02F5238FBAC77","019ceffd-70b1-72d4-8eda-af19c65d73c8","019ceff9-9f67-7034-9722-02cda2445e09","","null","
                <div class=""stimulus-container"">
                    <img src=""images/schematic_sequence/hotel_scheme/hotel_scheme_9.png"" class=""exp-image"">
                    <div class=""question-area""></div> 
                </div>","null","","","","","","","","","","","","",""
"","","","","","html-button-response","55","303870","0.0-55.0","D4DBA0000B9C4D8980E02F5238FBAC77","019ceffd-70b1-72d4-8eda-af19c65d73c8","019ceff9-9f67-7034-9722-02cda2445e09","","596","
                <div class=""stimulus-container"">
                    <img src=""images/schematic_sequence/hotel_scheme/hotel_scheme_9.png"" class=""exp-image"">
                    <div class=""question-area"">
                        <p style=""font-size: 20px; font-weight: bold; margin: 0;"">Is there a person in this image?</p>
                    </div>
                </div>","0","main_experiment_trial","9","hotel_scheme","schematic_sequence","","","","","","","","",""
"","","","","","html-keyboard-response","56","308872","0.0-56.0","D4DBA0000B9C4D8980E02F5238FBAC77","019ceffd-70b1-72d4-8eda-af19c65d73c8","019ceff9-9f67-7034-9722-02cda2445e09","","null","
                <div class=""stimulus-container"">
                    <img src=""images/schematic_sequence/hotel_scheme/hotel_scheme_ten.png"" class=""exp-image"">
                    <div class=""question-area""></div> 
                </div>","null","","","","","","","","","","","","",""
"","","","","","html-button-response","57","309459","0.0-57.0","D4DBA0000B9C4D8980E02F5238FBAC77","019ceffd-70b1-72d4-8eda-af19c65d73c8","019ceff9-9f67-7034-9722-02cda2445e09","","584","
                <div class=""stimulus-container"">
                    <img src=""images/schematic_sequence/hotel_scheme/hotel_scheme_ten.png"" class=""exp-image"">
                    <div class=""question-area"">
                        <p style=""font-size: 20px; font-weight: bold; margin: 0;"">Is there a person in this image?</p>
                    </div>
                </div>","0","main_experiment_trial","ten","hotel_scheme","schematic_sequence","","","","","","","","",""
"","","","","","html-keyboard-response","58","310460","0.0-58.0","D4DBA0000B9C4D8980E02F5238FBAC77","019ceffd-70b1-72d4-8eda-af19c65d73c8","019ceff9-9f67-7034-9722-02cda2445e09","","null","<div style=""background-color: white; width: 100vw; height: 100vh;""></div>","null","","","","","","","","","","","","",""
"","","","","","html-keyboard-response","59","315462","0.0-59.0","D4DBA0000B9C4D8980E02F5238FBAC77","019ceffd-70b1-72d4-8eda-af19c65d73c8","019ceff9-9f67-7034-9722-02cda2445e09","","null","
                <div class=""stimulus-container"">
                    <img src=""images/causal_sequence/dog_causal/dog_causal_1.png"" class=""exp-image"">
                    <div class=""question-area""></div> 
                </div>","null","","","","","","","","","","","","",""
"","","","","","html-button-response","60","315979","0.0-60.0","D4DBA0000B9C4D8980E02F5238FBAC77","019ceffd-70b1-72d4-8eda-af19c65d73c8","019ceff9-9f67-7034-9722-02cda2445e09","","515","
                <div class=""stimulus-container"">
                    <img src=""images/causal_sequence/dog_causal/dog_causal_1.png"" class=""exp-image"">
                    <div class=""question-area"">
                        <p style=""font-size: 20px; font-weight: bold; margin: 0;"">Is there a person in this image?</p>
                    </div>
                </div>","0","main_experiment_trial","1","dog_causal","causal_sequence","","","","","","","","",""
"","","","","","html-keyboard-response","61","320982","0.0-61.0","D4DBA0000B9C4D8980E02F5238FBAC77","019ceffd-70b1-72d4-8eda-af19c65d73c8","019ceff9-9f67-7034-9722-02cda2445e09","","null","
                <div class=""stimulus-container"">
                    <img src=""images/causal_sequence/dog_causal/dog_causal_2.png"" class=""exp-image"">
                    <div class=""question-area""></div> 
                </div>","null","","","","","","","","","","","","",""
"","","","","","html-button-response","62","322228","0.0-62.0","D4DBA0000B9C4D8980E02F5238FBAC77","019ceffd-70b1-72d4-8eda-af19c65d73c8","019ceff9-9f67-7034-9722-02cda2445e09","","1243","
                <div class=""stimulus-container"">
                    <img src=""images/causal_sequence/dog_causal/dog_causal_2.png"" class=""exp-image"">
                    <div class=""question-area"">
                        <p style=""font-size: 20px; font-weight: bold; margin: 0;"">Is there a person in this image?</p>
                    </div>
                </div>","0","main_experiment_trial","2","dog_causal","causal_sequence","","","","","","","","",""
"","","","","","html-keyboard-response","63","327231","0.0-63.0","D4DBA0000B9C4D8980E02F5238FBAC77","019ceffd-70b1-72d4-8eda-af19c65d73c8","019ceff9-9f67-7034-9722-02cda2445e09","","null","
                <div class=""stimulus-container"">
                    <img src=""images/causal_sequence/dog_causal/dog_causal_3.png"" class=""exp-image"">
                    <div class=""question-area""></div> 
                </div>","null","","","","","","","","","","","","",""
"","","","","","html-button-response","64","328000","0.0-64.0","D4DBA0000B9C4D8980E02F5238FBAC77","019ceffd-70b1-72d4-8eda-af19c65d73c8","019ceff9-9f67-7034-9722-02cda2445e09","","766","
                <div class=""stimulus-container"">
                    <img src=""images/causal_sequence/dog_causal/dog_causal_3.png"" class=""exp-image"">
                    <div class=""question-area"">
                        <p style=""font-size: 20px; font-weight: bold; margin: 0;"">Is there a person in this image?</p>
                    </div>
                </div>","0","main_experiment_trial","3","dog_causal","causal_sequence","","","","","","","","",""
"","","","","","html-keyboard-response","65","333004","0.0-65.0","D4DBA0000B9C4D8980E02F5238FBAC77","019ceffd-70b1-72d4-8eda-af19c65d73c8","019ceff9-9f67-7034-9722-02cda2445e09","","null","
                <div class=""stimulus-container"">
                    <img src=""images/causal_sequence/dog_causal/dog_causal_4.png"" class=""exp-image"">
                    <div class=""question-area""></div> 
                </div>","null","","","","","","","","","","","","",""
"","","","","","html-button-response","66","336007","0.0-66.0","D4DBA0000B9C4D8980E02F5238FBAC77","019ceffd-70b1-72d4-8eda-af19c65d73c8","019ceff9-9f67-7034-9722-02cda2445e09","","null","
                <div class=""stimulus-container"">
                    <img src=""images/causal_sequence/dog_causal/dog_causal_4.png"" class=""exp-image"">
                    <div class=""question-area"">
                        <p style=""font-size: 20px; font-weight: bold; margin: 0;"">Is there a person in this image?</p>
                    </div>
                </div>","null","main_experiment_trial","4","dog_causal","causal_sequence","","","","","","","","",""
"","","","","","html-keyboard-response","67","341010","0.0-67.0","D4DBA0000B9C4D8980E02F5238FBAC77","019ceffd-70b1-72d4-8eda-af19c65d73c8","019ceff9-9f67-7034-9722-02cda2445e09","","null","
                <div class=""stimulus-container"">
                    <img src=""images/causal_sequence/dog_causal/dog_causal_5.png"" class=""exp-image"">
                    <div class=""question-area""></div> 
                </div>","null","","","","","","","","","","","","",""
"","","","","","html-button-response","68","344014","0.0-68.0","D4DBA0000B9C4D8980E02F5238FBAC77","019ceffd-70b1-72d4-8eda-af19c65d73c8","019ceff9-9f67-7034-9722-02cda2445e09","","null","
                <div class=""stimulus-container"">
                    <img src=""images/causal_sequence/dog_causal/dog_causal_5.png"" class=""exp-image"">
                    <div class=""question-area"">
                        <p style=""font-size: 20px; font-weight: bold; margin: 0;"">Is there a person in this image?</p>
                    </div>
                </div>","null","main_experiment_trial","5","dog_causal","causal_sequence","","","","","","","","",""
"","","","","","html-keyboard-response","69","349016","0.0-69.0","D4DBA0000B9C4D8980E02F5238FBAC77","019ceffd-70b1-72d4-8eda-af19c65d73c8","019ceff9-9f67-7034-9722-02cda2445e09","","null","
                <div class=""stimulus-container"">
                    <img src=""images/causal_sequence/dog_causal/dog_causal_6.png"" class=""exp-image"">
                    <div class=""question-area""></div> 
                </div>","null","","","","","","","","","","","","",""
"","","","","","html-button-response","70","349733","0.0-70.0","D4DBA0000B9C4D8980E02F5238FBAC77","019ceffd-70b1-72d4-8eda-af19c65d73c8","019ceff9-9f67-7034-9722-02cda2445e09","","714","
                <div class=""stimulus-container"">
                    <img src=""images/causal_sequence/dog_causal/dog_causal_6.png"" class=""exp-image"">
                    <div class=""question-area"">
                        <p style=""font-size: 20px; font-weight: bold; margin: 0;"">Is there a person in this image?</p>
                    </div>
                </div>","0","main_experiment_trial","6","dog_causal","causal_sequence","","","","","","","","",""
"","","","","","html-keyboard-response","71","354735","0.0-71.0","D4DBA0000B9C4D8980E02F5238FBAC77","019ceffd-70b1-72d4-8eda-af19c65d73c8","019ceff9-9f67-7034-9722-02cda2445e09","","null","
                <div class=""stimulus-container"">
                    <img src=""images/causal_sequence/dog_causal/dog_causal_7.png"" class=""exp-image"">
                    <div class=""question-area""></div> 
                </div>","null","","","","","","","","","","","","",""
"","","","","","html-button-response","72","355485","0.0-72.0","D4DBA0000B9C4D8980E02F5238FBAC77","019ceffd-70b1-72d4-8eda-af19c65d73c8","019ceff9-9f67-7034-9722-02cda2445e09","","747","
                <div class=""stimulus-container"">
                    <img src=""images/causal_sequence/dog_causal/dog_causal_7.png"" class=""exp-image"">
                    <div class=""question-area"">
                        <p style=""font-size: 20px; font-weight: bold; margin: 0;"">Is there a person in this image?</p>
                    </div>
                </div>","0","main_experiment_trial","7","dog_causal","causal_sequence","","","","","","","","",""
"","","","","","html-keyboard-response","73","360487","0.0-73.0","D4DBA0000B9C4D8980E02F5238FBAC77","019ceffd-70b1-72d4-8eda-af19c65d73c8","019ceff9-9f67-7034-9722-02cda2445e09","","null","
                <div class=""stimulus-container"">
                    <img src=""images/causal_sequence/dog_causal/dog_causal_8.png"" class=""exp-image"">
                    <div class=""question-area""></div> 
                </div>","null","","","","","","","","","","","","",""
"","","","","","html-button-response","74","361353","0.0-74.0","D4DBA0000B9C4D8980E02F5238FBAC77","019ceffd-70b1-72d4-8eda-af19c65d73c8","019ceff9-9f67-7034-9722-02cda2445e09","","862","
                <div class=""stimulus-container"">
                    <img src=""images/causal_sequence/dog_causal/dog_causal_8.png"" class=""exp-image"">
                    <div class=""question-area"">
                        <p style=""font-size: 20px; font-weight: bold; margin: 0;"">Is there a person in this image?</p>
                    </div>
                </div>","0","main_experiment_trial","8","dog_causal","causal_sequence","","","","","","","","",""
"","","","","","html-keyboard-response","75","366355","0.0-75.0","D4DBA0000B9C4D8980E02F5238FBAC77","019ceffd-70b1-72d4-8eda-af19c65d73c8","019ceff9-9f67-7034-9722-02cda2445e09","","null","
                <div class=""stimulus-container"">
                    <img src=""images/causal_sequence/dog_causal/dog_causal_9.png"" class=""exp-image"">
                    <div class=""question-area""></div> 
                </div>","null","","","","","","","","","","","","",""
"","","","","","html-button-response","76","367058","0.0-76.0","D4DBA0000B9C4D8980E02F5238FBAC77","019ceffd-70b1-72d4-8eda-af19c65d73c8","019ceff9-9f67-7034-9722-02cda2445e09","","701","
                <div class=""stimulus-container"">
                    <img src=""images/causal_sequence/dog_causal/dog_causal_9.png"" class=""exp-image"">
                    <div class=""question-area"">
                        <p style=""font-size: 20px; font-weight: bold; margin: 0;"">Is there a person in this image?</p>
                    </div>
                </div>","0","main_experiment_trial","9","dog_causal","causal_sequence","","","","","","","","",""
"","","","","","html-keyboard-response","77","372063","0.0-77.0","D4DBA0000B9C4D8980E02F5238FBAC77","019ceffd-70b1-72d4-8eda-af19c65d73c8","019ceff9-9f67-7034-9722-02cda2445e09","","null","
                <div class=""stimulus-container"">
                    <img src=""images/causal_sequence/dog_causal/dog_causal_ten.png"" class=""exp-image"">
                    <div class=""question-area""></div> 
                </div>","null","","","","","","","","","","","","",""
"","","","","","html-button-response","78","372571","0.0-78.0","D4DBA0000B9C4D8980E02F5238FBAC77","019ceffd-70b1-72d4-8eda-af19c65d73c8","019ceff9-9f67-7034-9722-02cda2445e09","","505","
                <div class=""stimulus-container"">
                    <img src=""images/causal_sequence/dog_causal/dog_causal_ten.png"" class=""exp-image"">
                    <div class=""question-area"">
                        <p style=""font-size: 20px; font-weight: bold; margin: 0;"">Is there a person in this image?</p>
                    </div>
                </div>","0","main_experiment_trial","ten","dog_causal","causal_sequence","","","","","","","","",""
"","","","","","html-keyboard-response","79","373573","0.0-79.0","D4DBA0000B9C4D8980E02F5238FBAC77","019ceffd-70b1-72d4-8eda-af19c65d73c8","019ceff9-9f67-7034-9722-02cda2445e09","","null","<div style=""background-color: white; width: 100vw; height: 100vh;""></div>","null","","","","","","","","","","","","",""
"","","","","","html-keyboard-response","80","378576","0.0-80.0","D4DBA0000B9C4D8980E02F5238FBAC77","019ceffd-70b1-72d4-8eda-af19c65d73c8","019ceff9-9f67-7034-9722-02cda2445e09","","null","
                <div class=""stimulus-container"">
                    <img src=""images/schematic_sequence/interview_scheme/interview_scheme_1.png"" class=""exp-image"">
                    <div class=""question-area""></div> 
                </div>","null","","","","","","","","","","","","",""
"","","","","","html-button-response","81","379393","0.0-81.0","D4DBA0000B9C4D8980E02F5238FBAC77","019ceffd-70b1-72d4-8eda-af19c65d73c8","019ceff9-9f67-7034-9722-02cda2445e09","","815","
                <div class=""stimulus-container"">
                    <img src=""images/schematic_sequence/interview_scheme/interview_scheme_1.png"" class=""exp-image"">
                    <div class=""question-area"">
                        <p style=""font-size: 20px; font-weight: bold; margin: 0;"">Is there a person in this image?</p>
                    </div>
                </div>","1","main_experiment_trial","1","interview_scheme","schematic_sequence","","","","","","","","",""
"","","","","","html-keyboard-response","82","384395","0.0-82.0","D4DBA0000B9C4D8980E02F5238FBAC77","019ceffd-70b1-72d4-8eda-af19c65d73c8","019ceff9-9f67-7034-9722-02cda2445e09","","null","
                <div class=""stimulus-container"">
                    <img src=""images/schematic_sequence/interview_scheme/interview_scheme_2.png"" class=""exp-image"">
                    <div class=""question-area""></div> 
                </div>","null","","","","","","","","","","","","",""
"","","","","","html-button-response","83","385050","0.0-83.0","D4DBA0000B9C4D8980E02F5238FBAC77","019ceffd-70b1-72d4-8eda-af19c65d73c8","019ceff9-9f67-7034-9722-02cda2445e09","","653","
                <div class=""stimulus-container"">
                    <img src=""images/schematic_sequence/interview_scheme/interview_scheme_2.png"" class=""exp-image"">
                    <div class=""question-area"">
                        <p style=""font-size: 20px; font-weight: bold; margin: 0;"">Is there a person in this image?</p>
                    </div>
                </div>","1","main_experiment_trial","2","interview_scheme","schematic_sequence","","","","","","","","",""
"","","","","","html-keyboard-response","84","390053","0.0-84.0","D4DBA0000B9C4D8980E02F5238FBAC77","019ceffd-70b1-72d4-8eda-af19c65d73c8","019ceff9-9f67-7034-9722-02cda2445e09","","null","
                <div class=""stimulus-container"">
                    <img src=""images/schematic_sequence/interview_scheme/interview_scheme_3.png"" class=""exp-image"">
                    <div class=""question-area""></div> 
                </div>","null","","","","","","","","","","","","",""
"","","","","","html-button-response","85","390572","0.0-85.0","D4DBA0000B9C4D8980E02F5238FBAC77","019ceffd-70b1-72d4-8eda-af19c65d73c8","019ceff9-9f67-7034-9722-02cda2445e09","","516","
                <div class=""stimulus-container"">
                    <img src=""images/schematic_sequence/interview_scheme/interview_scheme_3.png"" class=""exp-image"">
                    <div class=""question-area"">
                        <p style=""font-size: 20px; font-weight: bold; margin: 0;"">Is there a person in this image?</p>
                    </div>
                </div>","1","main_experiment_trial","3","interview_scheme","schematic_sequence","","","","","","","","",""
"","","","","","html-keyboard-response","86","395576","0.0-86.0","D4DBA0000B9C4D8980E02F5238FBAC77","019ceffd-70b1-72d4-8eda-af19c65d73c8","019ceff9-9f67-7034-9722-02cda2445e09","","null","
                <div class=""stimulus-container"">
                    <img src=""images/schematic_sequence/interview_scheme/interview_scheme_4.png"" class=""exp-image"">
                    <div class=""question-area""></div> 
                </div>","null","","","","","","","","","","","","",""
"","","","","","html-button-response","87","397242","0.0-87.0","D4DBA0000B9C4D8980E02F5238FBAC77","019ceffd-70b1-72d4-8eda-af19c65d73c8","019ceff9-9f67-7034-9722-02cda2445e09","","1663","
                <div class=""stimulus-container"">
                    <img src=""images/schematic_sequence/interview_scheme/interview_scheme_4.png"" class=""exp-image"">
                    <div class=""question-area"">
                        <p style=""font-size: 20px; font-weight: bold; margin: 0;"">Is there a person in this image?</p>
                    </div>
                </div>","1","main_experiment_trial","4","interview_scheme","schematic_sequence","","","","","","","","",""
"","","","","","html-keyboard-response","88","402244","0.0-88.0","D4DBA0000B9C4D8980E02F5238FBAC77","019ceffd-70b1-72d4-8eda-af19c65d73c8","019ceff9-9f67-7034-9722-02cda2445e09","","null","
                <div class=""stimulus-container"">
                    <img src=""images/schematic_sequence/interview_scheme/interview_scheme_5.png"" class=""exp-image"">
                    <div class=""question-area""></div> 
                </div>","null","","","","","","","","","","","","",""
"","","","","","html-button-response","89","403108","0.0-89.0","D4DBA0000B9C4D8980E02F5238FBAC77","019ceffd-70b1-72d4-8eda-af19c65d73c8","019ceff9-9f67-7034-9722-02cda2445e09","","861","
                <div class=""stimulus-container"">
                    <img src=""images/schematic_sequence/interview_scheme/interview_scheme_5.png"" class=""exp-image"">
                    <div class=""question-area"">
                        <p style=""font-size: 20px; font-weight: bold; margin: 0;"">Is there a person in this image?</p>
                    </div>
                </div>","0","main_experiment_trial","5","interview_scheme","schematic_sequence","","","","","","","","",""
"","","","","","html-keyboard-response","90","408111","0.0-90.0","D4DBA0000B9C4D8980E02F5238FBAC77","019ceffd-70b1-72d4-8eda-af19c65d73c8","019ceff9-9f67-7034-9722-02cda2445e09","","null","
                <div class=""stimulus-container"">
                    <img src=""images/schematic_sequence/interview_scheme/interview_scheme_6.png"" class=""exp-image"">
                    <div class=""question-area""></div> 
                </div>","null","","","","","","","","","","","","",""
"","","","","","html-button-response","91","408866","0.0-91.0","D4DBA0000B9C4D8980E02F5238FBAC77","019ceffd-70b1-72d4-8eda-af19c65d73c8","019ceff9-9f67-7034-9722-02cda2445e09","","752","
                <div class=""stimulus-container"">
                    <img src=""images/schematic_sequence/interview_scheme/interview_scheme_6.png"" class=""exp-image"">
                    <div class=""question-area"">
                        <p style=""font-size: 20px; font-weight: bold; margin: 0;"">Is there a person in this image?</p>
                    </div>
                </div>","0","main_experiment_trial","6","interview_scheme","schematic_sequence","","","","","","","","",""
"","","","","","html-keyboard-response","92","413869","0.0-92.0","D4DBA0000B9C4D8980E02F5238FBAC77","019ceffd-70b1-72d4-8eda-af19c65d73c8","019ceff9-9f67-7034-9722-02cda2445e09","","null","
                <div class=""stimulus-container"">
                    <img src=""images/schematic_sequence/interview_scheme/interview_scheme_7.png"" class=""exp-image"">
                    <div class=""question-area""></div> 
                </div>","null","","","","","","","","","","","","",""
"","","","","","html-button-response","93","416871","0.0-93.0","D4DBA0000B9C4D8980E02F5238FBAC77","019ceffd-70b1-72d4-8eda-af19c65d73c8","019ceff9-9f67-7034-9722-02cda2445e09","","null","
                <div class=""stimulus-container"">
                    <img src=""images/schematic_sequence/interview_scheme/interview_scheme_7.png"" class=""exp-image"">
                    <div class=""question-area"">
                        <p style=""font-size: 20px; font-weight: bold; margin: 0;"">Is there a person in this image?</p>
                    </div>
                </div>","null","main_experiment_trial","7","interview_scheme","schematic_sequence","","","","","","","","",""
"","","","","","html-keyboard-response","94","421873","0.0-94.0","D4DBA0000B9C4D8980E02F5238FBAC77","019ceffd-70b1-72d4-8eda-af19c65d73c8","019ceff9-9f67-7034-9722-02cda2445e09","","null","
                <div class=""stimulus-container"">
                    <img src=""images/schematic_sequence/interview_scheme/interview_scheme_8.png"" class=""exp-image"">
                    <div class=""question-area""></div> 
                </div>","null","","","","","","","","","","","","",""
"","","","","","html-button-response","95","424090","0.0-95.0","D4DBA0000B9C4D8980E02F5238FBAC77","019ceffd-70b1-72d4-8eda-af19c65d73c8","019ceff9-9f67-7034-9722-02cda2445e09","","2213","
                <div class=""stimulus-container"">
                    <img src=""images/schematic_sequence/interview_scheme/interview_scheme_8.png"" class=""exp-image"">
                    <div class=""question-area"">
                        <p style=""font-size: 20px; font-weight: bold; margin: 0;"">Is there a person in this image?</p>
                    </div>
                </div>","0","main_experiment_trial","8","interview_scheme","schematic_sequence","","","","","","","","",""
"","","","","","html-keyboard-response","96","429092","0.0-96.0","D4DBA0000B9C4D8980E02F5238FBAC77","019ceffd-70b1-72d4-8eda-af19c65d73c8","019ceff9-9f67-7034-9722-02cda2445e09","","null","
                <div class=""stimulus-container"">
                    <img src=""images/schematic_sequence/interview_scheme/interview_scheme_9.png"" class=""exp-image"">
                    <div class=""question-area""></div> 
                </div>","null","","","","","","","","","","","","",""
"","","","","","html-button-response","97","429609","0.0-97.0","D4DBA0000B9C4D8980E02F5238FBAC77","019ceffd-70b1-72d4-8eda-af19c65d73c8","019ceff9-9f67-7034-9722-02cda2445e09","","514","
                <div class=""stimulus-container"">
                    <img src=""images/schematic_sequence/interview_scheme/interview_scheme_9.png"" class=""exp-image"">
                    <div class=""question-area"">
                        <p style=""font-size: 20px; font-weight: bold; margin: 0;"">Is there a person in this image?</p>
                    </div>
                </div>","0","main_experiment_trial","9","interview_scheme","schematic_sequence","","","","","","","","",""
"","","","","","html-keyboard-response","98","434612","0.0-98.0","D4DBA0000B9C4D8980E02F5238FBAC77","019ceffd-70b1-72d4-8eda-af19c65d73c8","019ceff9-9f67-7034-9722-02cda2445e09","","null","
                <div class=""stimulus-container"">
                    <img src=""images/schematic_sequence/interview_scheme/interview_scheme_ten.png"" class=""exp-image"">
                    <div class=""question-area""></div> 
                </div>","null","","","","","","","","","","","","",""
"","","","","","html-button-response","99","435114","0.0-99.0","D4DBA0000B9C4D8980E02F5238FBAC77","019ceffd-70b1-72d4-8eda-af19c65d73c8","019ceff9-9f67-7034-9722-02cda2445e09","","499","
                <div class=""stimulus-container"">
                    <img src=""images/schematic_sequence/interview_scheme/interview_scheme_ten.png"" class=""exp-image"">
                    <div class=""question-area"">
                        <p style=""font-size: 20px; font-weight: bold; margin: 0;"">Is there a person in this image?</p>
                    </div>
                </div>","0","main_experiment_trial","ten","interview_scheme","schematic_sequence","","","","","","","","",""
"","","","","","html-keyboard-response","100","436116","0.0-100.0","D4DBA0000B9C4D8980E02F5238FBAC77","019ceffd-70b1-72d4-8eda-af19c65d73c8","019ceff9-9f67-7034-9722-02cda2445e09","","null","<div style=""background-color: white; width: 100vw; height: 100vh;""></div>","null","","","","","","","","","","","","",""
"","","","","","html-keyboard-response","101","441118","0.0-101.0","D4DBA0000B9C4D8980E02F5238FBAC77","019ceffd-70b1-72d4-8eda-af19c65d73c8","019ceff9-9f67-7034-9722-02cda2445e09","","null","
                <div class=""stimulus-container"">
                    <img src=""images/causal_sequence/package_causal/package_causal_1.png"" class=""exp-image"">
                    <div class=""question-area""></div> 
                </div>","null","","","","","","","","","","","","",""
"","","","","","html-button-response","102","441783","0.0-102.0","D4DBA0000B9C4D8980E02F5238FBAC77","019ceffd-70b1-72d4-8eda-af19c65d73c8","019ceff9-9f67-7034-9722-02cda2445e09","","663","
                <div class=""stimulus-container"">
                    <img src=""images/causal_sequence/package_causal/package_causal_1.png"" class=""exp-image"">
                    <div class=""question-area"">
                        <p style=""font-size: 20px; font-weight: bold; margin: 0;"">Is there a person in this image?</p>
                    </div>
                </div>","0","main_experiment_trial","1","package_causal","causal_sequence","","","","","","","","",""
"","","","","","html-keyboard-response","103","446785","0.0-103.0","D4DBA0000B9C4D8980E02F5238FBAC77","019ceffd-70b1-72d4-8eda-af19c65d73c8","019ceff9-9f67-7034-9722-02cda2445e09","","null","
                <div class=""stimulus-container"">
                    <img src=""images/causal_sequence/package_causal/package_causal_2.png"" class=""exp-image"">
                    <div class=""question-area""></div> 
                </div>","null","","","","","","","","","","","","",""
"","","","","","html-button-response","104","447663","0.0-104.0","D4DBA0000B9C4D8980E02F5238FBAC77","019ceffd-70b1-72d4-8eda-af19c65d73c8","019ceff9-9f67-7034-9722-02cda2445e09","","875","
                <div class=""stimulus-container"">
                    <img src=""images/causal_sequence/package_causal/package_causal_2.png"" class=""exp-image"">
                    <div class=""question-area"">
                        <p style=""font-size: 20px; font-weight: bold; margin: 0;"">Is there a person in this image?</p>
                    </div>
                </div>","0","main_experiment_trial","2","package_causal","causal_sequence","","","","","","","","",""
"","","","","","html-keyboard-response","105","452665","0.0-105.0","D4DBA0000B9C4D8980E02F5238FBAC77","019ceffd-70b1-72d4-8eda-af19c65d73c8","019ceff9-9f67-7034-9722-02cda2445e09","","null","
                <div class=""stimulus-container"">
                    <img src=""images/causal_sequence/package_causal/package_causal_3.png"" class=""exp-image"">
                    <div class=""question-area""></div> 
                </div>","null","","","","","","","","","","","","",""
"","","","","","html-button-response","106","453392","0.0-106.0","D4DBA0000B9C4D8980E02F5238FBAC77","019ceffd-70b1-72d4-8eda-af19c65d73c8","019ceff9-9f67-7034-9722-02cda2445e09","","725","
                <div class=""stimulus-container"">
                    <img src=""images/causal_sequence/package_causal/package_causal_3.png"" class=""exp-image"">
                    <div class=""question-area"">
                        <p style=""font-size: 20px; font-weight: bold; margin: 0;"">Is there a person in this image?</p>
                    </div>
                </div>","0","main_experiment_trial","3","package_causal","causal_sequence","","","","","","","","",""
"","","","","","html-keyboard-response","107","458394","0.0-107.0","D4DBA0000B9C4D8980E02F5238FBAC77","019ceffd-70b1-72d4-8eda-af19c65d73c8","019ceff9-9f67-7034-9722-02cda2445e09","","null","
                <div class=""stimulus-container"">
                    <img src=""images/causal_sequence/package_causal/package_causal_4.png"" class=""exp-image"">
                    <div class=""question-area""></div> 
                </div>","null","","","","","","","","","","","","",""
"","","","","","html-button-response","108","459284","0.0-108.0","D4DBA0000B9C4D8980E02F5238FBAC77","019ceffd-70b1-72d4-8eda-af19c65d73c8","019ceff9-9f67-7034-9722-02cda2445e09","","887","
                <div class=""stimulus-container"">
                    <img src=""images/causal_sequence/package_causal/package_causal_4.png"" class=""exp-image"">
                    <div class=""question-area"">
                        <p style=""font-size: 20px; font-weight: bold; margin: 0;"">Is there a person in this image?</p>
                    </div>
                </div>","1","main_experiment_trial","4","package_causal","causal_sequence","","","","","","","","",""
"","","","","","html-keyboard-response","109","464288","0.0-109.0","D4DBA0000B9C4D8980E02F5238FBAC77","019ceffd-70b1-72d4-8eda-af19c65d73c8","019ceff9-9f67-7034-9722-02cda2445e09","","null","
                <div class=""stimulus-container"">
                    <img src=""images/causal_sequence/package_causal/package_causal_5.png"" class=""exp-image"">
                    <div class=""question-area""></div> 
                </div>","null","","","","","","","","","","","","",""
"","","","","","html-button-response","110","464856","0.0-110.0","D4DBA0000B9C4D8980E02F5238FBAC77","019ceffd-70b1-72d4-8eda-af19c65d73c8","019ceff9-9f67-7034-9722-02cda2445e09","","565","
                <div class=""stimulus-container"">
                    <img src=""images/causal_sequence/package_causal/package_causal_5.png"" class=""exp-image"">
                    <div class=""question-area"">
                        <p style=""font-size: 20px; font-weight: bold; margin: 0;"">Is there a person in this image?</p>
                    </div>
                </div>","0","main_experiment_trial","5","package_causal","causal_sequence","","","","","","","","",""
"","","","","","html-keyboard-response","111","469858","0.0-111.0","D4DBA0000B9C4D8980E02F5238FBAC77","019ceffd-70b1-72d4-8eda-af19c65d73c8","019ceff9-9f67-7034-9722-02cda2445e09","","null","
                <div class=""stimulus-container"">
                    <img src=""images/causal_sequence/package_causal/package_causal_6.png"" class=""exp-image"">
                    <div class=""question-area""></div> 
                </div>","null","","","","","","","","","","","","",""
"","","","","","html-button-response","112","470692","0.0-112.0","D4DBA0000B9C4D8980E02F5238FBAC77","019ceffd-70b1-72d4-8eda-af19c65d73c8","019ceff9-9f67-7034-9722-02cda2445e09","","829","
                <div class=""stimulus-container"">
                    <img src=""images/causal_sequence/package_causal/package_causal_6.png"" class=""exp-image"">
                    <div class=""question-area"">
                        <p style=""font-size: 20px; font-weight: bold; margin: 0;"">Is there a person in this image?</p>
                    </div>
                </div>","0","main_experiment_trial","6","package_causal","causal_sequence","","","","","","","","",""
"","","","","","html-keyboard-response","113","475695","0.0-113.0","D4DBA0000B9C4D8980E02F5238FBAC77","019ceffd-70b1-72d4-8eda-af19c65d73c8","019ceff9-9f67-7034-9722-02cda2445e09","","null","
                <div class=""stimulus-container"">
                    <img src=""images/causal_sequence/package_causal/package_causal_7.png"" class=""exp-image"">
                    <div class=""question-area""></div> 
                </div>","null","","","","","","","","","","","","",""
"","","","","","html-button-response","114","477594","0.0-114.0","D4DBA0000B9C4D8980E02F5238FBAC77","019ceffd-70b1-72d4-8eda-af19c65d73c8","019ceff9-9f67-7034-9722-02cda2445e09","","1895","
                <div class=""stimulus-container"">
                    <img src=""images/causal_sequence/package_causal/package_causal_7.png"" class=""exp-image"">
                    <div class=""question-area"">
                        <p style=""font-size: 20px; font-weight: bold; margin: 0;"">Is there a person in this image?</p>
                    </div>
                </div>","0","main_experiment_trial","7","package_causal","causal_sequence","","","","","","","","",""
"","","","","","html-keyboard-response","115","482597","0.0-115.0","D4DBA0000B9C4D8980E02F5238FBAC77","019ceffd-70b1-72d4-8eda-af19c65d73c8","019ceff9-9f67-7034-9722-02cda2445e09","","null","
                <div class=""stimulus-container"">
                    <img src=""images/causal_sequence/package_causal/package_causal_8.png"" class=""exp-image"">
                    <div class=""question-area""></div> 
                </div>","null","","","","","","","","","","","","",""
"","","","","","html-button-response","116","483617","0.0-116.0","D4DBA0000B9C4D8980E02F5238FBAC77","019ceffd-70b1-72d4-8eda-af19c65d73c8","019ceff9-9f67-7034-9722-02cda2445e09","","1016","
                <div class=""stimulus-container"">
                    <img src=""images/causal_sequence/package_causal/package_causal_8.png"" class=""exp-image"">
                    <div class=""question-area"">
                        <p style=""font-size: 20px; font-weight: bold; margin: 0;"">Is there a person in this image?</p>
                    </div>
                </div>","0","main_experiment_trial","8","package_causal","causal_sequence","","","","","","","","",""
"","","","","","html-keyboard-response","117","488621","0.0-117.0","D4DBA0000B9C4D8980E02F5238FBAC77","019ceffd-70b1-72d4-8eda-af19c65d73c8","019ceff9-9f67-7034-9722-02cda2445e09","","null","
                <div class=""stimulus-container"">
                    <img src=""images/causal_sequence/package_causal/package_causal_9.png"" class=""exp-image"">
                    <div class=""question-area""></div> 
                </div>","null","","","","","","","","","","","","",""
"","","","","","html-button-response","118","489315","0.0-118.0","D4DBA0000B9C4D8980E02F5238FBAC77","019ceffd-70b1-72d4-8eda-af19c65d73c8","019ceff9-9f67-7034-9722-02cda2445e09","","691","
                <div class=""stimulus-container"">
                    <img src=""images/causal_sequence/package_causal/package_causal_9.png"" class=""exp-image"">
                    <div class=""question-area"">
                        <p style=""font-size: 20px; font-weight: bold; margin: 0;"">Is there a person in this image?</p>
                    </div>
                </div>","0","main_experiment_trial","9","package_causal","causal_sequence","","","","","","","","",""
"","","","","","html-keyboard-response","119","494318","0.0-119.0","D4DBA0000B9C4D8980E02F5238FBAC77","019ceffd-70b1-72d4-8eda-af19c65d73c8","019ceff9-9f67-7034-9722-02cda2445e09","","null","
                <div class=""stimulus-container"">
                    <img src=""images/causal_sequence/package_causal/package_causal_ten.png"" class=""exp-image"">
                    <div class=""question-area""></div> 
                </div>","null","","","","","","","","","","","","",""
"","","","","","html-button-response","120","494826","0.0-120.0","D4DBA0000B9C4D8980E02F5238FBAC77","019ceffd-70b1-72d4-8eda-af19c65d73c8","019ceff9-9f67-7034-9722-02cda2445e09","","504","
                <div class=""stimulus-container"">
                    <img src=""images/causal_sequence/package_causal/package_causal_ten.png"" class=""exp-image"">
                    <div class=""question-area"">
                        <p style=""font-size: 20px; font-weight: bold; margin: 0;"">Is there a person in this image?</p>
                    </div>
                </div>","0","main_experiment_trial","ten","package_causal","causal_sequence","","","","","","","","",""
"","","","","","html-keyboard-response","121","495829","0.0-121.0","D4DBA0000B9C4D8980E02F5238FBAC77","019ceffd-70b1-72d4-8eda-af19c65d73c8","019ceff9-9f67-7034-9722-02cda2445e09","","null","<div style=""background-color: white; width: 100vw; height: 100vh;""></div>","null","","","","","","","","","","","","",""
"","","","","","html-keyboard-response","122","500832","0.0-122.0","D4DBA0000B9C4D8980E02F5238FBAC77","019ceffd-70b1-72d4-8eda-af19c65d73c8","019ceff9-9f67-7034-9722-02cda2445e09","","null","
                <div class=""stimulus-container"">
                    <img src=""images/causal_sequence/the_performance_causal/the_performance_causal_1.png"" class=""exp-image"">
                    <div class=""question-area""></div> 
                </div>","null","","","","","","","","","","","","",""
"","","","","","html-button-response","123","501429","0.0-123.0","D4DBA0000B9C4D8980E02F5238FBAC77","019ceffd-70b1-72d4-8eda-af19c65d73c8","019ceff9-9f67-7034-9722-02cda2445e09","","594","
                <div class=""stimulus-container"">
                    <img src=""images/causal_sequence/the_performance_causal/the_performance_causal_1.png"" class=""exp-image"">
                    <div class=""question-area"">
                        <p style=""font-size: 20px; font-weight: bold; margin: 0;"">Is there a person in this image?</p>
                    </div>
                </div>","0","main_experiment_trial","1","the_performance_causal","causal_sequence","","","","","","","","",""
"","","","","","html-keyboard-response","124","506433","0.0-124.0","D4DBA0000B9C4D8980E02F5238FBAC77","019ceffd-70b1-72d4-8eda-af19c65d73c8","019ceff9-9f67-7034-9722-02cda2445e09","","null","
                <div class=""stimulus-container"">
                    <img src=""images/causal_sequence/the_performance_causal/the_performance_causal_2.png"" class=""exp-image"">
                    <div class=""question-area""></div> 
                </div>","null","","","","","","","","","","","","",""
"","","","","","html-button-response","125","506905","0.0-125.0","D4DBA0000B9C4D8980E02F5238FBAC77","019ceffd-70b1-72d4-8eda-af19c65d73c8","019ceff9-9f67-7034-9722-02cda2445e09","","469","
                <div class=""stimulus-container"">
                    <img src=""images/causal_sequence/the_performance_causal/the_performance_causal_2.png"" class=""exp-image"">
                    <div class=""question-area"">
                        <p style=""font-size: 20px; font-weight: bold; margin: 0;"">Is there a person in this image?</p>
                    </div>
                </div>","0","main_experiment_trial","2","the_performance_causal","causal_sequence","","","","","","","","",""
"","","","","","html-keyboard-response","126","511908","0.0-126.0","D4DBA0000B9C4D8980E02F5238FBAC77","019ceffd-70b1-72d4-8eda-af19c65d73c8","019ceff9-9f67-7034-9722-02cda2445e09","","null","
                <div class=""stimulus-container"">
                    <img src=""images/causal_sequence/the_performance_causal/the_performance_causal_3.png"" class=""exp-image"">
                    <div class=""question-area""></div> 
                </div>","null","","","","","","","","","","","","",""
"","","","","","html-button-response","127","512386","0.0-127.0","D4DBA0000B9C4D8980E02F5238FBAC77","019ceffd-70b1-72d4-8eda-af19c65d73c8","019ceff9-9f67-7034-9722-02cda2445e09","","475","
                <div class=""stimulus-container"">
                    <img src=""images/causal_sequence/the_performance_causal/the_performance_causal_3.png"" class=""exp-image"">
                    <div class=""question-area"">
                        <p style=""font-size: 20px; font-weight: bold; margin: 0;"">Is there a person in this image?</p>
                    </div>
                </div>","0","main_experiment_trial","3","the_performance_causal","causal_sequence","","","","","","","","",""
"","","","","","html-keyboard-response","128","517389","0.0-128.0","D4DBA0000B9C4D8980E02F5238FBAC77","019ceffd-70b1-72d4-8eda-af19c65d73c8","019ceff9-9f67-7034-9722-02cda2445e09","","null","
                <div class=""stimulus-container"">
                    <img src=""images/causal_sequence/the_performance_causal/the_performance_causal_4.png"" class=""exp-image"">
                    <div class=""question-area""></div> 
                </div>","null","","","","","","","","","","","","",""
"","","","","","html-button-response","129","518014","0.0-129.0","D4DBA0000B9C4D8980E02F5238FBAC77","019ceffd-70b1-72d4-8eda-af19c65d73c8","019ceff9-9f67-7034-9722-02cda2445e09","","622","
                <div class=""stimulus-container"">
                    <img src=""images/causal_sequence/the_performance_causal/the_performance_causal_4.png"" class=""exp-image"">
                    <div class=""question-area"">
                        <p style=""font-size: 20px; font-weight: bold; margin: 0;"">Is there a person in this image?</p>
                    </div>
                </div>","0","main_experiment_trial","4","the_performance_causal","causal_sequence","","","","","","","","",""
"","","","","","html-keyboard-response","130","523017","0.0-130.0","D4DBA0000B9C4D8980E02F5238FBAC77","019ceffd-70b1-72d4-8eda-af19c65d73c8","019ceff9-9f67-7034-9722-02cda2445e09","","null","
                <div class=""stimulus-container"">
                    <img src=""images/causal_sequence/the_performance_causal/the_performance_causal_5.png"" class=""exp-image"">
                    <div class=""question-area""></div> 
                </div>","null","","","","","","","","","","","","",""
"","","","","","html-button-response","131","526020","0.0-131.0","D4DBA0000B9C4D8980E02F5238FBAC77","019ceffd-70b1-72d4-8eda-af19c65d73c8","019ceff9-9f67-7034-9722-02cda2445e09","","null","
                <div class=""stimulus-container"">
                    <img src=""images/causal_sequence/the_performance_causal/the_performance_causal_5.png"" class=""exp-image"">
                    <div class=""question-area"">
                        <p style=""font-size: 20px; font-weight: bold; margin: 0;"">Is there a person in this image?</p>
                    </div>
                </div>","null","main_experiment_trial","5","the_performance_causal","causal_sequence","","","","","","","","",""
"","","","","","html-keyboard-response","132","531022","0.0-132.0","D4DBA0000B9C4D8980E02F5238FBAC77","019ceffd-70b1-72d4-8eda-af19c65d73c8","019ceff9-9f67-7034-9722-02cda2445e09","","null","
                <div class=""stimulus-container"">
                    <img src=""images/causal_sequence/the_performance_causal/the_performance_causal_6.png"" class=""exp-image"">
                    <div class=""question-area""></div> 
                </div>","null","","","","","","","","","","","","",""
"","","","","","html-button-response","133","534025","0.0-133.0","D4DBA0000B9C4D8980E02F5238FBAC77","019ceffd-70b1-72d4-8eda-af19c65d73c8","019ceff9-9f67-7034-9722-02cda2445e09","","null","
                <div class=""stimulus-container"">
                    <img src=""images/causal_sequence/the_performance_causal/the_performance_causal_6.png"" class=""exp-image"">
                    <div class=""question-area"">
                        <p style=""font-size: 20px; font-weight: bold; margin: 0;"">Is there a person in this image?</p>
                    </div>
                </div>","null","main_experiment_trial","6","the_performance_causal","causal_sequence","","","","","","","","",""
"","","","","","html-keyboard-response","134","539028","0.0-134.0","D4DBA0000B9C4D8980E02F5238FBAC77","019ceffd-70b1-72d4-8eda-af19c65d73c8","019ceff9-9f67-7034-9722-02cda2445e09","","null","
                <div class=""stimulus-container"">
                    <img src=""images/causal_sequence/the_performance_causal/the_performance_causal_7.png"" class=""exp-image"">
                    <div class=""question-area""></div> 
                </div>","null","","","","","","","","","","","","",""
"","","","","","html-button-response","135","539817","0.0-135.0","D4DBA0000B9C4D8980E02F5238FBAC77","019ceffd-70b1-72d4-8eda-af19c65d73c8","019ceff9-9f67-7034-9722-02cda2445e09","","786","
                <div class=""stimulus-container"">
                    <img src=""images/causal_sequence/the_performance_causal/the_performance_causal_7.png"" class=""exp-image"">
                    <div class=""question-area"">
                        <p style=""font-size: 20px; font-weight: bold; margin: 0;"">Is there a person in this image?</p>
                    </div>
                </div>","0","main_experiment_trial","7","the_performance_causal","causal_sequence","","","","","","","","",""
"","","","","","html-keyboard-response","136","544820","0.0-136.0","D4DBA0000B9C4D8980E02F5238FBAC77","019ceffd-70b1-72d4-8eda-af19c65d73c8","019ceff9-9f67-7034-9722-02cda2445e09","","null","
                <div class=""stimulus-container"">
                    <img src=""images/causal_sequence/the_performance_causal/the_performance_causal_8.png"" class=""exp-image"">
                    <div class=""question-area""></div> 
                </div>","null","","","","","","","","","","","","",""
"","","","","","html-button-response","137","545374","0.0-137.0","D4DBA0000B9C4D8980E02F5238FBAC77","019ceffd-70b1-72d4-8eda-af19c65d73c8","019ceff9-9f67-7034-9722-02cda2445e09","","551","
                <div class=""stimulus-container"">
                    <img src=""images/causal_sequence/the_performance_causal/the_performance_causal_8.png"" class=""exp-image"">
                    <div class=""question-area"">
                        <p style=""font-size: 20px; font-weight: bold; margin: 0;"">Is there a person in this image?</p>
                    </div>
                </div>","0","main_experiment_trial","8","the_performance_causal","causal_sequence","","","","","","","","",""
"","","","","","html-keyboard-response","138","550378","0.0-138.0","D4DBA0000B9C4D8980E02F5238FBAC77","019ceffd-70b1-72d4-8eda-af19c65d73c8","019ceff9-9f67-7034-9722-02cda2445e09","","null","
                <div class=""stimulus-container"">
                    <img src=""images/causal_sequence/the_performance_causal/the_performance_causal_9.png"" class=""exp-image"">
                    <div class=""question-area""></div> 
                </div>","null","","","","","","","","","","","","",""
"","","","","","html-button-response","139","550879","0.0-139.0","D4DBA0000B9C4D8980E02F5238FBAC77","019ceffd-70b1-72d4-8eda-af19c65d73c8","019ceff9-9f67-7034-9722-02cda2445e09","","498","
                <div class=""stimulus-container"">
                    <img src=""images/causal_sequence/the_performance_causal/the_performance_causal_9.png"" class=""exp-image"">
                    <div class=""question-area"">
                        <p style=""font-size: 20px; font-weight: bold; margin: 0;"">Is there a person in this image?</p>
                    </div>
                </div>","0","main_experiment_trial","9","the_performance_causal","causal_sequence","","","","","","","","",""
"","","","","","html-keyboard-response","140","555883","0.0-140.0","D4DBA0000B9C4D8980E02F5238FBAC77","019ceffd-70b1-72d4-8eda-af19c65d73c8","019ceff9-9f67-7034-9722-02cda2445e09","","null","
                <div class=""stimulus-container"">
                    <img src=""images/causal_sequence/the_performance_causal/the_performance_causal_ten.png"" class=""exp-image"">
                    <div class=""question-area""></div> 
                </div>","null","","","","","","","","","","","","",""
"","","","","","html-button-response","141","556367","0.0-141.0","D4DBA0000B9C4D8980E02F5238FBAC77","019ceffd-70b1-72d4-8eda-af19c65d73c8","019ceff9-9f67-7034-9722-02cda2445e09","","479","
                <div class=""stimulus-container"">
                    <img src=""images/causal_sequence/the_performance_causal/the_performance_causal_ten.png"" class=""exp-image"">
                    <div class=""question-area"">
                        <p style=""font-size: 20px; font-weight: bold; margin: 0;"">Is there a person in this image?</p>
                    </div>
                </div>","0","main_experiment_trial","ten","the_performance_causal","causal_sequence","","","","","","","","",""
"","","","","","html-keyboard-response","142","557370","0.0-142.0","D4DBA0000B9C4D8980E02F5238FBAC77","019ceffd-70b1-72d4-8eda-af19c65d73c8","019ceff9-9f67-7034-9722-02cda2445e09","","null","<div style=""background-color: white; width: 100vw; height: 100vh;""></div>","null","","","","","","","","","","","","",""
"","","","","","html-keyboard-response","143","562373","0.0-143.0","D4DBA0000B9C4D8980E02F5238FBAC77","019ceffd-70b1-72d4-8eda-af19c65d73c8","019ceff9-9f67-7034-9722-02cda2445e09","","null","
                <div class=""stimulus-container"">
                    <img src=""images/schematic_sequence/dinner_party_scheme/dinner_party_scheme_1.png"" class=""exp-image"">
                    <div class=""question-area""></div> 
                </div>","null","","","","","","","","","","","","",""
"","","","","","html-button-response","144","563162","0.0-144.0","D4DBA0000B9C4D8980E02F5238FBAC77","019ceffd-70b1-72d4-8eda-af19c65d73c8","019ceff9-9f67-7034-9722-02cda2445e09","","787","
                <div class=""stimulus-container"">
                    <img src=""images/schematic_sequence/dinner_party_scheme/dinner_party_scheme_1.png"" class=""exp-image"">
                    <div class=""question-area"">
                        <p style=""font-size: 20px; font-weight: bold; margin: 0;"">Is there a person in this image?</p>
                    </div>
                </div>","1","main_experiment_trial","1","dinner_party_scheme","schematic_sequence","","","","","","","","",""
"","","","","","html-keyboard-response","145","568164","0.0-145.0","D4DBA0000B9C4D8980E02F5238FBAC77","019ceffd-70b1-72d4-8eda-af19c65d73c8","019ceff9-9f67-7034-9722-02cda2445e09","","null","
                <div class=""stimulus-container"">
                    <img src=""images/schematic_sequence/dinner_party_scheme/dinner_party_scheme_2.png"" class=""exp-image"">
                    <div class=""question-area""></div> 
                </div>","null","","","","","","","","","","","","",""
"","","","","","html-button-response","146","569013","0.0-146.0","D4DBA0000B9C4D8980E02F5238FBAC77","019ceffd-70b1-72d4-8eda-af19c65d73c8","019ceff9-9f67-7034-9722-02cda2445e09","","846","
                <div class=""stimulus-container"">
                    <img src=""images/schematic_sequence/dinner_party_scheme/dinner_party_scheme_2.png"" class=""exp-image"">
                    <div class=""question-area"">
                        <p style=""font-size: 20px; font-weight: bold; margin: 0;"">Is there a person in this image?</p>
                    </div>
                </div>","1","main_experiment_trial","2","dinner_party_scheme","schematic_sequence","","","","","","","","",""
"","","","","","html-keyboard-response","147","574021","0.0-147.0","D4DBA0000B9C4D8980E02F5238FBAC77","019ceffd-70b1-72d4-8eda-af19c65d73c8","019ceff9-9f67-7034-9722-02cda2445e09","","null","
                <div class=""stimulus-container"">
                    <img src=""images/schematic_sequence/dinner_party_scheme/dinner_party_scheme_3.png"" class=""exp-image"">
                    <div class=""question-area""></div> 
                </div>","null","","","","","","","","","","","","",""
"","","","","","html-button-response","148","574663","0.0-148.0","D4DBA0000B9C4D8980E02F5238FBAC77","019ceffd-70b1-72d4-8eda-af19c65d73c8","019ceff9-9f67-7034-9722-02cda2445e09","","639","
                <div class=""stimulus-container"">
                    <img src=""images/schematic_sequence/dinner_party_scheme/dinner_party_scheme_3.png"" class=""exp-image"">
                    <div class=""question-area"">
                        <p style=""font-size: 20px; font-weight: bold; margin: 0;"">Is there a person in this image?</p>
                    </div>
                </div>","0","main_experiment_trial","3","dinner_party_scheme","schematic_sequence","","","","","","","","",""
"","","","","","html-keyboard-response","149","579665","0.0-149.0","D4DBA0000B9C4D8980E02F5238FBAC77","019ceffd-70b1-72d4-8eda-af19c65d73c8","019ceff9-9f67-7034-9722-02cda2445e09","","null","
                <div class=""stimulus-container"">
                    <img src=""images/schematic_sequence/dinner_party_scheme/dinner_party_scheme_4.png"" class=""exp-image"">
                    <div class=""question-area""></div> 
                </div>","null","","","","","","","","","","","","",""
"","","","","","html-button-response","150","580287","0.0-150.0","D4DBA0000B9C4D8980E02F5238FBAC77","019ceffd-70b1-72d4-8eda-af19c65d73c8","019ceff9-9f67-7034-9722-02cda2445e09","","619","
                <div class=""stimulus-container"">
                    <img src=""images/schematic_sequence/dinner_party_scheme/dinner_party_scheme_4.png"" class=""exp-image"">
                    <div class=""question-area"">
                        <p style=""font-size: 20px; font-weight: bold; margin: 0;"">Is there a person in this image?</p>
                    </div>
                </div>","0","main_experiment_trial","4","dinner_party_scheme","schematic_sequence","","","","","","","","",""
"","","","","","html-keyboard-response","151","585290","0.0-151.0","D4DBA0000B9C4D8980E02F5238FBAC77","019ceffd-70b1-72d4-8eda-af19c65d73c8","019ceff9-9f67-7034-9722-02cda2445e09","","null","
                <div class=""stimulus-container"">
                    <img src=""images/schematic_sequence/dinner_party_scheme/dinner_party_scheme_5.png"" class=""exp-image"">
                    <div class=""question-area""></div> 
                </div>","null","","","","","","","","","","","","",""
"","","","","","html-button-response","152","586058","0.0-152.0","D4DBA0000B9C4D8980E02F5238FBAC77","019ceffd-70b1-72d4-8eda-af19c65d73c8","019ceff9-9f67-7034-9722-02cda2445e09","","765","
                <div class=""stimulus-container"">
                    <img src=""images/schematic_sequence/dinner_party_scheme/dinner_party_scheme_5.png"" class=""exp-image"">
                    <div class=""question-area"">
                        <p style=""font-size: 20px; font-weight: bold; margin: 0;"">Is there a person in this image?</p>
                    </div>
                </div>","1","main_experiment_trial","5","dinner_party_scheme","schematic_sequence","","","","","","","","",""
"","","","","","html-keyboard-response","153","591062","0.0-153.0","D4DBA0000B9C4D8980E02F5238FBAC77","019ceffd-70b1-72d4-8eda-af19c65d73c8","019ceff9-9f67-7034-9722-02cda2445e09","","null","
                <div class=""stimulus-container"">
                    <img src=""images/schematic_sequence/dinner_party_scheme/dinner_party_scheme_6.png"" class=""exp-image"">
                    <div class=""question-area""></div> 
                </div>","null","","","","","","","","","","","","",""
"","","","","","html-button-response","154","591743","0.0-154.0","D4DBA0000B9C4D8980E02F5238FBAC77","019ceffd-70b1-72d4-8eda-af19c65d73c8","019ceff9-9f67-7034-9722-02cda2445e09","","678","
                <div class=""stimulus-container"">
                    <img src=""images/schematic_sequence/dinner_party_scheme/dinner_party_scheme_6.png"" class=""exp-image"">
                    <div class=""question-area"">
                        <p style=""font-size: 20px; font-weight: bold; margin: 0;"">Is there a person in this image?</p>
                    </div>
                </div>","0","main_experiment_trial","6","dinner_party_scheme","schematic_sequence","","","","","","","","",""
"","","","","","html-keyboard-response","155","596746","0.0-155.0","D4DBA0000B9C4D8980E02F5238FBAC77","019ceffd-70b1-72d4-8eda-af19c65d73c8","019ceff9-9f67-7034-9722-02cda2445e09","","null","
                <div class=""stimulus-container"">
                    <img src=""images/schematic_sequence/dinner_party_scheme/dinner_party_scheme_7.png"" class=""exp-image"">
                    <div class=""question-area""></div> 
                </div>","null","","","","","","","","","","","","",""
"","","","","","html-button-response","156","597154","0.0-156.0","D4DBA0000B9C4D8980E02F5238FBAC77","019ceffd-70b1-72d4-8eda-af19c65d73c8","019ceff9-9f67-7034-9722-02cda2445e09","","405","
                <div class=""stimulus-container"">
                    <img src=""images/schematic_sequence/dinner_party_scheme/dinner_party_scheme_7.png"" class=""exp-image"">
                    <div class=""question-area"">
                        <p style=""font-size: 20px; font-weight: bold; margin: 0;"">Is there a person in this image?</p>
                    </div>
                </div>","0","main_experiment_trial","7","dinner_party_scheme","schematic_sequence","","","","","","","","",""
"","","","","","html-keyboard-response","157","602157","0.0-157.0","D4DBA0000B9C4D8980E02F5238FBAC77","019ceffd-70b1-72d4-8eda-af19c65d73c8","019ceff9-9f67-7034-9722-02cda2445e09","","null","
                <div class=""stimulus-container"">
                    <img src=""images/schematic_sequence/dinner_party_scheme/dinner_party_scheme_8.png"" class=""exp-image"">
                    <div class=""question-area""></div> 
                </div>","null","","","","","","","","","","","","",""
"","","","","","html-button-response","158","602595","0.0-158.0","D4DBA0000B9C4D8980E02F5238FBAC77","019ceffd-70b1-72d4-8eda-af19c65d73c8","019ceff9-9f67-7034-9722-02cda2445e09","","434","
                <div class=""stimulus-container"">
                    <img src=""images/schematic_sequence/dinner_party_scheme/dinner_party_scheme_8.png"" class=""exp-image"">
                    <div class=""question-area"">
                        <p style=""font-size: 20px; font-weight: bold; margin: 0;"">Is there a person in this image?</p>
                    </div>
                </div>","0","main_experiment_trial","8","dinner_party_scheme","schematic_sequence","","","","","","","","",""
"","","","","","html-keyboard-response","159","607598","0.0-159.0","D4DBA0000B9C4D8980E02F5238FBAC77","019ceffd-70b1-72d4-8eda-af19c65d73c8","019ceff9-9f67-7034-9722-02cda2445e09","","null","
                <div class=""stimulus-container"">
                    <img src=""images/schematic_sequence/dinner_party_scheme/dinner_party_scheme_9.png"" class=""exp-image"">
                    <div class=""question-area""></div> 
                </div>","null","","","","","","","","","","","","",""
"","","","","","html-button-response","160","608221","0.0-160.0","D4DBA0000B9C4D8980E02F5238FBAC77","019ceffd-70b1-72d4-8eda-af19c65d73c8","019ceff9-9f67-7034-9722-02cda2445e09","","620","
                <div class=""stimulus-container"">
                    <img src=""images/schematic_sequence/dinner_party_scheme/dinner_party_scheme_9.png"" class=""exp-image"">
                    <div class=""question-area"">
                        <p style=""font-size: 20px; font-weight: bold; margin: 0;"">Is there a person in this image?</p>
                    </div>
                </div>","0","main_experiment_trial","9","dinner_party_scheme","schematic_sequence","","","","","","","","",""
"","","","","","html-keyboard-response","161","613225","0.0-161.0","D4DBA0000B9C4D8980E02F5238FBAC77","019ceffd-70b1-72d4-8eda-af19c65d73c8","019ceff9-9f67-7034-9722-02cda2445e09","","null","
                <div class=""stimulus-container"">
                    <img src=""images/schematic_sequence/dinner_party_scheme/dinner_party_scheme_ten.png"" class=""exp-image"">
                    <div class=""question-area""></div> 
                </div>","null","","","","","","","","","","","","",""
"","","","","","html-button-response","162","614846","0.0-162.0","D4DBA0000B9C4D8980E02F5238FBAC77","019ceffd-70b1-72d4-8eda-af19c65d73c8","019ceff9-9f67-7034-9722-02cda2445e09","","1618","
                <div class=""stimulus-container"">
                    <img src=""images/schematic_sequence/dinner_party_scheme/dinner_party_scheme_ten.png"" class=""exp-image"">
                    <div class=""question-area"">
                        <p style=""font-size: 20px; font-weight: bold; margin: 0;"">Is there a person in this image?</p>
                    </div>
                </div>","0","main_experiment_trial","ten","dinner_party_scheme","schematic_sequence","","","","","","","","",""
"","","","","","html-keyboard-response","163","615849","0.0-163.0","D4DBA0000B9C4D8980E02F5238FBAC77","019ceffd-70b1-72d4-8eda-af19c65d73c8","019ceff9-9f67-7034-9722-02cda2445e09","","null","<div style=""background-color: white; width: 100vw; height: 100vh;""></div>","null","","","","","","","","","","","","",""
"","","","","","html-keyboard-response","164","620850","0.0-164.0","D4DBA0000B9C4D8980E02F5238FBAC77","019ceffd-70b1-72d4-8eda-af19c65d73c8","019ceff9-9f67-7034-9722-02cda2445e09","","null","
                <div class=""stimulus-container"">
                    <img src=""images/schematic_sequence/flight_scheme/flight_scheme_1.png"" class=""exp-image"">
                    <div class=""question-area""></div> 
                </div>","null","","","","","","","","","","","","",""
"","","","","","html-button-response","165","621611","0.0-165.0","D4DBA0000B9C4D8980E02F5238FBAC77","019ceffd-70b1-72d4-8eda-af19c65d73c8","019ceff9-9f67-7034-9722-02cda2445e09","","758","
                <div class=""stimulus-container"">
                    <img src=""images/schematic_sequence/flight_scheme/flight_scheme_1.png"" class=""exp-image"">
                    <div class=""question-area"">
                        <p style=""font-size: 20px; font-weight: bold; margin: 0;"">Is there a person in this image?</p>
                    </div>
                </div>","1","main_experiment_trial","1","flight_scheme","schematic_sequence","","","","","","","","",""
"","","","","","html-keyboard-response","166","626614","0.0-166.0","D4DBA0000B9C4D8980E02F5238FBAC77","019ceffd-70b1-72d4-8eda-af19c65d73c8","019ceff9-9f67-7034-9722-02cda2445e09","","null","
                <div class=""stimulus-container"">
                    <img src=""images/schematic_sequence/flight_scheme/flight_scheme_2.png"" class=""exp-image"">
                    <div class=""question-area""></div> 
                </div>","null","","","","","","","","","","","","",""
"","","","","","html-button-response","167","626998","0.0-167.0","D4DBA0000B9C4D8980E02F5238FBAC77","019ceffd-70b1-72d4-8eda-af19c65d73c8","019ceff9-9f67-7034-9722-02cda2445e09","","381","
                <div class=""stimulus-container"">
                    <img src=""images/schematic_sequence/flight_scheme/flight_scheme_2.png"" class=""exp-image"">
                    <div class=""question-area"">
                        <p style=""font-size: 20px; font-weight: bold; margin: 0;"">Is there a person in this image?</p>
                    </div>
                </div>","1","main_experiment_trial","2","flight_scheme","schematic_sequence","","","","","","","","",""
"","","","","","html-keyboard-response","168","632001","0.0-168.0","D4DBA0000B9C4D8980E02F5238FBAC77","019ceffd-70b1-72d4-8eda-af19c65d73c8","019ceff9-9f67-7034-9722-02cda2445e09","","null","
                <div class=""stimulus-container"">
                    <img src=""images/schematic_sequence/flight_scheme/flight_scheme_3.png"" class=""exp-image"">
                    <div class=""question-area""></div> 
                </div>","null","","","","","","","","","","","","",""
"","","","","","html-button-response","169","632632","0.0-169.0","D4DBA0000B9C4D8980E02F5238FBAC77","019ceffd-70b1-72d4-8eda-af19c65d73c8","019ceff9-9f67-7034-9722-02cda2445e09","","629","
                <div class=""stimulus-container"">
                    <img src=""images/schematic_sequence/flight_scheme/flight_scheme_3.png"" class=""exp-image"">
                    <div class=""question-area"">
                        <p style=""font-size: 20px; font-weight: bold; margin: 0;"">Is there a person in this image?</p>
                    </div>
                </div>","0","main_experiment_trial","3","flight_scheme","schematic_sequence","","","","","","","","",""
"","","","","","html-keyboard-response","170","637636","0.0-170.0","D4DBA0000B9C4D8980E02F5238FBAC77","019ceffd-70b1-72d4-8eda-af19c65d73c8","019ceff9-9f67-7034-9722-02cda2445e09","","null","
                <div class=""stimulus-container"">
                    <img src=""images/schematic_sequence/flight_scheme/flight_scheme_4.png"" class=""exp-image"">
                    <div class=""question-area""></div> 
                </div>","null","","","","","","","","","","","","",""
"","","","","","html-button-response","171","638160","0.0-171.0","D4DBA0000B9C4D8980E02F5238FBAC77","019ceffd-70b1-72d4-8eda-af19c65d73c8","019ceff9-9f67-7034-9722-02cda2445e09","","519","
                <div class=""stimulus-container"">
                    <img src=""images/schematic_sequence/flight_scheme/flight_scheme_4.png"" class=""exp-image"">
                    <div class=""question-area"">
                        <p style=""font-size: 20px; font-weight: bold; margin: 0;"">Is there a person in this image?</p>
                    </div>
                </div>","0","main_experiment_trial","4","flight_scheme","schematic_sequence","","","","","","","","",""
"","","","","","html-keyboard-response","172","643163","0.0-172.0","D4DBA0000B9C4D8980E02F5238FBAC77","019ceffd-70b1-72d4-8eda-af19c65d73c8","019ceff9-9f67-7034-9722-02cda2445e09","","null","
                <div class=""stimulus-container"">
                    <img src=""images/schematic_sequence/flight_scheme/flight_scheme_5.png"" class=""exp-image"">
                    <div class=""question-area""></div> 
                </div>","null","","","","","","","","","","","","",""
"","","","","","html-button-response","173","644039","0.0-173.0","D4DBA0000B9C4D8980E02F5238FBAC77","019ceffd-70b1-72d4-8eda-af19c65d73c8","019ceff9-9f67-7034-9722-02cda2445e09","","872","
                <div class=""stimulus-container"">
                    <img src=""images/schematic_sequence/flight_scheme/flight_scheme_5.png"" class=""exp-image"">
                    <div class=""question-area"">
                        <p style=""font-size: 20px; font-weight: bold; margin: 0;"">Is there a person in this image?</p>
                    </div>
                </div>","0","main_experiment_trial","5","flight_scheme","schematic_sequence","","","","","","","","",""
"","","","","","html-keyboard-response","174","649042","0.0-174.0","D4DBA0000B9C4D8980E02F5238FBAC77","019ceffd-70b1-72d4-8eda-af19c65d73c8","019ceff9-9f67-7034-9722-02cda2445e09","","null","
                <div class=""stimulus-container"">
                    <img src=""images/schematic_sequence/flight_scheme/flight_scheme_6.png"" class=""exp-image"">
                    <div class=""question-area""></div> 
                </div>","null","","","","","","","","","","","","",""
"","","","","","html-button-response","175","649902","0.0-175.0","D4DBA0000B9C4D8980E02F5238FBAC77","019ceffd-70b1-72d4-8eda-af19c65d73c8","019ceff9-9f67-7034-9722-02cda2445e09","","857","
                <div class=""stimulus-container"">
                    <img src=""images/schematic_sequence/flight_scheme/flight_scheme_6.png"" class=""exp-image"">
                    <div class=""question-area"">
                        <p style=""font-size: 20px; font-weight: bold; margin: 0;"">Is there a person in this image?</p>
                    </div>
                </div>","1","main_experiment_trial","6","flight_scheme","schematic_sequence","","","","","","","","",""
"","","","","","html-keyboard-response","176","654904","0.0-176.0","D4DBA0000B9C4D8980E02F5238FBAC77","019ceffd-70b1-72d4-8eda-af19c65d73c8","019ceff9-9f67-7034-9722-02cda2445e09","","null","
                <div class=""stimulus-container"">
                    <img src=""images/schematic_sequence/flight_scheme/flight_scheme_7.png"" class=""exp-image"">
                    <div class=""question-area""></div> 
                </div>","null","","","","","","","","","","","","",""
"","","","","","html-button-response","177","655707","0.0-177.0","D4DBA0000B9C4D8980E02F5238FBAC77","019ceffd-70b1-72d4-8eda-af19c65d73c8","019ceff9-9f67-7034-9722-02cda2445e09","","799","
                <div class=""stimulus-container"">
                    <img src=""images/schematic_sequence/flight_scheme/flight_scheme_7.png"" class=""exp-image"">
                    <div class=""question-area"">
                        <p style=""font-size: 20px; font-weight: bold; margin: 0;"">Is there a person in this image?</p>
                    </div>
                </div>","1","main_experiment_trial","7","flight_scheme","schematic_sequence","","","","","","","","",""
"","","","","","html-keyboard-response","178","660711","0.0-178.0","D4DBA0000B9C4D8980E02F5238FBAC77","019ceffd-70b1-72d4-8eda-af19c65d73c8","019ceff9-9f67-7034-9722-02cda2445e09","","null","
                <div class=""stimulus-container"">
                    <img src=""images/schematic_sequence/flight_scheme/flight_scheme_8.png"" class=""exp-image"">
                    <div class=""question-area""></div> 
                </div>","null","","","","","","","","","","","","",""
"","","","","","html-button-response","179","661181","0.0-179.0","D4DBA0000B9C4D8980E02F5238FBAC77","019ceffd-70b1-72d4-8eda-af19c65d73c8","019ceff9-9f67-7034-9722-02cda2445e09","","466","
                <div class=""stimulus-container"">
                    <img src=""images/schematic_sequence/flight_scheme/flight_scheme_8.png"" class=""exp-image"">
                    <div class=""question-area"">
                        <p style=""font-size: 20px; font-weight: bold; margin: 0;"">Is there a person in this image?</p>
                    </div>
                </div>","1","main_experiment_trial","8","flight_scheme","schematic_sequence","","","","","","","","",""
"","","","","","html-keyboard-response","180","666182","0.0-180.0","D4DBA0000B9C4D8980E02F5238FBAC77","019ceffd-70b1-72d4-8eda-af19c65d73c8","019ceff9-9f67-7034-9722-02cda2445e09","","null","
                <div class=""stimulus-container"">
