"success","timeout","failed_images","failed_audio","failed_video","trial_type","trial_index","time_elapsed","internal_node_id","subject_id","study_id","session_id","view_history","rt","stimulus","response","task","image_index","folder","valuable_image_index","reward_type","valuable_X","chosen_image_index","distance_from_X"
"false","false","[]","[]","[]","preload","0","5363","0.0-0.0","14A935C873804DC38902F3900DF28F8E","019ce87d-9989-7348-bb6e-03409cbefbf1","019ce875-66c2-7f0b-b5e8-086c75889f84","","","","","","","","","","","",""
"","","","","","instructions","1","13549","0.0-1.0","14A935C873804DC38902F3900DF28F8E","019ce87d-9989-7348-bb6e-03409cbefbf1","019ce875-66c2-7f0b-b5e8-086c75889f84","[{""page_index"":0,""viewing_time"":8184}]","8185","","","","","","","","","",""
"","","","","","instructions","2","16267","0.0-2.0","14A935C873804DC38902F3900DF28F8E","019ce87d-9989-7348-bb6e-03409cbefbf1","019ce875-66c2-7f0b-b5e8-086c75889f84","[{""page_index"":0,""viewing_time"":2718}]","2718","","","","","","","","","",""
"true","","","","","fullscreen","3","19524","0.0-3.0","14A935C873804DC38902F3900DF28F8E","019ce87d-9989-7348-bb6e-03409cbefbf1","019ce875-66c2-7f0b-b5e8-086c75889f84","","2248","","","","","","","","","",""
"","","","","","instructions","4","27957","0.0-4.0","14A935C873804DC38902F3900DF28F8E","019ce87d-9989-7348-bb6e-03409cbefbf1","019ce875-66c2-7f0b-b5e8-086c75889f84","[{""page_index"":0,""viewing_time"":8431}]","8431","","","","","","","","","",""
"","","","","","instructions","5","35709","0.0-5.0","14A935C873804DC38902F3900DF28F8E","019ce87d-9989-7348-bb6e-03409cbefbf1","019ce875-66c2-7f0b-b5e8-086c75889f84","[{""page_index"":0,""viewing_time"":7751}]","7751","","","","","","","","","",""
"","","","","","html-keyboard-response","6","39710","0.0-6.0","14A935C873804DC38902F3900DF28F8E","019ce87d-9989-7348-bb6e-03409cbefbf1","019ce875-66c2-7f0b-b5e8-086c75889f84","","null","
                <div class=""stimulus-container"">
                    <img src=""images/instructions/movie_1.png"" class=""exp-image"">
                    <div class=""question-area""></div> 
                </div>","null","","","","","","","",""
"","","","","","html-button-response","7","41089","0.0-7.0","14A935C873804DC38902F3900DF28F8E","019ce87d-9989-7348-bb6e-03409cbefbf1","019ce875-66c2-7f0b-b5e8-086c75889f84","","1378","
                <div class=""stimulus-container"">
                    <img src=""images/instructions/movie_1.png"" class=""exp-image"">
                    <div class=""question-area"">
                        <p style=""font-size: 20px; font-weight: bold; margin: 0;"">Was there a person in this image?</p>
                    </div>
                </div>","0","example_question","1","","","","","",""
"","","","","","html-keyboard-response","8","45094","0.0-8.0","14A935C873804DC38902F3900DF28F8E","019ce87d-9989-7348-bb6e-03409cbefbf1","019ce875-66c2-7f0b-b5e8-086c75889f84","","null","
                <div class=""stimulus-container"">
                    <img src=""images/instructions/movie_2.png"" class=""exp-image"">
                    <div class=""question-area""></div> 
                </div>","null","","","","","","","",""
"","","","","","html-button-response","9","45937","0.0-9.0","14A935C873804DC38902F3900DF28F8E","019ce87d-9989-7348-bb6e-03409cbefbf1","019ce875-66c2-7f0b-b5e8-086c75889f84","","837","
                <div class=""stimulus-container"">
                    <img src=""images/instructions/movie_2.png"" class=""exp-image"">
                    <div class=""question-area"">
                        <p style=""font-size: 20px; font-weight: bold; margin: 0;"">Was there a person in this image?</p>
                    </div>
                </div>","0","example_question","2","","","","","",""
"","","","","","html-keyboard-response","10","49939","0.0-10.0","14A935C873804DC38902F3900DF28F8E","019ce87d-9989-7348-bb6e-03409cbefbf1","019ce875-66c2-7f0b-b5e8-086c75889f84","","null","
                <div class=""stimulus-container"">
                    <img src=""images/instructions/movie_3.png"" class=""exp-image"">
                    <div class=""question-area""></div> 
                </div>","null","","","","","","","",""
"","","","","","html-button-response","11","50812","0.0-11.0","14A935C873804DC38902F3900DF28F8E","019ce87d-9989-7348-bb6e-03409cbefbf1","019ce875-66c2-7f0b-b5e8-086c75889f84","","871","
                <div class=""stimulus-container"">
                    <img src=""images/instructions/movie_3.png"" class=""exp-image"">
                    <div class=""question-area"">
                        <p style=""font-size: 20px; font-weight: bold; margin: 0;"">Was there a person in this image?</p>
                    </div>
                </div>","0","example_question","3","","","","","",""
"","","","","","html-keyboard-response","12","54815","0.0-12.0","14A935C873804DC38902F3900DF28F8E","019ce87d-9989-7348-bb6e-03409cbefbf1","019ce875-66c2-7f0b-b5e8-086c75889f84","","null","
                <div class=""stimulus-container"">
                    <img src=""images/instructions/movie_4.png"" class=""exp-image"">
                    <div class=""question-area""></div> 
                </div>","null","","","","","","","",""
"","","","","","html-button-response","13","55551","0.0-13.0","14A935C873804DC38902F3900DF28F8E","019ce87d-9989-7348-bb6e-03409cbefbf1","019ce875-66c2-7f0b-b5e8-086c75889f84","","732","
                <div class=""stimulus-container"">
                    <img src=""images/instructions/movie_4.png"" class=""exp-image"">
                    <div class=""question-area"">
                        <p style=""font-size: 20px; font-weight: bold; margin: 0;"">Was there a person in this image?</p>
                    </div>
                </div>","0","example_question","4","","","","","",""
"","","","","","instructions","14","56765","0.0-14.0","14A935C873804DC38902F3900DF28F8E","019ce87d-9989-7348-bb6e-03409cbefbf1","019ce875-66c2-7f0b-b5e8-086c75889f84","[{""page_index"":0,""viewing_time"":1213}]","1213","","","","","","","","","",""
"","","","","","html-keyboard-response","15","57768","0.0-15.0","14A935C873804DC38902F3900DF28F8E","019ce87d-9989-7348-bb6e-03409cbefbf1","019ce875-66c2-7f0b-b5e8-086c75889f84","","null","<div style=""background-color: gray; width: 100vw; height: 100vh;""></div>","null","","","","","","","",""
"","","","","","html-keyboard-response","16","62774","0.0-16.0","14A935C873804DC38902F3900DF28F8E","019ce87d-9989-7348-bb6e-03409cbefbf1","019ce875-66c2-7f0b-b5e8-086c75889f84","","null","
                    <div class=""stimulus-container"">
                        <img src=""images/causal_sequence/museum_causal/museum_causal_1.png"" class=""exp-image"">
                        <div class=""question-area""></div> 
                    </div>","null","","","","","","","",""
"","","","","","html-button-response","17","63605","0.0-17.0","14A935C873804DC38902F3900DF28F8E","019ce87d-9989-7348-bb6e-03409cbefbf1","019ce875-66c2-7f0b-b5e8-086c75889f84","","826","
                    <div class=""stimulus-container"">
                        <img src=""images/causal_sequence/museum_causal/museum_causal_1.png"" class=""exp-image"">
                        <div class=""question-area"">
                            <p style=""font-size: 20px; font-weight: bold; margin: 0;"">Is there a person in this image?</p>
                        </div>
                    </div>","0","main_causal_task","1","museum_causal","","","","",""
"","","","","","html-keyboard-response","18","68608","0.0-18.0","14A935C873804DC38902F3900DF28F8E","019ce87d-9989-7348-bb6e-03409cbefbf1","019ce875-66c2-7f0b-b5e8-086c75889f84","","null","
                    <div class=""stimulus-container"">
                        <img src=""images/causal_sequence/museum_causal/museum_causal_2.png"" class=""exp-image"">
                        <div class=""question-area""></div> 
                    </div>","null","","","","","","","",""
"","","","","","html-button-response","19","69275","0.0-19.0","14A935C873804DC38902F3900DF28F8E","019ce87d-9989-7348-bb6e-03409cbefbf1","019ce875-66c2-7f0b-b5e8-086c75889f84","","662","
                    <div class=""stimulus-container"">
                        <img src=""images/causal_sequence/museum_causal/museum_causal_2.png"" class=""exp-image"">
                        <div class=""question-area"">
                            <p style=""font-size: 20px; font-weight: bold; margin: 0;"">Is there a person in this image?</p>
                        </div>
                    </div>","0","main_causal_task","2","museum_causal","","","","",""
"","","","","","html-keyboard-response","20","74277","0.0-20.0","14A935C873804DC38902F3900DF28F8E","019ce87d-9989-7348-bb6e-03409cbefbf1","019ce875-66c2-7f0b-b5e8-086c75889f84","","null","
                    <div class=""stimulus-container"">
                        <img src=""images/causal_sequence/museum_causal/museum_causal_3.png"" class=""exp-image"">
                        <div class=""question-area""></div> 
                    </div>","null","","","","","","","",""
"","","","","","html-button-response","21","75177","0.0-21.0","14A935C873804DC38902F3900DF28F8E","019ce87d-9989-7348-bb6e-03409cbefbf1","019ce875-66c2-7f0b-b5e8-086c75889f84","","897","
                    <div class=""stimulus-container"">
                        <img src=""images/causal_sequence/museum_causal/museum_causal_3.png"" class=""exp-image"">
                        <div class=""question-area"">
                            <p style=""font-size: 20px; font-weight: bold; margin: 0;"">Is there a person in this image?</p>
                        </div>
                    </div>","0","main_causal_task","3","museum_causal","","","","",""
"","","","","","html-keyboard-response","22","80180","0.0-22.0","14A935C873804DC38902F3900DF28F8E","019ce87d-9989-7348-bb6e-03409cbefbf1","019ce875-66c2-7f0b-b5e8-086c75889f84","","null","
                    <div class=""stimulus-container"">
                        <img src=""images/causal_sequence/museum_causal/museum_causal_4.png"" class=""exp-image"">
                        <div class=""question-area""></div> 
                    </div>","null","","","","","","","",""
"","","","","","html-button-response","23","82588","0.0-23.0","14A935C873804DC38902F3900DF28F8E","019ce87d-9989-7348-bb6e-03409cbefbf1","019ce875-66c2-7f0b-b5e8-086c75889f84","","2404","
                    <div class=""stimulus-container"">
                        <img src=""images/causal_sequence/museum_causal/museum_causal_4.png"" class=""exp-image"">
                        <div class=""question-area"">
                            <p style=""font-size: 20px; font-weight: bold; margin: 0;"">Is there a person in this image?</p>
                        </div>
                    </div>","1","main_causal_task","4","museum_causal","","","","",""
"","","","","","html-keyboard-response","24","87592","0.0-24.0","14A935C873804DC38902F3900DF28F8E","019ce87d-9989-7348-bb6e-03409cbefbf1","019ce875-66c2-7f0b-b5e8-086c75889f84","","null","
                    <div class=""stimulus-container"">
                        <img src=""images/causal_sequence/museum_causal/museum_causal_5.png"" class=""exp-image"">
                        <div class=""question-area""></div> 
                    </div>","null","","","","","","","",""
"","","","","","html-button-response","25","88337","0.0-25.0","14A935C873804DC38902F3900DF28F8E","019ce87d-9989-7348-bb6e-03409cbefbf1","019ce875-66c2-7f0b-b5e8-086c75889f84","","741","
                    <div class=""stimulus-container"">
                        <img src=""images/causal_sequence/museum_causal/museum_causal_5.png"" class=""exp-image"">
                        <div class=""question-area"">
                            <p style=""font-size: 20px; font-weight: bold; margin: 0;"">Is there a person in this image?</p>
                        </div>
                    </div>","0","main_causal_task","5","museum_causal","","","","",""
"","","","","","html-keyboard-response","26","93341","0.0-26.0","14A935C873804DC38902F3900DF28F8E","019ce87d-9989-7348-bb6e-03409cbefbf1","019ce875-66c2-7f0b-b5e8-086c75889f84","","null","
                    <div class=""stimulus-container"">
                        <img src=""images/causal_sequence/museum_causal/museum_causal_6.png"" class=""exp-image"">
                        <div class=""question-area""></div> 
                    </div>","null","","","","","","","",""
"","","","","","html-button-response","27","94166","0.0-27.0","14A935C873804DC38902F3900DF28F8E","019ce87d-9989-7348-bb6e-03409cbefbf1","019ce875-66c2-7f0b-b5e8-086c75889f84","","821","
                    <div class=""stimulus-container"">
                        <img src=""images/causal_sequence/museum_causal/museum_causal_6.png"" class=""exp-image"">
                        <div class=""question-area"">
                            <p style=""font-size: 20px; font-weight: bold; margin: 0;"">Is there a person in this image?</p>
                        </div>
                    </div>","0","main_causal_task","6","museum_causal","","","","",""
"","","","","","html-keyboard-response","28","99170","0.0-28.0","14A935C873804DC38902F3900DF28F8E","019ce87d-9989-7348-bb6e-03409cbefbf1","019ce875-66c2-7f0b-b5e8-086c75889f84","","null","
                    <div class=""stimulus-container"">
                        <img src=""images/causal_sequence/museum_causal/museum_causal_7.png"" class=""exp-image"">
                        <div class=""question-area""></div> 
                    </div>","null","","","","","","","",""
"","","","","","html-button-response","29","100036","0.0-29.0","14A935C873804DC38902F3900DF28F8E","019ce87d-9989-7348-bb6e-03409cbefbf1","019ce875-66c2-7f0b-b5e8-086c75889f84","","862","
                    <div class=""stimulus-container"">
                        <img src=""images/causal_sequence/museum_causal/museum_causal_7.png"" class=""exp-image"">
                        <div class=""question-area"">
                            <p style=""font-size: 20px; font-weight: bold; margin: 0;"">Is there a person in this image?</p>
                        </div>
                    </div>","1","main_causal_task","7","museum_causal","","","","",""
"","","","","","html-keyboard-response","30","105039","0.0-30.0","14A935C873804DC38902F3900DF28F8E","019ce87d-9989-7348-bb6e-03409cbefbf1","019ce875-66c2-7f0b-b5e8-086c75889f84","","null","
                    <div class=""stimulus-container"">
                        <img src=""images/causal_sequence/museum_causal/museum_causal_8.png"" class=""exp-image"">
                        <div class=""question-area""></div> 
                    </div>","null","","","","","","","",""
"","","","","","html-button-response","31","106014","0.0-31.0","14A935C873804DC38902F3900DF28F8E","019ce87d-9989-7348-bb6e-03409cbefbf1","019ce875-66c2-7f0b-b5e8-086c75889f84","","972","
                    <div class=""stimulus-container"">
                        <img src=""images/causal_sequence/museum_causal/museum_causal_8.png"" class=""exp-image"">
                        <div class=""question-area"">
                            <p style=""font-size: 20px; font-weight: bold; margin: 0;"">Is there a person in this image?</p>
                        </div>
                    </div>","0","main_causal_task","8","museum_causal","","","","",""
"","","","","","html-keyboard-response","32","111023","0.0-32.0","14A935C873804DC38902F3900DF28F8E","019ce87d-9989-7348-bb6e-03409cbefbf1","019ce875-66c2-7f0b-b5e8-086c75889f84","","null","
                    <div class=""stimulus-container"">
                        <img src=""images/causal_sequence/museum_causal/museum_causal_9.png"" class=""exp-image"">
                        <div class=""question-area""></div> 
                    </div>","null","","","","","","","",""
"","","","","","html-button-response","33","111775","0.0-33.0","14A935C873804DC38902F3900DF28F8E","019ce87d-9989-7348-bb6e-03409cbefbf1","019ce875-66c2-7f0b-b5e8-086c75889f84","","748","
                    <div class=""stimulus-container"">
                        <img src=""images/causal_sequence/museum_causal/museum_causal_9.png"" class=""exp-image"">
                        <div class=""question-area"">
                            <p style=""font-size: 20px; font-weight: bold; margin: 0;"">Is there a person in this image?</p>
                        </div>
                    </div>","1","main_causal_task","9","museum_causal","","","","",""
"","","","","","html-keyboard-response","34","112778","0.0-34.0","14A935C873804DC38902F3900DF28F8E","019ce87d-9989-7348-bb6e-03409cbefbf1","019ce875-66c2-7f0b-b5e8-086c75889f84","","null","<div style=""background-color: gray; width: 100vw; height: 100vh;""></div>","null","","","","","","","",""
"","","","","","html-keyboard-response","35","117784","0.0-35.0","14A935C873804DC38902F3900DF28F8E","019ce87d-9989-7348-bb6e-03409cbefbf1","019ce875-66c2-7f0b-b5e8-086c75889f84","","null","
                    <div class=""stimulus-container"">
                        <img src=""images/causal_sequence/package_causal/package_causal_1.png"" class=""exp-image"">
                        <div class=""question-area""></div> 
                    </div>","null","","","","","","","",""
"","","","","","html-button-response","36","118528","0.0-36.0","14A935C873804DC38902F3900DF28F8E","019ce87d-9989-7348-bb6e-03409cbefbf1","019ce875-66c2-7f0b-b5e8-086c75889f84","","739","
                    <div class=""stimulus-container"">
                        <img src=""images/causal_sequence/package_causal/package_causal_1.png"" class=""exp-image"">
                        <div class=""question-area"">
                            <p style=""font-size: 20px; font-weight: bold; margin: 0;"">Is there a person in this image?</p>
                        </div>
                    </div>","0","main_causal_task","1","package_causal","","","","",""
"","","","","","html-keyboard-response","37","123531","0.0-37.0","14A935C873804DC38902F3900DF28F8E","019ce87d-9989-7348-bb6e-03409cbefbf1","019ce875-66c2-7f0b-b5e8-086c75889f84","","null","
                    <div class=""stimulus-container"">
                        <img src=""images/causal_sequence/package_causal/package_causal_2.png"" class=""exp-image"">
                        <div class=""question-area""></div> 
                    </div>","null","","","","","","","",""
"","","","","","html-button-response","38","124313","0.0-38.0","14A935C873804DC38902F3900DF28F8E","019ce87d-9989-7348-bb6e-03409cbefbf1","019ce875-66c2-7f0b-b5e8-086c75889f84","","778","
                    <div class=""stimulus-container"">
                        <img src=""images/causal_sequence/package_causal/package_causal_2.png"" class=""exp-image"">
                        <div class=""question-area"">
                            <p style=""font-size: 20px; font-weight: bold; margin: 0;"">Is there a person in this image?</p>
                        </div>
                    </div>","0","main_causal_task","2","package_causal","","","","",""
"","","","","","html-keyboard-response","39","129316","0.0-39.0","14A935C873804DC38902F3900DF28F8E","019ce87d-9989-7348-bb6e-03409cbefbf1","019ce875-66c2-7f0b-b5e8-086c75889f84","","null","
                    <div class=""stimulus-container"">
                        <img src=""images/causal_sequence/package_causal/package_causal_3.png"" class=""exp-image"">
                        <div class=""question-area""></div> 
                    </div>","null","","","","","","","",""
"","","","","","html-button-response","40","129933","0.0-40.0","14A935C873804DC38902F3900DF28F8E","019ce87d-9989-7348-bb6e-03409cbefbf1","019ce875-66c2-7f0b-b5e8-086c75889f84","","613","
                    <div class=""stimulus-container"">
                        <img src=""images/causal_sequence/package_causal/package_causal_3.png"" class=""exp-image"">
                        <div class=""question-area"">
                            <p style=""font-size: 20px; font-weight: bold; margin: 0;"">Is there a person in this image?</p>
                        </div>
                    </div>","0","main_causal_task","3","package_causal","","","","",""
"","","","","","html-keyboard-response","41","134937","0.0-41.0","14A935C873804DC38902F3900DF28F8E","019ce87d-9989-7348-bb6e-03409cbefbf1","019ce875-66c2-7f0b-b5e8-086c75889f84","","null","
                    <div class=""stimulus-container"">
                        <img src=""images/causal_sequence/package_causal/package_causal_4.png"" class=""exp-image"">
                        <div class=""question-area""></div> 
                    </div>","null","","","","","","","",""
"","","","","","html-button-response","42","135569","0.0-42.0","14A935C873804DC38902F3900DF28F8E","019ce87d-9989-7348-bb6e-03409cbefbf1","019ce875-66c2-7f0b-b5e8-086c75889f84","","627","
                    <div class=""stimulus-container"">
                        <img src=""images/causal_sequence/package_causal/package_causal_4.png"" class=""exp-image"">
                        <div class=""question-area"">
                            <p style=""font-size: 20px; font-weight: bold; margin: 0;"">Is there a person in this image?</p>
                        </div>
                    </div>","1","main_causal_task","4","package_causal","","","","",""
"","","","","","html-keyboard-response","43","140572","0.0-43.0","14A935C873804DC38902F3900DF28F8E","019ce87d-9989-7348-bb6e-03409cbefbf1","019ce875-66c2-7f0b-b5e8-086c75889f84","","null","
                    <div class=""stimulus-container"">
                        <img src=""images/causal_sequence/package_causal/package_causal_5.png"" class=""exp-image"">
                        <div class=""question-area""></div> 
                    </div>","null","","","","","","","",""
"","","","","","html-button-response","44","141315","0.0-44.0","14A935C873804DC38902F3900DF28F8E","019ce87d-9989-7348-bb6e-03409cbefbf1","019ce875-66c2-7f0b-b5e8-086c75889f84","","739","
                    <div class=""stimulus-container"">
                        <img src=""images/causal_sequence/package_causal/package_causal_5.png"" class=""exp-image"">
                        <div class=""question-area"">
                            <p style=""font-size: 20px; font-weight: bold; margin: 0;"">Is there a person in this image?</p>
                        </div>
                    </div>","0","main_causal_task","5","package_causal","","","","",""
"","","","","","html-keyboard-response","45","146318","0.0-45.0","14A935C873804DC38902F3900DF28F8E","019ce87d-9989-7348-bb6e-03409cbefbf1","019ce875-66c2-7f0b-b5e8-086c75889f84","","null","
                    <div class=""stimulus-container"">
                        <img src=""images/causal_sequence/package_causal/package_causal_6.png"" class=""exp-image"">
                        <div class=""question-area""></div> 
                    </div>","null","","","","","","","",""
"","","","","","html-button-response","46","147509","0.0-46.0","14A935C873804DC38902F3900DF28F8E","019ce87d-9989-7348-bb6e-03409cbefbf1","019ce875-66c2-7f0b-b5e8-086c75889f84","","1186","
                    <div class=""stimulus-container"">
                        <img src=""images/causal_sequence/package_causal/package_causal_6.png"" class=""exp-image"">
                        <div class=""question-area"">
                            <p style=""font-size: 20px; font-weight: bold; margin: 0;"">Is there a person in this image?</p>
                        </div>
                    </div>","0","main_causal_task","6","package_causal","","","","",""
"","","","","","html-keyboard-response","47","152512","0.0-47.0","14A935C873804DC38902F3900DF28F8E","019ce87d-9989-7348-bb6e-03409cbefbf1","019ce875-66c2-7f0b-b5e8-086c75889f84","","null","
                    <div class=""stimulus-container"">
                        <img src=""images/causal_sequence/package_causal/package_causal_7.png"" class=""exp-image"">
                        <div class=""question-area""></div> 
                    </div>","null","","","","","","","",""
"","","","","","html-button-response","48","153656","0.0-48.0","14A935C873804DC38902F3900DF28F8E","019ce87d-9989-7348-bb6e-03409cbefbf1","019ce875-66c2-7f0b-b5e8-086c75889f84","","1140","
                    <div class=""stimulus-container"">
                        <img src=""images/causal_sequence/package_causal/package_causal_7.png"" class=""exp-image"">
                        <div class=""question-area"">
                            <p style=""font-size: 20px; font-weight: bold; margin: 0;"">Is there a person in this image?</p>
                        </div>
                    </div>","0","main_causal_task","7","package_causal","","","","",""
"","","","","","html-keyboard-response","49","158659","0.0-49.0","14A935C873804DC38902F3900DF28F8E","019ce87d-9989-7348-bb6e-03409cbefbf1","019ce875-66c2-7f0b-b5e8-086c75889f84","","null","
                    <div class=""stimulus-container"">
                        <img src=""images/causal_sequence/package_causal/package_causal_8.png"" class=""exp-image"">
                        <div class=""question-area""></div> 
                    </div>","null","","","","","","","",""
"","","","","","html-button-response","50","159696","0.0-50.0","14A935C873804DC38902F3900DF28F8E","019ce87d-9989-7348-bb6e-03409cbefbf1","019ce875-66c2-7f0b-b5e8-086c75889f84","","1032","
                    <div class=""stimulus-container"">
                        <img src=""images/causal_sequence/package_causal/package_causal_8.png"" class=""exp-image"">
                        <div class=""question-area"">
                            <p style=""font-size: 20px; font-weight: bold; margin: 0;"">Is there a person in this image?</p>
                        </div>
                    </div>","0","main_causal_task","8","package_causal","","","","",""
"","","","","","html-keyboard-response","51","164699","0.0-51.0","14A935C873804DC38902F3900DF28F8E","019ce87d-9989-7348-bb6e-03409cbefbf1","019ce875-66c2-7f0b-b5e8-086c75889f84","","null","
                    <div class=""stimulus-container"">
                        <img src=""images/causal_sequence/package_causal/package_causal_9.png"" class=""exp-image"">
                        <div class=""question-area""></div> 
                    </div>","null","","","","","","","",""
"","","","","","html-button-response","52","165754","0.0-52.0","14A935C873804DC38902F3900DF28F8E","019ce87d-9989-7348-bb6e-03409cbefbf1","019ce875-66c2-7f0b-b5e8-086c75889f84","","1051","
                    <div class=""stimulus-container"">
                        <img src=""images/causal_sequence/package_causal/package_causal_9.png"" class=""exp-image"">
                        <div class=""question-area"">
                            <p style=""font-size: 20px; font-weight: bold; margin: 0;"">Is there a person in this image?</p>
                        </div>
                    </div>","0","main_causal_task","9","package_causal","","","","",""
"","","","","","html-keyboard-response","53","166756","0.0-53.0","14A935C873804DC38902F3900DF28F8E","019ce87d-9989-7348-bb6e-03409cbefbf1","019ce875-66c2-7f0b-b5e8-086c75889f84","","null","<div style=""background-color: gray; width: 100vw; height: 100vh;""></div>","null","","","","","","","",""
"","","","","","html-keyboard-response","54","171761","0.0-54.0","14A935C873804DC38902F3900DF28F8E","019ce87d-9989-7348-bb6e-03409cbefbf1","019ce875-66c2-7f0b-b5e8-086c75889f84","","null","
                    <div class=""stimulus-container"">
                        <img src=""images/causal_sequence/saving_a_cat_causal/saving_a_cat_causal_1.png"" class=""exp-image"">
                        <div class=""question-area""></div> 
                    </div>","null","","","","","","","",""
"","","","","","html-button-response","55","172514","0.0-55.0","14A935C873804DC38902F3900DF28F8E","019ce87d-9989-7348-bb6e-03409cbefbf1","019ce875-66c2-7f0b-b5e8-086c75889f84","","749","
                    <div class=""stimulus-container"">
                        <img src=""images/causal_sequence/saving_a_cat_causal/saving_a_cat_causal_1.png"" class=""exp-image"">
                        <div class=""question-area"">
                            <p style=""font-size: 20px; font-weight: bold; margin: 0;"">Is there a person in this image?</p>
                        </div>
                    </div>","0","main_causal_task","1","saving_a_cat_causal","","","","",""
"","","","","","html-keyboard-response","56","177517","0.0-56.0","14A935C873804DC38902F3900DF28F8E","019ce87d-9989-7348-bb6e-03409cbefbf1","019ce875-66c2-7f0b-b5e8-086c75889f84","","null","
                    <div class=""stimulus-container"">
                        <img src=""images/causal_sequence/saving_a_cat_causal/saving_a_cat_causal_2.png"" class=""exp-image"">
                        <div class=""question-area""></div> 
                    </div>","null","","","","","","","",""
"","","","","","html-button-response","57","178504","0.0-57.0","14A935C873804DC38902F3900DF28F8E","019ce87d-9989-7348-bb6e-03409cbefbf1","019ce875-66c2-7f0b-b5e8-086c75889f84","","982","
                    <div class=""stimulus-container"">
                        <img src=""images/causal_sequence/saving_a_cat_causal/saving_a_cat_causal_2.png"" class=""exp-image"">
                        <div class=""question-area"">
                            <p style=""font-size: 20px; font-weight: bold; margin: 0;"">Is there a person in this image?</p>
                        </div>
                    </div>","1","main_causal_task","2","saving_a_cat_causal","","","","",""
"","","","","","html-keyboard-response","58","183506","0.0-58.0","14A935C873804DC38902F3900DF28F8E","019ce87d-9989-7348-bb6e-03409cbefbf1","019ce875-66c2-7f0b-b5e8-086c75889f84","","null","
                    <div class=""stimulus-container"">
                        <img src=""images/causal_sequence/saving_a_cat_causal/saving_a_cat_causal_3.png"" class=""exp-image"">
                        <div class=""question-area""></div> 
                    </div>","null","","","","","","","",""
"","","","","","html-button-response","59","184280","0.0-59.0","14A935C873804DC38902F3900DF28F8E","019ce87d-9989-7348-bb6e-03409cbefbf1","019ce875-66c2-7f0b-b5e8-086c75889f84","","770","
                    <div class=""stimulus-container"">
                        <img src=""images/causal_sequence/saving_a_cat_causal/saving_a_cat_causal_3.png"" class=""exp-image"">
                        <div class=""question-area"">
                            <p style=""font-size: 20px; font-weight: bold; margin: 0;"">Is there a person in this image?</p>
                        </div>
                    </div>","1","main_causal_task","3","saving_a_cat_causal","","","","",""
"","","","","","html-keyboard-response","60","189284","0.0-60.0","14A935C873804DC38902F3900DF28F8E","019ce87d-9989-7348-bb6e-03409cbefbf1","019ce875-66c2-7f0b-b5e8-086c75889f84","","null","
                    <div class=""stimulus-container"">
                        <img src=""images/causal_sequence/saving_a_cat_causal/saving_a_cat_causal_4.png"" class=""exp-image"">
                        <div class=""question-area""></div> 
                    </div>","null","","","","","","","",""
"","","","","","html-button-response","61","190298","0.0-61.0","14A935C873804DC38902F3900DF28F8E","019ce87d-9989-7348-bb6e-03409cbefbf1","019ce875-66c2-7f0b-b5e8-086c75889f84","","1010","
                    <div class=""stimulus-container"">
                        <img src=""images/causal_sequence/saving_a_cat_causal/saving_a_cat_causal_4.png"" class=""exp-image"">
                        <div class=""question-area"">
                            <p style=""font-size: 20px; font-weight: bold; margin: 0;"">Is there a person in this image?</p>
                        </div>
                    </div>","0","main_causal_task","4","saving_a_cat_causal","","","","",""
"","","","","","html-keyboard-response","62","195301","0.0-62.0","14A935C873804DC38902F3900DF28F8E","019ce87d-9989-7348-bb6e-03409cbefbf1","019ce875-66c2-7f0b-b5e8-086c75889f84","","null","
                    <div class=""stimulus-container"">
                        <img src=""images/causal_sequence/saving_a_cat_causal/saving_a_cat_causal_5.png"" class=""exp-image"">
                        <div class=""question-area""></div> 
                    </div>","null","","","","","","","",""
"","","","","","html-button-response","63","196268","0.0-63.0","14A935C873804DC38902F3900DF28F8E","019ce87d-9989-7348-bb6e-03409cbefbf1","019ce875-66c2-7f0b-b5e8-086c75889f84","","962","
                    <div class=""stimulus-container"">
                        <img src=""images/causal_sequence/saving_a_cat_causal/saving_a_cat_causal_5.png"" class=""exp-image"">
                        <div class=""question-area"">
                            <p style=""font-size: 20px; font-weight: bold; margin: 0;"">Is there a person in this image?</p>
                        </div>
                    </div>","0","main_causal_task","5","saving_a_cat_causal","","","","",""
"","","","","","html-keyboard-response","64","201271","0.0-64.0","14A935C873804DC38902F3900DF28F8E","019ce87d-9989-7348-bb6e-03409cbefbf1","019ce875-66c2-7f0b-b5e8-086c75889f84","","null","
                    <div class=""stimulus-container"">
                        <img src=""images/causal_sequence/saving_a_cat_causal/saving_a_cat_causal_6.png"" class=""exp-image"">
                        <div class=""question-area""></div> 
                    </div>","null","","","","","","","",""
"","","","","","html-button-response","65","202091","0.0-65.0","14A935C873804DC38902F3900DF28F8E","019ce87d-9989-7348-bb6e-03409cbefbf1","019ce875-66c2-7f0b-b5e8-086c75889f84","","816","
                    <div class=""stimulus-container"">
                        <img src=""images/causal_sequence/saving_a_cat_causal/saving_a_cat_causal_6.png"" class=""exp-image"">
                        <div class=""question-area"">
                            <p style=""font-size: 20px; font-weight: bold; margin: 0;"">Is there a person in this image?</p>
                        </div>
                    </div>","0","main_causal_task","6","saving_a_cat_causal","","","","",""
"","","","","","html-keyboard-response","66","207094","0.0-66.0","14A935C873804DC38902F3900DF28F8E","019ce87d-9989-7348-bb6e-03409cbefbf1","019ce875-66c2-7f0b-b5e8-086c75889f84","","null","
                    <div class=""stimulus-container"">
                        <img src=""images/causal_sequence/saving_a_cat_causal/saving_a_cat_causal_7.png"" class=""exp-image"">
                        <div class=""question-area""></div> 
                    </div>","null","","","","","","","",""
"","","","","","html-button-response","67","208381","0.0-67.0","14A935C873804DC38902F3900DF28F8E","019ce87d-9989-7348-bb6e-03409cbefbf1","019ce875-66c2-7f0b-b5e8-086c75889f84","","1282","
                    <div class=""stimulus-container"">
                        <img src=""images/causal_sequence/saving_a_cat_causal/saving_a_cat_causal_7.png"" class=""exp-image"">
                        <div class=""question-area"">
                            <p style=""font-size: 20px; font-weight: bold; margin: 0;"">Is there a person in this image?</p>
                        </div>
                    </div>","0","main_causal_task","7","saving_a_cat_causal","","","","",""
"","","","","","html-keyboard-response","68","213385","0.0-68.0","14A935C873804DC38902F3900DF28F8E","019ce87d-9989-7348-bb6e-03409cbefbf1","019ce875-66c2-7f0b-b5e8-086c75889f84","","null","
                    <div class=""stimulus-container"">
                        <img src=""images/causal_sequence/saving_a_cat_causal/saving_a_cat_causal_8.png"" class=""exp-image"">
                        <div class=""question-area""></div> 
                    </div>","null","","","","","","","",""
"","","","","","html-button-response","69","214498","0.0-69.0","14A935C873804DC38902F3900DF28F8E","019ce87d-9989-7348-bb6e-03409cbefbf1","019ce875-66c2-7f0b-b5e8-086c75889f84","","1108","
                    <div class=""stimulus-container"">
                        <img src=""images/causal_sequence/saving_a_cat_causal/saving_a_cat_causal_8.png"" class=""exp-image"">
                        <div class=""question-area"">
                            <p style=""font-size: 20px; font-weight: bold; margin: 0;"">Is there a person in this image?</p>
                        </div>
                    </div>","0","main_causal_task","8","saving_a_cat_causal","","","","",""
"","","","","","html-keyboard-response","70","219502","0.0-70.0","14A935C873804DC38902F3900DF28F8E","019ce87d-9989-7348-bb6e-03409cbefbf1","019ce875-66c2-7f0b-b5e8-086c75889f84","","null","
                    <div class=""stimulus-container"">
                        <img src=""images/causal_sequence/saving_a_cat_causal/saving_a_cat_causal_9.png"" class=""exp-image"">
                        <div class=""question-area""></div> 
                    </div>","null","","","","","","","",""
"","","","","","html-button-response","71","220981","0.0-71.0","14A935C873804DC38902F3900DF28F8E","019ce87d-9989-7348-bb6e-03409cbefbf1","019ce875-66c2-7f0b-b5e8-086c75889f84","","1475","
                    <div class=""stimulus-container"">
                        <img src=""images/causal_sequence/saving_a_cat_causal/saving_a_cat_causal_9.png"" class=""exp-image"">
                        <div class=""question-area"">
                            <p style=""font-size: 20px; font-weight: bold; margin: 0;"">Is there a person in this image?</p>
                        </div>
                    </div>","0","main_causal_task","9","saving_a_cat_causal","","","","",""
"","","","","","html-keyboard-response","72","221983","0.0-72.0","14A935C873804DC38902F3900DF28F8E","019ce87d-9989-7348-bb6e-03409cbefbf1","019ce875-66c2-7f0b-b5e8-086c75889f84","","null","<div style=""background-color: gray; width: 100vw; height: 100vh;""></div>","null","","","","","","","",""
"","","","","","html-keyboard-response","73","226989","0.0-73.0","14A935C873804DC38902F3900DF28F8E","019ce87d-9989-7348-bb6e-03409cbefbf1","019ce875-66c2-7f0b-b5e8-086c75889f84","","null","
                    <div class=""stimulus-container"">
                        <img src=""images/causal_sequence/dog_causal/dog_causal_1.png"" class=""exp-image"">
                        <div class=""question-area""></div> 
                    </div>","null","","","","","","","",""
"","","","","","html-button-response","74","227848","0.0-74.0","14A935C873804DC38902F3900DF28F8E","019ce87d-9989-7348-bb6e-03409cbefbf1","019ce875-66c2-7f0b-b5e8-086c75889f84","","854","
                    <div class=""stimulus-container"">
                        <img src=""images/causal_sequence/dog_causal/dog_causal_1.png"" class=""exp-image"">
                        <div class=""question-area"">
                            <p style=""font-size: 20px; font-weight: bold; margin: 0;"">Is there a person in this image?</p>
                        </div>
                    </div>","0","main_causal_task","1","dog_causal","","","","",""
"","","","","","html-keyboard-response","75","232851","0.0-75.0","14A935C873804DC38902F3900DF28F8E","019ce87d-9989-7348-bb6e-03409cbefbf1","019ce875-66c2-7f0b-b5e8-086c75889f84","","null","
                    <div class=""stimulus-container"">
                        <img src=""images/causal_sequence/dog_causal/dog_causal_2.png"" class=""exp-image"">
                        <div class=""question-area""></div> 
                    </div>","null","","","","","","","",""
"","","","","","html-button-response","76","233586","0.0-76.0","14A935C873804DC38902F3900DF28F8E","019ce87d-9989-7348-bb6e-03409cbefbf1","019ce875-66c2-7f0b-b5e8-086c75889f84","","731","
                    <div class=""stimulus-container"">
                        <img src=""images/causal_sequence/dog_causal/dog_causal_2.png"" class=""exp-image"">
                        <div class=""question-area"">
                            <p style=""font-size: 20px; font-weight: bold; margin: 0;"">Is there a person in this image?</p>
                        </div>
                    </div>","0","main_causal_task","2","dog_causal","","","","",""
"","","","","","html-keyboard-response","77","238589","0.0-77.0","14A935C873804DC38902F3900DF28F8E","019ce87d-9989-7348-bb6e-03409cbefbf1","019ce875-66c2-7f0b-b5e8-086c75889f84","","null","
                    <div class=""stimulus-container"">
                        <img src=""images/causal_sequence/dog_causal/dog_causal_3.png"" class=""exp-image"">
                        <div class=""question-area""></div> 
                    </div>","null","","","","","","","",""
"","","","","","html-button-response","78","239443","0.0-78.0","14A935C873804DC38902F3900DF28F8E","019ce87d-9989-7348-bb6e-03409cbefbf1","019ce875-66c2-7f0b-b5e8-086c75889f84","","851","
                    <div class=""stimulus-container"">
                        <img src=""images/causal_sequence/dog_causal/dog_causal_3.png"" class=""exp-image"">
                        <div class=""question-area"">
                            <p style=""font-size: 20px; font-weight: bold; margin: 0;"">Is there a person in this image?</p>
                        </div>
                    </div>","0","main_causal_task","3","dog_causal","","","","",""
"","","","","","html-keyboard-response","79","244446","0.0-79.0","14A935C873804DC38902F3900DF28F8E","019ce87d-9989-7348-bb6e-03409cbefbf1","019ce875-66c2-7f0b-b5e8-086c75889f84","","null","
                    <div class=""stimulus-container"">
                        <img src=""images/causal_sequence/dog_causal/dog_causal_4.png"" class=""exp-image"">
                        <div class=""question-area""></div> 
                    </div>","null","","","","","","","",""
"","","","","","html-button-response","80","245164","0.0-80.0","14A935C873804DC38902F3900DF28F8E","019ce87d-9989-7348-bb6e-03409cbefbf1","019ce875-66c2-7f0b-b5e8-086c75889f84","","713","
                    <div class=""stimulus-container"">
                        <img src=""images/causal_sequence/dog_causal/dog_causal_4.png"" class=""exp-image"">
                        <div class=""question-area"">
                            <p style=""font-size: 20px; font-weight: bold; margin: 0;"">Is there a person in this image?</p>
                        </div>
                    </div>","0","main_causal_task","4","dog_causal","","","","",""
"","","","","","html-keyboard-response","81","250167","0.0-81.0","14A935C873804DC38902F3900DF28F8E","019ce87d-9989-7348-bb6e-03409cbefbf1","019ce875-66c2-7f0b-b5e8-086c75889f84","","null","
                    <div class=""stimulus-container"">
                        <img src=""images/causal_sequence/dog_causal/dog_causal_5.png"" class=""exp-image"">
                        <div class=""question-area""></div> 
                    </div>","null","","","","","","","",""
"","","","","","html-button-response","82","251080","0.0-82.0","14A935C873804DC38902F3900DF28F8E","019ce87d-9989-7348-bb6e-03409cbefbf1","019ce875-66c2-7f0b-b5e8-086c75889f84","","909","
                    <div class=""stimulus-container"">
                        <img src=""images/causal_sequence/dog_causal/dog_causal_5.png"" class=""exp-image"">
                        <div class=""question-area"">
                            <p style=""font-size: 20px; font-weight: bold; margin: 0;"">Is there a person in this image?</p>
                        </div>
                    </div>","0","main_causal_task","5","dog_causal","","","","",""
"","","","","","html-keyboard-response","83","256084","0.0-83.0","14A935C873804DC38902F3900DF28F8E","019ce87d-9989-7348-bb6e-03409cbefbf1","019ce875-66c2-7f0b-b5e8-086c75889f84","","null","
                    <div class=""stimulus-container"">
                        <img src=""images/causal_sequence/dog_causal/dog_causal_6.png"" class=""exp-image"">
                        <div class=""question-area""></div> 
                    </div>","null","","","","","","","",""
"","","","","","html-button-response","84","256849","0.0-84.0","14A935C873804DC38902F3900DF28F8E","019ce87d-9989-7348-bb6e-03409cbefbf1","019ce875-66c2-7f0b-b5e8-086c75889f84","","762","
                    <div class=""stimulus-container"">
                        <img src=""images/causal_sequence/dog_causal/dog_causal_6.png"" class=""exp-image"">
                        <div class=""question-area"">
                            <p style=""font-size: 20px; font-weight: bold; margin: 0;"">Is there a person in this image?</p>
                        </div>
                    </div>","0","main_causal_task","6","dog_causal","","","","",""
"","","","","","html-keyboard-response","85","261853","0.0-85.0","14A935C873804DC38902F3900DF28F8E","019ce87d-9989-7348-bb6e-03409cbefbf1","019ce875-66c2-7f0b-b5e8-086c75889f84","","null","
                    <div class=""stimulus-container"">
                        <img src=""images/causal_sequence/dog_causal/dog_causal_7.png"" class=""exp-image"">
                        <div class=""question-area""></div> 
                    </div>","null","","","","","","","",""
"","","","","","html-button-response","86","262880","0.0-86.0","14A935C873804DC38902F3900DF28F8E","019ce87d-9989-7348-bb6e-03409cbefbf1","019ce875-66c2-7f0b-b5e8-086c75889f84","","1024","
                    <div class=""stimulus-container"">
                        <img src=""images/causal_sequence/dog_causal/dog_causal_7.png"" class=""exp-image"">
                        <div class=""question-area"">
                            <p style=""font-size: 20px; font-weight: bold; margin: 0;"">Is there a person in this image?</p>
                        </div>
                    </div>","0","main_causal_task","7","dog_causal","","","","",""
"","","","","","html-keyboard-response","87","267884","0.0-87.0","14A935C873804DC38902F3900DF28F8E","019ce87d-9989-7348-bb6e-03409cbefbf1","019ce875-66c2-7f0b-b5e8-086c75889f84","","null","
                    <div class=""stimulus-container"">
                        <img src=""images/causal_sequence/dog_causal/dog_causal_8.png"" class=""exp-image"">
                        <div class=""question-area""></div> 
                    </div>","null","","","","","","","",""
"","","","","","html-button-response","88","268661","0.0-88.0","14A935C873804DC38902F3900DF28F8E","019ce87d-9989-7348-bb6e-03409cbefbf1","019ce875-66c2-7f0b-b5e8-086c75889f84","","773","
                    <div class=""stimulus-container"">
                        <img src=""images/causal_sequence/dog_causal/dog_causal_8.png"" class=""exp-image"">
                        <div class=""question-area"">
                            <p style=""font-size: 20px; font-weight: bold; margin: 0;"">Is there a person in this image?</p>
                        </div>
                    </div>","0","main_causal_task","8","dog_causal","","","","",""
"","","","","","html-keyboard-response","89","273664","0.0-89.0","14A935C873804DC38902F3900DF28F8E","019ce87d-9989-7348-bb6e-03409cbefbf1","019ce875-66c2-7f0b-b5e8-086c75889f84","","null","
                    <div class=""stimulus-container"">
                        <img src=""images/causal_sequence/dog_causal/dog_causal_9.png"" class=""exp-image"">
                        <div class=""question-area""></div> 
                    </div>","null","","","","","","","",""
"","","","","","html-button-response","90","274308","0.0-90.0","14A935C873804DC38902F3900DF28F8E","019ce87d-9989-7348-bb6e-03409cbefbf1","019ce875-66c2-7f0b-b5e8-086c75889f84","","640","
                    <div class=""stimulus-container"">
                        <img src=""images/causal_sequence/dog_causal/dog_causal_9.png"" class=""exp-image"">
                        <div class=""question-area"">
                            <p style=""font-size: 20px; font-weight: bold; margin: 0;"">Is there a person in this image?</p>
                        </div>
                    </div>","0","main_causal_task","9","dog_causal","","","","",""
"","","","","","html-keyboard-response","91","275310","0.0-91.0","14A935C873804DC38902F3900DF28F8E","019ce87d-9989-7348-bb6e-03409cbefbf1","019ce875-66c2-7f0b-b5e8-086c75889f84","","null","<div style=""background-color: gray; width: 100vw; height: 100vh;""></div>","null","","","","","","","",""
"","","","","","html-keyboard-response","92","280316","0.0-92.0","14A935C873804DC38902F3900DF28F8E","019ce87d-9989-7348-bb6e-03409cbefbf1","019ce875-66c2-7f0b-b5e8-086c75889f84","","null","
                    <div class=""stimulus-container"">
                        <img src=""images/causal_sequence/coin_causal/coin_causal_1.png"" class=""exp-image"">
                        <div class=""question-area""></div> 
                    </div>","null","","","","","","","",""
"","","","","","html-button-response","93","281067","0.0-93.0","14A935C873804DC38902F3900DF28F8E","019ce87d-9989-7348-bb6e-03409cbefbf1","019ce875-66c2-7f0b-b5e8-086c75889f84","","747","
                    <div class=""stimulus-container"">
                        <img src=""images/causal_sequence/coin_causal/coin_causal_1.png"" class=""exp-image"">
                        <div class=""question-area"">
                            <p style=""font-size: 20px; font-weight: bold; margin: 0;"">Is there a person in this image?</p>
                        </div>
                    </div>","0","main_causal_task","1","coin_causal","","","","",""
"","","","","","html-keyboard-response","94","286070","0.0-94.0","14A935C873804DC38902F3900DF28F8E","019ce87d-9989-7348-bb6e-03409cbefbf1","019ce875-66c2-7f0b-b5e8-086c75889f84","","null","
                    <div class=""stimulus-container"">
                        <img src=""images/causal_sequence/coin_causal/coin_causal_2.png"" class=""exp-image"">
                        <div class=""question-area""></div> 
                    </div>","null","","","","","","","",""
"","","","","","html-button-response","95","286819","0.0-95.0","14A935C873804DC38902F3900DF28F8E","019ce87d-9989-7348-bb6e-03409cbefbf1","019ce875-66c2-7f0b-b5e8-086c75889f84","","744","
                    <div class=""stimulus-container"">
                        <img src=""images/causal_sequence/coin_causal/coin_causal_2.png"" class=""exp-image"">
                        <div class=""question-area"">
                            <p style=""font-size: 20px; font-weight: bold; margin: 0;"">Is there a person in this image?</p>
                        </div>
                    </div>","0","main_causal_task","2","coin_causal","","","","",""
"","","","","","html-keyboard-response","96","291822","0.0-96.0","14A935C873804DC38902F3900DF28F8E","019ce87d-9989-7348-bb6e-03409cbefbf1","019ce875-66c2-7f0b-b5e8-086c75889f84","","null","
                    <div class=""stimulus-container"">
                        <img src=""images/causal_sequence/coin_causal/coin_causal_3.png"" class=""exp-image"">
                        <div class=""question-area""></div> 
                    </div>","null","","","","","","","",""
"","","","","","html-button-response","97","292532","0.0-97.0","14A935C873804DC38902F3900DF28F8E","019ce87d-9989-7348-bb6e-03409cbefbf1","019ce875-66c2-7f0b-b5e8-086c75889f84","","705","
                    <div class=""stimulus-container"">
                        <img src=""images/causal_sequence/coin_causal/coin_causal_3.png"" class=""exp-image"">
                        <div class=""question-area"">
                            <p style=""font-size: 20px; font-weight: bold; margin: 0;"">Is there a person in this image?</p>
                        </div>
                    </div>","0","main_causal_task","3","coin_causal","","","","",""
"","","","","","html-keyboard-response","98","297538","0.0-98.0","14A935C873804DC38902F3900DF28F8E","019ce87d-9989-7348-bb6e-03409cbefbf1","019ce875-66c2-7f0b-b5e8-086c75889f84","","null","
                    <div class=""stimulus-container"">
                        <img src=""images/causal_sequence/coin_causal/coin_causal_4.png"" class=""exp-image"">
                        <div class=""question-area""></div> 
                    </div>","null","","","","","","","",""
"","","","","","html-button-response","99","298527","0.0-99.0","14A935C873804DC38902F3900DF28F8E","019ce87d-9989-7348-bb6e-03409cbefbf1","019ce875-66c2-7f0b-b5e8-086c75889f84","","986","
                    <div class=""stimulus-container"">
                        <img src=""images/causal_sequence/coin_causal/coin_causal_4.png"" class=""exp-image"">
                        <div class=""question-area"">
                            <p style=""font-size: 20px; font-weight: bold; margin: 0;"">Is there a person in this image?</p>
                        </div>
                    </div>","0","main_causal_task","4","coin_causal","","","","",""
"","","","","","html-keyboard-response","100","303529","0.0-100.0","14A935C873804DC38902F3900DF28F8E","019ce87d-9989-7348-bb6e-03409cbefbf1","019ce875-66c2-7f0b-b5e8-086c75889f84","","null","
                    <div class=""stimulus-container"">
                        <img src=""images/causal_sequence/coin_causal/coin_causal_5.png"" class=""exp-image"">
                        <div class=""question-area""></div> 
                    </div>","null","","","","","","","",""
"","","","","","html-button-response","101","304379","0.0-101.0","14A935C873804DC38902F3900DF28F8E","019ce87d-9989-7348-bb6e-03409cbefbf1","019ce875-66c2-7f0b-b5e8-086c75889f84","","845","
                    <div class=""stimulus-container"">
                        <img src=""images/causal_sequence/coin_causal/coin_causal_5.png"" class=""exp-image"">
                        <div class=""question-area"">
                            <p style=""font-size: 20px; font-weight: bold; margin: 0;"">Is there a person in this image?</p>
                        </div>
                    </div>","0","main_causal_task","5","coin_causal","","","","",""
"","","","","","html-keyboard-response","102","309382","0.0-102.0","14A935C873804DC38902F3900DF28F8E","019ce87d-9989-7348-bb6e-03409cbefbf1","019ce875-66c2-7f0b-b5e8-086c75889f84","","null","
                    <div class=""stimulus-container"">
                        <img src=""images/causal_sequence/coin_causal/coin_causal_6.png"" class=""exp-image"">
                        <div class=""question-area""></div> 
                    </div>","null","","","","","","","",""
"","","","","","html-button-response","103","310135","0.0-103.0","14A935C873804DC38902F3900DF28F8E","019ce87d-9989-7348-bb6e-03409cbefbf1","019ce875-66c2-7f0b-b5e8-086c75889f84","","749","
                    <div class=""stimulus-container"">
                        <img src=""images/causal_sequence/coin_causal/coin_causal_6.png"" class=""exp-image"">
                        <div class=""question-area"">
                            <p style=""font-size: 20px; font-weight: bold; margin: 0;"">Is there a person in this image?</p>
                        </div>
                    </div>","0","main_causal_task","6","coin_causal","","","","",""
"","","","","","html-keyboard-response","104","315138","0.0-104.0","14A935C873804DC38902F3900DF28F8E","019ce87d-9989-7348-bb6e-03409cbefbf1","019ce875-66c2-7f0b-b5e8-086c75889f84","","null","
                    <div class=""stimulus-container"">
                        <img src=""images/causal_sequence/coin_causal/coin_causal_7.png"" class=""exp-image"">
                        <div class=""question-area""></div> 
                    </div>","null","","","","","","","",""
"","","","","","html-button-response","105","316111","0.0-105.0","14A935C873804DC38902F3900DF28F8E","019ce87d-9989-7348-bb6e-03409cbefbf1","019ce875-66c2-7f0b-b5e8-086c75889f84","","969","
                    <div class=""stimulus-container"">
                        <img src=""images/causal_sequence/coin_causal/coin_causal_7.png"" class=""exp-image"">
                        <div class=""question-area"">
                            <p style=""font-size: 20px; font-weight: bold; margin: 0;"">Is there a person in this image?</p>
                        </div>
                    </div>","0","main_causal_task","7","coin_causal","","","","",""
"","","","","","html-keyboard-response","106","321114","0.0-106.0","14A935C873804DC38902F3900DF28F8E","019ce87d-9989-7348-bb6e-03409cbefbf1","019ce875-66c2-7f0b-b5e8-086c75889f84","","null","
                    <div class=""stimulus-container"">
                        <img src=""images/causal_sequence/coin_causal/coin_causal_8.png"" class=""exp-image"">
                        <div class=""question-area""></div> 
                    </div>","null","","","","","","","",""
"","","","","","html-button-response","107","321984","0.0-107.0","14A935C873804DC38902F3900DF28F8E","019ce87d-9989-7348-bb6e-03409cbefbf1","019ce875-66c2-7f0b-b5e8-086c75889f84","","865","
                    <div class=""stimulus-container"">
                        <img src=""images/causal_sequence/coin_causal/coin_causal_8.png"" class=""exp-image"">
                        <div class=""question-area"">
                            <p style=""font-size: 20px; font-weight: bold; margin: 0;"">Is there a person in this image?</p>
                        </div>
                    </div>","0","main_causal_task","8","coin_causal","","","","",""
"","","","","","html-keyboard-response","108","326987","0.0-108.0","14A935C873804DC38902F3900DF28F8E","019ce87d-9989-7348-bb6e-03409cbefbf1","019ce875-66c2-7f0b-b5e8-086c75889f84","","null","
                    <div class=""stimulus-container"">
                        <img src=""images/causal_sequence/coin_causal/coin_causal_9.png"" class=""exp-image"">
                        <div class=""question-area""></div> 
                    </div>","null","","","","","","","",""
"","","","","","html-button-response","109","327902","0.0-109.0","14A935C873804DC38902F3900DF28F8E","019ce87d-9989-7348-bb6e-03409cbefbf1","019ce875-66c2-7f0b-b5e8-086c75889f84","","911","
                    <div class=""stimulus-container"">
                        <img src=""images/causal_sequence/coin_causal/coin_causal_9.png"" class=""exp-image"">
                        <div class=""question-area"">
                            <p style=""font-size: 20px; font-weight: bold; margin: 0;"">Is there a person in this image?</p>
                        </div>
                    </div>","0","main_causal_task","9","coin_causal","","","","",""
"","","","","","html-keyboard-response","110","328904","0.0-110.0","14A935C873804DC38902F3900DF28F8E","019ce87d-9989-7348-bb6e-03409cbefbf1","019ce875-66c2-7f0b-b5e8-086c75889f84","","null","<div style=""background-color: gray; width: 100vw; height: 100vh;""></div>","null","","","","","","","",""
"","","","","","html-keyboard-response","111","333909","0.0-111.0","14A935C873804DC38902F3900DF28F8E","019ce87d-9989-7348-bb6e-03409cbefbf1","019ce875-66c2-7f0b-b5e8-086c75889f84","","null","
                    <div class=""stimulus-container"">
                        <img src=""images/causal_sequence/the_performance_causal/the_performance_causal_1.png"" class=""exp-image"">
                        <div class=""question-area""></div> 
                    </div>","null","","","","","","","",""
"","","","","","html-button-response","112","334709","0.0-112.0","14A935C873804DC38902F3900DF28F8E","019ce87d-9989-7348-bb6e-03409cbefbf1","019ce875-66c2-7f0b-b5e8-086c75889f84","","796","
                    <div class=""stimulus-container"">
                        <img src=""images/causal_sequence/the_performance_causal/the_performance_causal_1.png"" class=""exp-image"">
                        <div class=""question-area"">
                            <p style=""font-size: 20px; font-weight: bold; margin: 0;"">Is there a person in this image?</p>
                        </div>
                    </div>","0","main_causal_task","1","the_performance_causal","","","","",""
"","","","","","html-keyboard-response","113","339712","0.0-113.0","14A935C873804DC38902F3900DF28F8E","019ce87d-9989-7348-bb6e-03409cbefbf1","019ce875-66c2-7f0b-b5e8-086c75889f84","","null","
                    <div class=""stimulus-container"">
                        <img src=""images/causal_sequence/the_performance_causal/the_performance_causal_2.png"" class=""exp-image"">
                        <div class=""question-area""></div> 
                    </div>","null","","","","","","","",""
"","","","","","html-button-response","114","340690","0.0-114.0","14A935C873804DC38902F3900DF28F8E","019ce87d-9989-7348-bb6e-03409cbefbf1","019ce875-66c2-7f0b-b5e8-086c75889f84","","975","
                    <div class=""stimulus-container"">
                        <img src=""images/causal_sequence/the_performance_causal/the_performance_causal_2.png"" class=""exp-image"">
                        <div class=""question-area"">
                            <p style=""font-size: 20px; font-weight: bold; margin: 0;"">Is there a person in this image?</p>
                        </div>
                    </div>","0","main_causal_task","2","the_performance_causal","","","","",""
"","","","","","html-keyboard-response","115","345692","0.0-115.0","14A935C873804DC38902F3900DF28F8E","019ce87d-9989-7348-bb6e-03409cbefbf1","019ce875-66c2-7f0b-b5e8-086c75889f84","","null","
                    <div class=""stimulus-container"">
                        <img src=""images/causal_sequence/the_performance_causal/the_performance_causal_3.png"" class=""exp-image"">
                        <div class=""question-area""></div> 
                    </div>","null","","","","","","","",""
"","","","","","html-button-response","116","346689","0.0-116.0","14A935C873804DC38902F3900DF28F8E","019ce87d-9989-7348-bb6e-03409cbefbf1","019ce875-66c2-7f0b-b5e8-086c75889f84","","994","
                    <div class=""stimulus-container"">
                        <img src=""images/causal_sequence/the_performance_causal/the_performance_causal_3.png"" class=""exp-image"">
                        <div class=""question-area"">
                            <p style=""font-size: 20px; font-weight: bold; margin: 0;"">Is there a person in this image?</p>
                        </div>
                    </div>","0","main_causal_task","3","the_performance_causal","","","","",""
"","","","","","html-keyboard-response","117","351691","0.0-117.0","14A935C873804DC38902F3900DF28F8E","019ce87d-9989-7348-bb6e-03409cbefbf1","019ce875-66c2-7f0b-b5e8-086c75889f84","","null","
                    <div class=""stimulus-container"">
                        <img src=""images/causal_sequence/the_performance_causal/the_performance_causal_4.png"" class=""exp-image"">
                        <div class=""question-area""></div> 
                    </div>","null","","","","","","","",""
"","","","","","html-button-response","118","352704","0.0-118.0","14A935C873804DC38902F3900DF28F8E","019ce87d-9989-7348-bb6e-03409cbefbf1","019ce875-66c2-7f0b-b5e8-086c75889f84","","1009","
                    <div class=""stimulus-container"">
                        <img src=""images/causal_sequence/the_performance_causal/the_performance_causal_4.png"" class=""exp-image"">
                        <div class=""question-area"">
                            <p style=""font-size: 20px; font-weight: bold; margin: 0;"">Is there a person in this image?</p>
                        </div>
                    </div>","0","main_causal_task","4","the_performance_causal","","","","",""
"","","","","","html-keyboard-response","119","357708","0.0-119.0","14A935C873804DC38902F3900DF28F8E","019ce87d-9989-7348-bb6e-03409cbefbf1","019ce875-66c2-7f0b-b5e8-086c75889f84","","null","
                    <div class=""stimulus-container"">
                        <img src=""images/causal_sequence/the_performance_causal/the_performance_causal_5.png"" class=""exp-image"">
                        <div class=""question-area""></div> 
                    </div>","null","","","","","","","",""
"","","","","","html-button-response","120","358899","0.0-120.0","14A935C873804DC38902F3900DF28F8E","019ce87d-9989-7348-bb6e-03409cbefbf1","019ce875-66c2-7f0b-b5e8-086c75889f84","","1187","
                    <div class=""stimulus-container"">
                        <img src=""images/causal_sequence/the_performance_causal/the_performance_causal_5.png"" class=""exp-image"">
                        <div class=""question-area"">
                            <p style=""font-size: 20px; font-weight: bold; margin: 0;"">Is there a person in this image?</p>
                        </div>
                    </div>","0","main_causal_task","5","the_performance_causal","","","","",""
"","","","","","html-keyboard-response","121","363902","0.0-121.0","14A935C873804DC38902F3900DF28F8E","019ce87d-9989-7348-bb6e-03409cbefbf1","019ce875-66c2-7f0b-b5e8-086c75889f84","","null","
                    <div class=""stimulus-container"">
                        <img src=""images/causal_sequence/the_performance_causal/the_performance_causal_6.png"" class=""exp-image"">
                        <div class=""question-area""></div> 
                    </div>","null","","","","","","","",""
"","","","","","html-button-response","122","366908","0.0-122.0","14A935C873804DC38902F3900DF28F8E","019ce87d-9989-7348-bb6e-03409cbefbf1","019ce875-66c2-7f0b-b5e8-086c75889f84","","null","
                    <div class=""stimulus-container"">
                        <img src=""images/causal_sequence/the_performance_causal/the_performance_causal_6.png"" class=""exp-image"">
                        <div class=""question-area"">
                            <p style=""font-size: 20px; font-weight: bold; margin: 0;"">Is there a person in this image?</p>
                        </div>
                    </div>","null","main_causal_task","6","the_performance_causal","","","","",""
"","","","","","html-keyboard-response","123","371915","0.0-123.0","14A935C873804DC38902F3900DF28F8E","019ce87d-9989-7348-bb6e-03409cbefbf1","019ce875-66c2-7f0b-b5e8-086c75889f84","","null","
                    <div class=""stimulus-container"">
                        <img src=""images/causal_sequence/the_performance_causal/the_performance_causal_7.png"" class=""exp-image"">
                        <div class=""question-area""></div> 
                    </div>","null","","","","","","","",""
"","","","","","html-button-response","124","372583","0.0-124.0","14A935C873804DC38902F3900DF28F8E","019ce87d-9989-7348-bb6e-03409cbefbf1","019ce875-66c2-7f0b-b5e8-086c75889f84","","664","
                    <div class=""stimulus-container"">
                        <img src=""images/causal_sequence/the_performance_causal/the_performance_causal_7.png"" class=""exp-image"">
                        <div class=""question-area"">
                            <p style=""font-size: 20px; font-weight: bold; margin: 0;"">Is there a person in this image?</p>
                        </div>
                    </div>","0","main_causal_task","7","the_performance_causal","","","","",""
"","","","","","html-keyboard-response","125","377586","0.0-125.0","14A935C873804DC38902F3900DF28F8E","019ce87d-9989-7348-bb6e-03409cbefbf1","019ce875-66c2-7f0b-b5e8-086c75889f84","","null","
                    <div class=""stimulus-container"">
                        <img src=""images/causal_sequence/the_performance_causal/the_performance_causal_8.png"" class=""exp-image"">
                        <div class=""question-area""></div> 
                    </div>","null","","","","","","","",""
"","","","","","html-button-response","126","378526","0.0-126.0","14A935C873804DC38902F3900DF28F8E","019ce87d-9989-7348-bb6e-03409cbefbf1","019ce875-66c2-7f0b-b5e8-086c75889f84","","935","
                    <div class=""stimulus-container"">
                        <img src=""images/causal_sequence/the_performance_causal/the_performance_causal_8.png"" class=""exp-image"">
                        <div class=""question-area"">
                            <p style=""font-size: 20px; font-weight: bold; margin: 0;"">Is there a person in this image?</p>
                        </div>
                    </div>","0","main_causal_task","8","the_performance_causal","","","","",""
"","","","","","html-keyboard-response","127","383528","0.0-127.0","14A935C873804DC38902F3900DF28F8E","019ce87d-9989-7348-bb6e-03409cbefbf1","019ce875-66c2-7f0b-b5e8-086c75889f84","","null","
                    <div class=""stimulus-container"">
                        <img src=""images/causal_sequence/the_performance_causal/the_performance_causal_9.png"" class=""exp-image"">
                        <div class=""question-area""></div> 
                    </div>","null","","","","","","","",""
"","","","","","html-button-response","128","384135","0.0-128.0","14A935C873804DC38902F3900DF28F8E","019ce87d-9989-7348-bb6e-03409cbefbf1","019ce875-66c2-7f0b-b5e8-086c75889f84","","603","
                    <div class=""stimulus-container"">
                        <img src=""images/causal_sequence/the_performance_causal/the_performance_causal_9.png"" class=""exp-image"">
                        <div class=""question-area"">
                            <p style=""font-size: 20px; font-weight: bold; margin: 0;"">Is there a person in this image?</p>
                        </div>
                    </div>","0","main_causal_task","9","the_performance_causal","","","","",""
"","","","","","instructions","129","385426","0.0-129.0","14A935C873804DC38902F3900DF28F8E","019ce87d-9989-7348-bb6e-03409cbefbf1","019ce875-66c2-7f0b-b5e8-086c75889f84","[{""page_index"":0,""viewing_time"":1291}]","1291","","","","","","","","","",""
"","","","","","instructions","130","390020","0.0-130.0","14A935C873804DC38902F3900DF28F8E","019ce87d-9989-7348-bb6e-03409cbefbf1","019ce875-66c2-7f0b-b5e8-086c75889f84","[{""page_index"":0,""viewing_time"":4593}]","4593","","","","","","","","","",""
"","","","","","html-button-response","131","392742","0.0-131.0-0.0","14A935C873804DC38902F3900DF28F8E","019ce87d-9989-7348-bb6e-03409cbefbf1","019ce875-66c2-7f0b-b5e8-086c75889f84","","2722","
                <div style=""margin-bottom:20px;""><h3>Example: Valuable Image</h3></div>
                <div class=""stimulus-container"" style=""display: flex; align-items: center; justify-content: center; gap: 30px;"">
                    <img src=""images/instructions/movie_1.png"" class=""exp-image"">
                    <div style=""font-size: 35px; font-weight: bold; color: green; border: 5px solid green; padding: 20px; border-radius: 15px; background-color: #f0fff0;"">
                        WORTH<br>$1
                    </div>
                </div>
                <div class=""question-area""><p>Was there a person in this image?</p></div>","0","","","","","","","",""
"","","","","","html-button-response","132","395021","0.0-131.0-1.0","14A935C873804DC38902F3900DF28F8E","019ce87d-9989-7348-bb6e-03409cbefbf1","019ce875-66c2-7f0b-b5e8-086c75889f84","","2278","
                <div style=""margin-bottom:20px;""><h3>Example: Neutral Image</h3></div>
                <div class=""stimulus-container"" style=""display: flex; align-items: center; justify-content: center; gap: 30px;"">
                    <img src=""images/instructions/movie_2.png"" class=""exp-image"">
                    <div style=""font-size: 35px; font-weight: bold; color: grey; border: 5px solid grey; padding: 20px; border-radius: 15px; background-color: #f0f0f0;"">
                        NEUTRAL<br>VALUE
                    </div>
                </div>
                <div class=""question-area""><p>Was there a person in this image?</p></div>","0","","","","","","","",""
"","","","","","html-keyboard-response","133","403022","0.0-132.0","14A935C873804DC38902F3900DF28F8E","019ce87d-9989-7348-bb6e-03409cbefbf1","019ce875-66c2-7f0b-b5e8-086c75889f84","","null","
            <div class=""stimulus-container"" style=""display: flex; align-items: center; justify-content: center; gap: 30px;"">
                <img src=""images/causal_sequence/the_performance_causal/the_performance_causal_4.png"" class=""exp-image"">
                <div style=""font-size: 40px; font-weight: bold; color: green; border: 5px solid green; padding: 25px; border-radius: 15px; background-color: #f0fff0;"">
                    WORTH<br>$1
                </div>
            </div>
            <div class=""question-area""></div>","null","","","","","","","",""
"","","","","","html-button-response","134","404825","0.0-133.0","14A935C873804DC38902F3900DF28F8E","019ce87d-9989-7348-bb6e-03409cbefbf1","019ce875-66c2-7f0b-b5e8-086c75889f84","","1803","
            <div class=""stimulus-container"" style=""display: flex; align-items: center; justify-content: center; gap: 30px;"">
                <img src=""images/causal_sequence/the_performance_causal/the_performance_causal_4.png"" class=""exp-image"">
                <div style=""font-size: 40px; font-weight: bold; color: green; border: 5px solid green; padding: 25px; border-radius: 15px; background-color: #f0fff0;"">
                    WORTH<br>$1
                </div>
            </div>
            <div class=""question-area"">
                <p style=""font-size: 20px; font-weight: bold; margin: 0;"">Was there a person in this image?</p>
            </div>","0","part2_value_learning","","the_performance_causal","4","valuable","","",""
"","","","","","html-keyboard-response","135","412829","0.0-134.0","14A935C873804DC38902F3900DF28F8E","019ce87d-9989-7348-bb6e-03409cbefbf1","019ce875-66c2-7f0b-b5e8-086c75889f84","","null","
            <div class=""stimulus-container"" style=""display: flex; align-items: center; justify-content: center; gap: 30px;"">
                <img src=""images/causal_sequence/dog_causal/dog_causal_4.png"" class=""exp-image"">
                <div style=""font-size: 40px; font-weight: bold; color: green; border: 5px solid green; padding: 25px; border-radius: 15px; background-color: #f0fff0;"">
                    WORTH<br>$1
                </div>
            </div>
            <div class=""question-area""></div>","null","","","","","","","",""
"","","","","","html-button-response","136","413807","0.0-135.0","14A935C873804DC38902F3900DF28F8E","019ce87d-9989-7348-bb6e-03409cbefbf1","019ce875-66c2-7f0b-b5e8-086c75889f84","","973","
            <div class=""stimulus-container"" style=""display: flex; align-items: center; justify-content: center; gap: 30px;"">
                <img src=""images/causal_sequence/dog_causal/dog_causal_4.png"" class=""exp-image"">
                <div style=""font-size: 40px; font-weight: bold; color: green; border: 5px solid green; padding: 25px; border-radius: 15px; background-color: #f0fff0;"">
                    WORTH<br>$1
                </div>
            </div>
            <div class=""question-area"">
                <p style=""font-size: 20px; font-weight: bold; margin: 0;"">Was there a person in this image?</p>
            </div>","0","part2_value_learning","","dog_causal","4","valuable","","",""
"","","","","","html-keyboard-response","137","421810","0.0-136.0","14A935C873804DC38902F3900DF28F8E","019ce87d-9989-7348-bb6e-03409cbefbf1","019ce875-66c2-7f0b-b5e8-086c75889f84","","null","
            <div class=""stimulus-container"" style=""display: flex; align-items: center; justify-content: center; gap: 30px;"">
                <img src=""images/causal_sequence/package_causal/package_causal_3.png"" class=""exp-image"">
                <div style=""font-size: 40px; font-weight: bold; color: green; border: 5px solid green; padding: 25px; border-radius: 15px; background-color: #f0fff0;"">
                    WORTH<br>$1
                </div>
            </div>
            <div class=""question-area""></div>","null","","","","","","","",""
"","","","","","html-button-response","138","422656","0.0-137.0","14A935C873804DC38902F3900DF28F8E","019ce87d-9989-7348-bb6e-03409cbefbf1","019ce875-66c2-7f0b-b5e8-086c75889f84","","842","
            <div class=""stimulus-container"" style=""display: flex; align-items: center; justify-content: center; gap: 30px;"">
                <img src=""images/causal_sequence/package_causal/package_causal_3.png"" class=""exp-image"">
                <div style=""font-size: 40px; font-weight: bold; color: green; border: 5px solid green; padding: 25px; border-radius: 15px; background-color: #f0fff0;"">
                    WORTH<br>$1
                </div>
            </div>
            <div class=""question-area"">
                <p style=""font-size: 20px; font-weight: bold; margin: 0;"">Was there a person in this image?</p>
            </div>","0","part2_value_learning","","package_causal","3","valuable","","",""
"","","","","","html-keyboard-response","139","430657","0.0-138.0","14A935C873804DC38902F3900DF28F8E","019ce87d-9989-7348-bb6e-03409cbefbf1","019ce875-66c2-7f0b-b5e8-086c75889f84","","null","
            <div class=""stimulus-container"" style=""display: flex; align-items: center; justify-content: center; gap: 30px;"">
                <img src=""images/causal_sequence/saving_a_cat_causal/saving_a_cat_causal_7.png"" class=""exp-image"">
                <div style=""font-size: 40px; font-weight: bold; color: grey; border: 5px solid grey; padding: 25px; border-radius: 15px; background-color: #f0f0f0;"">
                    NEUTRAL<br>VALUE
                </div>
            </div>
            <div class=""question-area""></div>","null","","","","","","","",""
"","","","","","html-button-response","140","433022","0.0-139.0","14A935C873804DC38902F3900DF28F8E","019ce87d-9989-7348-bb6e-03409cbefbf1","019ce875-66c2-7f0b-b5e8-086c75889f84","","2365","
            <div class=""stimulus-container"" style=""display: flex; align-items: center; justify-content: center; gap: 30px;"">
                <img src=""images/causal_sequence/saving_a_cat_causal/saving_a_cat_causal_7.png"" class=""exp-image"">
                <div style=""font-size: 40px; font-weight: bold; color: grey; border: 5px solid grey; padding: 25px; border-radius: 15px; background-color: #f0f0f0;"">
                    NEUTRAL<br>VALUE
                </div>
            </div>
            <div class=""question-area"">
                <p style=""font-size: 20px; font-weight: bold; margin: 0;"">Was there a person in this image?</p>
            </div>","0","part2_value_learning","","saving_a_cat_causal","7","neutral","","",""
"","","","","","html-keyboard-response","141","441026","0.0-140.0","14A935C873804DC38902F3900DF28F8E","019ce87d-9989-7348-bb6e-03409cbefbf1","019ce875-66c2-7f0b-b5e8-086c75889f84","","null","
            <div class=""stimulus-container"" style=""display: flex; align-items: center; justify-content: center; gap: 30px;"">
                <img src=""images/causal_sequence/coin_causal/coin_causal_3.png"" class=""exp-image"">
                <div style=""font-size: 40px; font-weight: bold; color: grey; border: 5px solid grey; padding: 25px; border-radius: 15px; background-color: #f0f0f0;"">
                    NEUTRAL<br>VALUE
                </div>
            </div>
            <div class=""question-area""></div>","null","","","","","","","",""
"","","","","","html-button-response","142","441982","0.0-141.0","14A935C873804DC38902F3900DF28F8E","019ce87d-9989-7348-bb6e-03409cbefbf1","019ce875-66c2-7f0b-b5e8-086c75889f84","","952","
            <div class=""stimulus-container"" style=""display: flex; align-items: center; justify-content: center; gap: 30px;"">
                <img src=""images/causal_sequence/coin_causal/coin_causal_3.png"" class=""exp-image"">
                <div style=""font-size: 40px; font-weight: bold; color: grey; border: 5px solid grey; padding: 25px; border-radius: 15px; background-color: #f0f0f0;"">
                    NEUTRAL<br>VALUE
                </div>
            </div>
            <div class=""question-area"">
                <p style=""font-size: 20px; font-weight: bold; margin: 0;"">Was there a person in this image?</p>
            </div>","0","part2_value_learning","","coin_causal","3","neutral","","",""
"","","","","","html-keyboard-response","143","449987","0.0-142.0","14A935C873804DC38902F3900DF28F8E","019ce87d-9989-7348-bb6e-03409cbefbf1","019ce875-66c2-7f0b-b5e8-086c75889f84","","null","
            <div class=""stimulus-container"" style=""display: flex; align-items: center; justify-content: center; gap: 30px;"">
                <img src=""images/causal_sequence/museum_causal/museum_causal_4.png"" class=""exp-image"">
                <div style=""font-size: 40px; font-weight: bold; color: grey; border: 5px solid grey; padding: 25px; border-radius: 15px; background-color: #f0f0f0;"">
                    NEUTRAL<br>VALUE
                </div>
            </div>
            <div class=""question-area""></div>","null","","","","","","","",""
"","","","","","html-button-response","144","450793","0.0-143.0","14A935C873804DC38902F3900DF28F8E","019ce87d-9989-7348-bb6e-03409cbefbf1","019ce875-66c2-7f0b-b5e8-086c75889f84","","802","
            <div class=""stimulus-container"" style=""display: flex; align-items: center; justify-content: center; gap: 30px;"">
                <img src=""images/causal_sequence/museum_causal/museum_causal_4.png"" class=""exp-image"">
                <div style=""font-size: 40px; font-weight: bold; color: grey; border: 5px solid grey; padding: 25px; border-radius: 15px; background-color: #f0f0f0;"">
                    NEUTRAL<br>VALUE
                </div>
            </div>
            <div class=""question-area"">
                <p style=""font-size: 20px; font-weight: bold; margin: 0;"">Was there a person in this image?</p>
            </div>","1","part2_value_learning","","museum_causal","4","neutral","","",""
"","","","","","instructions","145","452441","0.0-144.0","14A935C873804DC38902F3900DF28F8E","019ce87d-9989-7348-bb6e-03409cbefbf1","019ce875-66c2-7f0b-b5e8-086c75889f84","[{""page_index"":0,""viewing_time"":1647}]","1647","","","","","","","","","",""
"","","","","","html-keyboard-response","146","462442","0.0-145.0-0.0","14A935C873804DC38902F3900DF28F8E","019ce87d-9989-7348-bb6e-03409cbefbf1","019ce875-66c2-7f0b-b5e8-086c75889f84","","null","
                        <div style=""font-family: Arial; margin-bottom: 20px;""><h3>Which image is more valuable?</h3></div>
                        <div class=""stimulus-container"" style=""display: flex; width: 1100px; justify-content: center; gap: 50px;"">
                            <img src=""images/causal_sequence/saving_a_cat_causal/saving_a_cat_causal_8.png"" class=""exp-image"">
                            <img src=""images/causal_sequence/saving_a_cat_causal/saving_a_cat_causal_6.png"" class=""exp-image"">
                        </div>","null","","","","","","","",""
"","","","","","html-button-response","147","465281","0.0-145.0-1.0","14A935C873804DC38902F3900DF28F8E","019ce87d-9989-7348-bb6e-03409cbefbf1","019ce875-66c2-7f0b-b5e8-086c75889f84","","2837","
                        <div style=""font-family: Arial; margin-bottom: 20px;""><h3>Which image is more valuable?</h3></div>
                        <div class=""stimulus-container"" style=""display: flex; width: 1100px; justify-content: center; gap: 50px;"">
                            <img src=""images/causal_sequence/saving_a_cat_causal/saving_a_cat_causal_8.png"" class=""exp-image"">
                            <img src=""images/causal_sequence/saving_a_cat_causal/saving_a_cat_causal_6.png"" class=""exp-image"">
                        </div>","1","part3_final_choice","","saving_a_cat_causal","","neutral","7","6","-1"
"","","","","","html-keyboard-response","148","475285","0.0-146.0-0.0","14A935C873804DC38902F3900DF28F8E","019ce87d-9989-7348-bb6e-03409cbefbf1","019ce875-66c2-7f0b-b5e8-086c75889f84","","null","
                        <div style=""font-family: Arial; margin-bottom: 20px;""><h3>Which image is more valuable?</h3></div>
                        <div class=""stimulus-container"" style=""display: flex; width: 1100px; justify-content: center; gap: 50px;"">
                            <img src=""images/causal_sequence/coin_causal/coin_causal_4.png"" class=""exp-image"">
                            <img src=""images/causal_sequence/coin_causal/coin_causal_2.png"" class=""exp-image"">
                        </div>","null","","","","","","","",""
"","","","","","html-button-response","149","476167","0.0-146.0-1.0","14A935C873804DC38902F3900DF28F8E","019ce87d-9989-7348-bb6e-03409cbefbf1","019ce875-66c2-7f0b-b5e8-086c75889f84","","877","
                        <div style=""font-family: Arial; margin-bottom: 20px;""><h3>Which image is more valuable?</h3></div>
                        <div class=""stimulus-container"" style=""display: flex; width: 1100px; justify-content: center; gap: 50px;"">
                            <img src=""images/causal_sequence/coin_causal/coin_causal_4.png"" class=""exp-image"">
                            <img src=""images/causal_sequence/coin_causal/coin_causal_2.png"" class=""exp-image"">
                        </div>","0","part3_final_choice","","coin_causal","","neutral","3","4","1"
"","","","","","html-keyboard-response","150","486172","0.0-147.0-0.0","14A935C873804DC38902F3900DF28F8E","019ce87d-9989-7348-bb6e-03409cbefbf1","019ce875-66c2-7f0b-b5e8-086c75889f84","","null","
                        <div style=""font-family: Arial; margin-bottom: 20px;""><h3>Which image is more valuable?</h3></div>
                        <div class=""stimulus-container"" style=""display: flex; width: 1100px; justify-content: center; gap: 50px;"">
                            <img src=""images/causal_sequence/the_performance_causal/the_performance_causal_3.png"" class=""exp-image"">
                            <img src=""images/causal_sequence/the_performance_causal/the_performance_causal_5.png"" class=""exp-image"">
                        </div>","null","","","","","","","",""
"","","","","","html-button-response","151","486974","0.0-147.0-1.0","14A935C873804DC38902F3900DF28F8E","019ce87d-9989-7348-bb6e-03409cbefbf1","019ce875-66c2-7f0b-b5e8-086c75889f84","","797","
                        <div style=""font-family: Arial; margin-bottom: 20px;""><h3>Which image is more valuable?</h3></div>
                        <div class=""stimulus-container"" style=""display: flex; width: 1100px; justify-content: center; gap: 50px;"">
                            <img src=""images/causal_sequence/the_performance_causal/the_performance_causal_3.png"" class=""exp-image"">
                            <img src=""images/causal_sequence/the_performance_causal/the_performance_causal_5.png"" class=""exp-image"">
                        </div>","1","part3_final_choice","","the_performance_causal","","valuable","4","5","1"
"","","","","","html-keyboard-response","152","496977","0.0-148.0-0.0","14A935C873804DC38902F3900DF28F8E","019ce87d-9989-7348-bb6e-03409cbefbf1","019ce875-66c2-7f0b-b5e8-086c75889f84","","null","
                        <div style=""font-family: Arial; margin-bottom: 20px;""><h3>Which image is more valuable?</h3></div>
                        <div class=""stimulus-container"" style=""display: flex; width: 1100px; justify-content: center; gap: 50px;"">
                            <img src=""images/causal_sequence/museum_causal/museum_causal_5.png"" class=""exp-image"">
                            <img src=""images/causal_sequence/museum_causal/museum_causal_3.png"" class=""exp-image"">
                        </div>","null","","","","","","","",""
"","","","","","html-button-response","153","497855","0.0-148.0-1.0","14A935C873804DC38902F3900DF28F8E","019ce87d-9989-7348-bb6e-03409cbefbf1","019ce875-66c2-7f0b-b5e8-086c75889f84","","872","
                        <div style=""font-family: Arial; margin-bottom: 20px;""><h3>Which image is more valuable?</h3></div>
                        <div class=""stimulus-container"" style=""display: flex; width: 1100px; justify-content: center; gap: 50px;"">
                            <img src=""images/causal_sequence/museum_causal/museum_causal_5.png"" class=""exp-image"">
                            <img src=""images/causal_sequence/museum_causal/museum_causal_3.png"" class=""exp-image"">
                        </div>","0","part3_final_choice","","museum_causal","","neutral","4","5","1"
"","","","","","html-keyboard-response","154","507859","0.0-149.0-0.0","14A935C873804DC38902F3900DF28F8E","019ce87d-9989-7348-bb6e-03409cbefbf1","019ce875-66c2-7f0b-b5e8-086c75889f84","","null","
                        <div style=""font-family: Arial; margin-bottom: 20px;""><h3>Which image is more valuable?</h3></div>
                        <div class=""stimulus-container"" style=""display: flex; width: 1100px; justify-content: center; gap: 50px;"">
                            <img src=""images/causal_sequence/package_causal/package_causal_2.png"" class=""exp-image"">
                            <img src=""images/causal_sequence/package_causal/package_causal_4.png"" class=""exp-image"">
                        </div>","null","","","","","","","",""
"","","","","","html-button-response","155","508653","0.0-149.0-1.0","14A935C873804DC38902F3900DF28F8E","019ce87d-9989-7348-bb6e-03409cbefbf1","019ce875-66c2-7f0b-b5e8-086c75889f84","","789","
                        <div style=""font-family: Arial; margin-bottom: 20px;""><h3>Which image is more valuable?</h3></div>
                        <div class=""stimulus-container"" style=""display: flex; width: 1100px; justify-content: center; gap: 50px;"">
                            <img src=""images/causal_sequence/package_causal/package_causal_2.png"" class=""exp-image"">
                            <img src=""images/causal_sequence/package_causal/package_causal_4.png"" class=""exp-image"">
                        </div>","0","part3_final_choice","","package_causal","","valuable","3","2","-1"
"","","","","","html-keyboard-response","156","518657","0.0-150.0-0.0","14A935C873804DC38902F3900DF28F8E","019ce87d-9989-7348-bb6e-03409cbefbf1","019ce875-66c2-7f0b-b5e8-086c75889f84","","null","
                        <div style=""font-family: Arial; margin-bottom: 20px;""><h3>Which image is more valuable?</h3></div>
                        <div class=""stimulus-container"" style=""display: flex; width: 1100px; justify-content: center; gap: 50px;"">
                            <img src=""images/causal_sequence/dog_causal/dog_causal_3.png"" class=""exp-image"">
                            <img src=""images/causal_sequence/dog_causal/dog_causal_5.png"" class=""exp-image"">
                        </div>","null","","","","","","","",""
"","","","","","html-button-response","157","519520","0.0-150.0-1.0","14A935C873804DC38902F3900DF28F8E","019ce87d-9989-7348-bb6e-03409cbefbf1","019ce875-66c2-7f0b-b5e8-086c75889f84","","857","
                        <div style=""font-family: Arial; margin-bottom: 20px;""><h3>Which image is more valuable?</h3></div>
                        <div class=""stimulus-container"" style=""display: flex; width: 1100px; justify-content: center; gap: 50px;"">
                            <img src=""images/causal_sequence/dog_causal/dog_causal_3.png"" class=""exp-image"">
                            <img src=""images/causal_sequence/dog_causal/dog_causal_5.png"" class=""exp-image"">
                        </div>","1","part3_final_choice","","dog_causal","","valuable","4","5","1"
"","","","","","survey-text","158","554832","0.0-151.0","14A935C873804DC38902F3900DF28F8E","019ce87d-9989-7348-bb6e-03409cbefbf1","019ce875-66c2-7f0b-b5e8-086c75889f84","","35280","","{""gender"":""Male"",""age"":""34"",""decision_strategy"":""How I perceived it's value "",""consistency_check"":""Same logic ""}","demographics_and_strategy","","","","","","",""
"","","","","","instructions","159","561019","0.0-152.0","14A935C873804DC38902F3900DF28F8E","019ce87d-9989-7348-bb6e-03409cbefbf1","019ce875-66c2-7f0b-b5e8-086c75889f84","[{""page_index"":0,""viewing_time"":6186}]","6187","","","","","","","","","",""
