"success","timeout","failed_images","failed_audio","failed_video","trial_type","trial_index","time_elapsed","internal_node_id","view_history","rt","stimulus","response","task","folder","sequence_type","image_index","reward_type","valuable_image_index","selected_after_X","correct_choice"
"true","false","[]","[]","[]","preload","0","8014","0.0-0.0","","","","","","","","","","","",""
"","","","","","instructions","1","9290","0.0-1.0","[{""page_index"":0,""viewing_time"":1274}]","1275","","","","","","","","","",""
"","","","","","instructions","2","51229","0.0-2.0","[{""page_index"":0,""viewing_time"":41937}]","41938","","","","","","","","","",""
"true","","","","","fullscreen","3","53610","0.0-3.0","","1363","","","","","","","","","",""
"","","","","","instructions","4","56343","0.0-4.0","[{""page_index"":0,""viewing_time"":2732}]","2733","","","","","","","","","",""
"","","","","","instructions","5","57978","0.0-5.0","[{""page_index"":0,""viewing_time"":1634}]","1634","","","","","","","","","",""
"","","","","","html-keyboard-response","6","60995","0.0-6.0","","null","<div class=""stimulus-container""><img src=""images/instructions/movie_1.png"" class=""exp-image""><div class=""question-area""></div></div>","null","","","","","","","",""
"","","","","","html-button-response","7","65697","0.0-7.0","","4700","<div class=""stimulus-container""><img src=""images/instructions/movie_1.png"" class=""exp-image""><div class=""question-area""><p>Is there a person?</p></div></div>","0","","","","","","","",""
"","","","","","html-keyboard-response","8","68701","0.0-8.0","","null","<div class=""stimulus-container""><img src=""images/instructions/movie_2.png"" class=""exp-image""><div class=""question-area""></div></div>","null","","","","","","","",""
"","","","","","html-button-response","9","70383","0.0-9.0","","1680","<div class=""stimulus-container""><img src=""images/instructions/movie_2.png"" class=""exp-image""><div class=""question-area""><p>Is there a person?</p></div></div>","0","","","","","","","",""
"","","","","","html-keyboard-response","10","73394","0.0-10.0","","null","<div class=""stimulus-container""><img src=""images/instructions/movie_3.png"" class=""exp-image""><div class=""question-area""></div></div>","null","","","","","","","",""
"","","","","","html-button-response","11","74211","0.0-11.0","","815","<div class=""stimulus-container""><img src=""images/instructions/movie_3.png"" class=""exp-image""><div class=""question-area""><p>Is there a person?</p></div></div>","0","","","","","","","",""
"","","","","","instructions","12","75461","0.0-12.0","[{""page_index"":0,""viewing_time"":1249}]","1250","","","","","","","","","",""
"","","","","","html-keyboard-response","13","77470","0.0-13.0","","null","<div style=""background-color: white; width: 100vw; height: 100vh;""></div>","null","","","","","","","",""
"","","","","","html-keyboard-response","14","81478","0.0-14.0","","null","<div class=""stimulus-container""><img src=""images/semantic_sequence/self_care_activities_semantic/self_care_activities_semantic_1.png"" class=""exp-image""></div>","null","","","","","","","",""
"","","","","","html-button-response","15","82545","0.0-15.0","","1066","<div class=""stimulus-container""><img src=""images/semantic_sequence/self_care_activities_semantic/self_care_activities_semantic_1.png"" class=""exp-image""><div class=""question-area""><p>Is there a person?</p></div></div>","0","observation","self_care_activities_semantic","semantic_sequence","1","","","",""
"","","","","","html-keyboard-response","16","86562","0.0-16.0","","null","<div class=""stimulus-container""><img src=""images/semantic_sequence/self_care_activities_semantic/self_care_activities_semantic_2.png"" class=""exp-image""></div>","null","","","","","","","",""
"","","","","","html-button-response","17","87039","0.0-17.0","","476","<div class=""stimulus-container""><img src=""images/semantic_sequence/self_care_activities_semantic/self_care_activities_semantic_2.png"" class=""exp-image""><div class=""question-area""><p>Is there a person?</p></div></div>","0","observation","self_care_activities_semantic","semantic_sequence","2","","","",""
"","","","","","html-keyboard-response","18","91045","0.0-18.0","","null","<div class=""stimulus-container""><img src=""images/semantic_sequence/self_care_activities_semantic/self_care_activities_semantic_3.png"" class=""exp-image""></div>","null","","","","","","","",""
"","","","","","html-button-response","19","91774","0.0-19.0","","727","<div class=""stimulus-container""><img src=""images/semantic_sequence/self_care_activities_semantic/self_care_activities_semantic_3.png"" class=""exp-image""><div class=""question-area""><p>Is there a person?</p></div></div>","0","observation","self_care_activities_semantic","semantic_sequence","3","","","",""
"","","","","","html-keyboard-response","20","95786","0.0-20.0","","null","<div class=""stimulus-container""><img src=""images/semantic_sequence/self_care_activities_semantic/self_care_activities_semantic_4.png"" class=""exp-image""></div>","null","","","","","","","",""
"","","","","","html-button-response","21","96325","0.0-21.0","","537","<div class=""stimulus-container""><img src=""images/semantic_sequence/self_care_activities_semantic/self_care_activities_semantic_4.png"" class=""exp-image""><div class=""question-area""><p>Is there a person?</p></div></div>","0","observation","self_care_activities_semantic","semantic_sequence","4","","","",""
"","","","","","html-keyboard-response","22","100338","0.0-22.0","","null","<div class=""stimulus-container""><img src=""images/semantic_sequence/self_care_activities_semantic/self_care_activities_semantic_5.png"" class=""exp-image""></div>","null","","","","","","","",""
"","","","","","html-button-response","23","100892","0.0-23.0","","551","<div class=""stimulus-container""><img src=""images/semantic_sequence/self_care_activities_semantic/self_care_activities_semantic_5.png"" class=""exp-image""><div class=""question-area""><p>Is there a person?</p></div></div>","0","observation","self_care_activities_semantic","semantic_sequence","5","","","",""
"","","","","","html-keyboard-response","24","104896","0.0-24.0","","null","<div class=""stimulus-container""><img src=""images/semantic_sequence/self_care_activities_semantic/self_care_activities_semantic_6.png"" class=""exp-image""></div>","null","","","","","","","",""
"","","","","","html-button-response","25","105474","0.0-25.0","","576","<div class=""stimulus-container""><img src=""images/semantic_sequence/self_care_activities_semantic/self_care_activities_semantic_6.png"" class=""exp-image""><div class=""question-area""><p>Is there a person?</p></div></div>","1","observation","self_care_activities_semantic","semantic_sequence","6","","","",""
"","","","","","html-keyboard-response","26","109476","0.0-26.0","","null","<div class=""stimulus-container""><img src=""images/semantic_sequence/self_care_activities_semantic/self_care_activities_semantic_7.png"" class=""exp-image""></div>","null","","","","","","","",""
"","","","","","html-button-response","27","110270","0.0-27.0","","793","<div class=""stimulus-container""><img src=""images/semantic_sequence/self_care_activities_semantic/self_care_activities_semantic_7.png"" class=""exp-image""><div class=""question-area""><p>Is there a person?</p></div></div>","0","observation","self_care_activities_semantic","semantic_sequence","7","","","",""
"","","","","","html-keyboard-response","28","114281","0.0-28.0","","null","<div class=""stimulus-container""><img src=""images/semantic_sequence/self_care_activities_semantic/self_care_activities_semantic_8.png"" class=""exp-image""></div>","null","","","","","","","",""
"","","","","","html-button-response","29","114734","0.0-29.0","","451","<div class=""stimulus-container""><img src=""images/semantic_sequence/self_care_activities_semantic/self_care_activities_semantic_8.png"" class=""exp-image""><div class=""question-area""><p>Is there a person?</p></div></div>","0","observation","self_care_activities_semantic","semantic_sequence","8","","","",""
"","","","","","html-keyboard-response","30","118744","0.0-30.0","","null","<div class=""stimulus-container""><img src=""images/semantic_sequence/self_care_activities_semantic/self_care_activities_semantic_9.png"" class=""exp-image""></div>","null","","","","","","","",""
"","","","","","html-button-response","31","119381","0.0-31.0","","635","<div class=""stimulus-container""><img src=""images/semantic_sequence/self_care_activities_semantic/self_care_activities_semantic_9.png"" class=""exp-image""><div class=""question-area""><p>Is there a person?</p></div></div>","0","observation","self_care_activities_semantic","semantic_sequence","9","","","",""
"","","","","","html-keyboard-response","32","123383","0.0-32.0","","null","<div class=""stimulus-container""><img src=""images/semantic_sequence/self_care_activities_semantic/self_care_activities_semantic_ten.png"" class=""exp-image""></div>","null","","","","","","","",""
"","","","","","html-button-response","33","123789","0.0-33.0","","405","<div class=""stimulus-container""><img src=""images/semantic_sequence/self_care_activities_semantic/self_care_activities_semantic_ten.png"" class=""exp-image""><div class=""question-area""><p>Is there a person?</p></div></div>","0","observation","self_care_activities_semantic","semantic_sequence","ten","","","",""
"","","","","","html-keyboard-response","34","125791","0.0-34.0","","null","<div style=""background-color: white; width: 100vw; height: 100vh;""></div>","null","","","","","","","",""
"","","","","","html-keyboard-response","35","129793","0.0-35.0","","null","<div class=""stimulus-container""><img src=""images/semantic_sequence/kitchen_operations_semantic/kitchen_operations_semantic_1.png"" class=""exp-image""></div>","null","","","","","","","",""
"","","","","","html-button-response","36","130825","0.0-36.0","","1029","<div class=""stimulus-container""><img src=""images/semantic_sequence/kitchen_operations_semantic/kitchen_operations_semantic_1.png"" class=""exp-image""><div class=""question-area""><p>Is there a person?</p></div></div>","0","observation","kitchen_operations_semantic","semantic_sequence","1","","","",""
"","","","","","html-keyboard-response","37","134844","0.0-37.0","","null","<div class=""stimulus-container""><img src=""images/semantic_sequence/kitchen_operations_semantic/kitchen_operations_semantic_2.png"" class=""exp-image""></div>","null","","","","","","","",""
"","","","","","html-button-response","38","135226","0.0-38.0","","381","<div class=""stimulus-container""><img src=""images/semantic_sequence/kitchen_operations_semantic/kitchen_operations_semantic_2.png"" class=""exp-image""><div class=""question-area""><p>Is there a person?</p></div></div>","0","observation","kitchen_operations_semantic","semantic_sequence","2","","","",""
"","","","","","html-keyboard-response","39","139236","0.0-39.0","","null","<div class=""stimulus-container""><img src=""images/semantic_sequence/kitchen_operations_semantic/kitchen_operations_semantic_3.png"" class=""exp-image""></div>","null","","","","","","","",""
"","","","","","html-button-response","40","139548","0.0-40.0","","311","<div class=""stimulus-container""><img src=""images/semantic_sequence/kitchen_operations_semantic/kitchen_operations_semantic_3.png"" class=""exp-image""><div class=""question-area""><p>Is there a person?</p></div></div>","0","observation","kitchen_operations_semantic","semantic_sequence","3","","","",""
"","","","","","html-keyboard-response","41","143550","0.0-41.0","","null","<div class=""stimulus-container""><img src=""images/semantic_sequence/kitchen_operations_semantic/kitchen_operations_semantic_4.png"" class=""exp-image""></div>","null","","","","","","","",""
"","","","","","html-button-response","42","143960","0.0-42.0","","407","<div class=""stimulus-container""><img src=""images/semantic_sequence/kitchen_operations_semantic/kitchen_operations_semantic_4.png"" class=""exp-image""><div class=""question-area""><p>Is there a person?</p></div></div>","0","observation","kitchen_operations_semantic","semantic_sequence","4","","","",""
"","","","","","html-keyboard-response","43","147962","0.0-43.0","","null","<div class=""stimulus-container""><img src=""images/semantic_sequence/kitchen_operations_semantic/kitchen_operations_semantic_5.png"" class=""exp-image""></div>","null","","","","","","","",""
"","","","","","html-button-response","44","148499","0.0-44.0","","536","<div class=""stimulus-container""><img src=""images/semantic_sequence/kitchen_operations_semantic/kitchen_operations_semantic_5.png"" class=""exp-image""><div class=""question-area""><p>Is there a person?</p></div></div>","0","observation","kitchen_operations_semantic","semantic_sequence","5","","","",""
"","","","","","html-keyboard-response","45","152502","0.0-45.0","","null","<div class=""stimulus-container""><img src=""images/semantic_sequence/kitchen_operations_semantic/kitchen_operations_semantic_6.png"" class=""exp-image""></div>","null","","","","","","","",""
"","","","","","html-button-response","46","152906","0.0-46.0","","403","<div class=""stimulus-container""><img src=""images/semantic_sequence/kitchen_operations_semantic/kitchen_operations_semantic_6.png"" class=""exp-image""><div class=""question-area""><p>Is there a person?</p></div></div>","0","observation","kitchen_operations_semantic","semantic_sequence","6","","","",""
"","","","","","html-keyboard-response","47","156908","0.0-47.0","","null","<div class=""stimulus-container""><img src=""images/semantic_sequence/kitchen_operations_semantic/kitchen_operations_semantic_7.png"" class=""exp-image""></div>","null","","","","","","","",""
"","","","","","html-button-response","48","157300","0.0-48.0","","391","<div class=""stimulus-container""><img src=""images/semantic_sequence/kitchen_operations_semantic/kitchen_operations_semantic_7.png"" class=""exp-image""><div class=""question-area""><p>Is there a person?</p></div></div>","0","observation","kitchen_operations_semantic","semantic_sequence","7","","","",""
"","","","","","html-keyboard-response","49","161303","0.0-49.0","","null","<div class=""stimulus-container""><img src=""images/semantic_sequence/kitchen_operations_semantic/kitchen_operations_semantic_8.png"" class=""exp-image""></div>","null","","","","","","","",""
"","","","","","html-button-response","50","161713","0.0-50.0","","409","<div class=""stimulus-container""><img src=""images/semantic_sequence/kitchen_operations_semantic/kitchen_operations_semantic_8.png"" class=""exp-image""><div class=""question-area""><p>Is there a person?</p></div></div>","0","observation","kitchen_operations_semantic","semantic_sequence","8","","","",""
"","","","","","html-keyboard-response","51","165716","0.0-51.0","","null","<div class=""stimulus-container""><img src=""images/semantic_sequence/kitchen_operations_semantic/kitchen_operations_semantic_9.png"" class=""exp-image""></div>","null","","","","","","","",""
"","","","","","html-button-response","52","166126","0.0-52.0","","409","<div class=""stimulus-container""><img src=""images/semantic_sequence/kitchen_operations_semantic/kitchen_operations_semantic_9.png"" class=""exp-image""><div class=""question-area""><p>Is there a person?</p></div></div>","0","observation","kitchen_operations_semantic","semantic_sequence","9","","","",""
"","","","","","html-keyboard-response","53","170129","0.0-53.0","","null","<div class=""stimulus-container""><img src=""images/semantic_sequence/kitchen_operations_semantic/kitchen_operations_semantic_ten.png"" class=""exp-image""></div>","null","","","","","","","",""
"","","","","","html-button-response","54","170623","0.0-54.0","","492","<div class=""stimulus-container""><img src=""images/semantic_sequence/kitchen_operations_semantic/kitchen_operations_semantic_ten.png"" class=""exp-image""><div class=""question-area""><p>Is there a person?</p></div></div>","0","observation","kitchen_operations_semantic","semantic_sequence","ten","","","",""
"","","","","","html-keyboard-response","55","172640","0.0-55.0","","null","<div style=""background-color: white; width: 100vw; height: 100vh;""></div>","null","","","","","","","",""
"","","","","","html-keyboard-response","56","176646","0.0-56.0","","null","<div class=""stimulus-container""><img src=""images/causal_sequence/package_causal/package_causal_1.png"" class=""exp-image""></div>","null","","","","","","","",""
"","","","","","html-button-response","57","177490","0.0-57.0","","843","<div class=""stimulus-container""><img src=""images/causal_sequence/package_causal/package_causal_1.png"" class=""exp-image""><div class=""question-area""><p>Is there a person?</p></div></div>","0","observation","package_causal","causal_sequence","1","","","",""
"","","","","","html-keyboard-response","58","181496","0.0-58.0","","null","<div class=""stimulus-container""><img src=""images/causal_sequence/package_causal/package_causal_2.png"" class=""exp-image""></div>","null","","","","","","","",""
"","","","","","html-button-response","59","181954","0.0-59.0","","457","<div class=""stimulus-container""><img src=""images/causal_sequence/package_causal/package_causal_2.png"" class=""exp-image""><div class=""question-area""><p>Is there a person?</p></div></div>","0","observation","package_causal","causal_sequence","2","","","",""
"","","","","","html-keyboard-response","60","185956","0.0-60.0","","null","<div class=""stimulus-container""><img src=""images/causal_sequence/package_causal/package_causal_3.png"" class=""exp-image""></div>","null","","","","","","","",""
"","","","","","html-button-response","61","186439","0.0-61.0","","480","<div class=""stimulus-container""><img src=""images/causal_sequence/package_causal/package_causal_3.png"" class=""exp-image""><div class=""question-area""><p>Is there a person?</p></div></div>","0","observation","package_causal","causal_sequence","3","","","",""
"","","","","","html-keyboard-response","62","190441","0.0-62.0","","null","<div class=""stimulus-container""><img src=""images/causal_sequence/package_causal/package_causal_4.png"" class=""exp-image""></div>","null","","","","","","","",""
"","","","","","html-button-response","63","191329","0.0-63.0","","887","<div class=""stimulus-container""><img src=""images/causal_sequence/package_causal/package_causal_4.png"" class=""exp-image""><div class=""question-area""><p>Is there a person?</p></div></div>","1","observation","package_causal","causal_sequence","4","","","",""
"","","","","","html-keyboard-response","64","195344","0.0-64.0","","null","<div class=""stimulus-container""><img src=""images/causal_sequence/package_causal/package_causal_5.png"" class=""exp-image""></div>","null","","","","","","","",""
"","","","","","html-button-response","65","195683","0.0-65.0","","338","<div class=""stimulus-container""><img src=""images/causal_sequence/package_causal/package_causal_5.png"" class=""exp-image""><div class=""question-area""><p>Is there a person?</p></div></div>","0","observation","package_causal","causal_sequence","5","","","",""
"","","","","","html-keyboard-response","66","199699","0.0-66.0","","null","<div class=""stimulus-container""><img src=""images/causal_sequence/package_causal/package_causal_6.png"" class=""exp-image""></div>","null","","","","","","","",""
"","","","","","html-button-response","67","200102","0.0-67.0","","401","<div class=""stimulus-container""><img src=""images/causal_sequence/package_causal/package_causal_6.png"" class=""exp-image""><div class=""question-area""><p>Is there a person?</p></div></div>","0","observation","package_causal","causal_sequence","6","","","",""
"","","","","","html-keyboard-response","68","204117","0.0-68.0","","null","<div class=""stimulus-container""><img src=""images/causal_sequence/package_causal/package_causal_7.png"" class=""exp-image""></div>","null","","","","","","","",""
"","","","","","html-button-response","69","204531","0.0-69.0","","412","<div class=""stimulus-container""><img src=""images/causal_sequence/package_causal/package_causal_7.png"" class=""exp-image""><div class=""question-area""><p>Is there a person?</p></div></div>","0","observation","package_causal","causal_sequence","7","","","",""
"","","","","","html-keyboard-response","70","208545","0.0-70.0","","null","<div class=""stimulus-container""><img src=""images/causal_sequence/package_causal/package_causal_8.png"" class=""exp-image""></div>","null","","","","","","","",""
"","","","","","html-button-response","71","209108","0.0-71.0","","562","<div class=""stimulus-container""><img src=""images/causal_sequence/package_causal/package_causal_8.png"" class=""exp-image""><div class=""question-area""><p>Is there a person?</p></div></div>","0","observation","package_causal","causal_sequence","8","","","",""
"","","","","","html-keyboard-response","72","213117","0.0-72.0","","null","<div class=""stimulus-container""><img src=""images/causal_sequence/package_causal/package_causal_9.png"" class=""exp-image""></div>","null","","","","","","","",""
"","","","","","html-button-response","73","213496","0.0-73.0","","376","<div class=""stimulus-container""><img src=""images/causal_sequence/package_causal/package_causal_9.png"" class=""exp-image""><div class=""question-area""><p>Is there a person?</p></div></div>","0","observation","package_causal","causal_sequence","9","","","",""
"","","","","","html-keyboard-response","74","217500","0.0-74.0","","null","<div class=""stimulus-container""><img src=""images/causal_sequence/package_causal/package_causal_ten.png"" class=""exp-image""></div>","null","","","","","","","",""
"","","","","","html-button-response","75","217910","0.0-75.0","","408","<div class=""stimulus-container""><img src=""images/causal_sequence/package_causal/package_causal_ten.png"" class=""exp-image""><div class=""question-area""><p>Is there a person?</p></div></div>","0","observation","package_causal","causal_sequence","ten","","","",""
"","","","","","html-keyboard-response","76","219921","0.0-76.0","","null","<div style=""background-color: white; width: 100vw; height: 100vh;""></div>","null","","","","","","","",""
"","","","","","html-keyboard-response","77","223932","0.0-77.0","","null","<div class=""stimulus-container""><img src=""images/semantic_sequence/physical_activity_semantic/physical_activity_semantic_1.png"" class=""exp-image""></div>","null","","","","","","","",""
"","","","","","html-button-response","78","224500","0.0-78.0","","567","<div class=""stimulus-container""><img src=""images/semantic_sequence/physical_activity_semantic/physical_activity_semantic_1.png"" class=""exp-image""><div class=""question-area""><p>Is there a person?</p></div></div>","0","observation","physical_activity_semantic","semantic_sequence","1","","","",""
"","","","","","html-keyboard-response","79","228511","0.0-79.0","","null","<div class=""stimulus-container""><img src=""images/semantic_sequence/physical_activity_semantic/physical_activity_semantic_2.png"" class=""exp-image""></div>","null","","","","","","","",""
"","","","","","html-button-response","80","229158","0.0-80.0","","645","<div class=""stimulus-container""><img src=""images/semantic_sequence/physical_activity_semantic/physical_activity_semantic_2.png"" class=""exp-image""><div class=""question-area""><p>Is there a person?</p></div></div>","0","observation","physical_activity_semantic","semantic_sequence","2","","","",""
"","","","","","html-keyboard-response","81","233171","0.0-81.0","","null","<div class=""stimulus-container""><img src=""images/semantic_sequence/physical_activity_semantic/physical_activity_semantic_3.png"" class=""exp-image""></div>","null","","","","","","","",""
"","","","","","html-button-response","82","233526","0.0-82.0","","352","<div class=""stimulus-container""><img src=""images/semantic_sequence/physical_activity_semantic/physical_activity_semantic_3.png"" class=""exp-image""><div class=""question-area""><p>Is there a person?</p></div></div>","0","observation","physical_activity_semantic","semantic_sequence","3","","","",""
"","","","","","html-keyboard-response","83","237532","0.0-83.0","","null","<div class=""stimulus-container""><img src=""images/semantic_sequence/physical_activity_semantic/physical_activity_semantic_4.png"" class=""exp-image""></div>","null","","","","","","","",""
"","","","","","html-button-response","84","238051","0.0-84.0","","517","<div class=""stimulus-container""><img src=""images/semantic_sequence/physical_activity_semantic/physical_activity_semantic_4.png"" class=""exp-image""><div class=""question-area""><p>Is there a person?</p></div></div>","0","observation","physical_activity_semantic","semantic_sequence","4","","","",""
"","","","","","html-keyboard-response","85","242063","0.0-85.0","","null","<div class=""stimulus-container""><img src=""images/semantic_sequence/physical_activity_semantic/physical_activity_semantic_5.png"" class=""exp-image""></div>","null","","","","","","","",""
"","","","","","html-button-response","86","242494","0.0-86.0","","429","<div class=""stimulus-container""><img src=""images/semantic_sequence/physical_activity_semantic/physical_activity_semantic_5.png"" class=""exp-image""><div class=""question-area""><p>Is there a person?</p></div></div>","0","observation","physical_activity_semantic","semantic_sequence","5","","","",""
"","","","","","html-keyboard-response","87","246500","0.0-87.0","","null","<div class=""stimulus-container""><img src=""images/semantic_sequence/physical_activity_semantic/physical_activity_semantic_6.png"" class=""exp-image""></div>","null","","","","","","","",""
"","","","","","html-button-response","88","246863","0.0-88.0","","361","<div class=""stimulus-container""><img src=""images/semantic_sequence/physical_activity_semantic/physical_activity_semantic_6.png"" class=""exp-image""><div class=""question-area""><p>Is there a person?</p></div></div>","0","observation","physical_activity_semantic","semantic_sequence","6","","","",""
"","","","","","html-keyboard-response","89","250875","0.0-89.0","","null","<div class=""stimulus-container""><img src=""images/semantic_sequence/physical_activity_semantic/physical_activity_semantic_7.png"" class=""exp-image""></div>","null","","","","","","","",""
"","","","","","html-button-response","90","252034","0.0-90.0","","1157","<div class=""stimulus-container""><img src=""images/semantic_sequence/physical_activity_semantic/physical_activity_semantic_7.png"" class=""exp-image""><div class=""question-area""><p>Is there a person?</p></div></div>","0","observation","physical_activity_semantic","semantic_sequence","7","","","",""
"","","","","","html-keyboard-response","91","256048","0.0-91.0","","null","<div class=""stimulus-container""><img src=""images/semantic_sequence/physical_activity_semantic/physical_activity_semantic_8.png"" class=""exp-image""></div>","null","","","","","","","",""
"","","","","","html-button-response","92","256452","0.0-92.0","","402","<div class=""stimulus-container""><img src=""images/semantic_sequence/physical_activity_semantic/physical_activity_semantic_8.png"" class=""exp-image""><div class=""question-area""><p>Is there a person?</p></div></div>","0","observation","physical_activity_semantic","semantic_sequence","8","","","",""
"","","","","","html-keyboard-response","93","260464","0.0-93.0","","null","<div class=""stimulus-container""><img src=""images/semantic_sequence/physical_activity_semantic/physical_activity_semantic_9.png"" class=""exp-image""></div>","null","","","","","","","",""
"","","","","","html-button-response","94","260812","0.0-94.0","","346","<div class=""stimulus-container""><img src=""images/semantic_sequence/physical_activity_semantic/physical_activity_semantic_9.png"" class=""exp-image""><div class=""question-area""><p>Is there a person?</p></div></div>","0","observation","physical_activity_semantic","semantic_sequence","9","","","",""
"","","","","","html-keyboard-response","95","264822","0.0-95.0","","null","<div class=""stimulus-container""><img src=""images/semantic_sequence/physical_activity_semantic/physical_activity_semantic_ten.png"" class=""exp-image""></div>","null","","","","","","","",""
"","","","","","html-button-response","96","265492","0.0-96.0","","668","<div class=""stimulus-container""><img src=""images/semantic_sequence/physical_activity_semantic/physical_activity_semantic_ten.png"" class=""exp-image""><div class=""question-area""><p>Is there a person?</p></div></div>","0","observation","physical_activity_semantic","semantic_sequence","ten","","","",""
"","","","","","html-keyboard-response","97","267494","0.0-97.0","","null","<div style=""background-color: white; width: 100vw; height: 100vh;""></div>","null","","","","","","","",""
"","","","","","html-keyboard-response","98","271503","0.0-98.0","","null","<div class=""stimulus-container""><img src=""images/semantic_sequence/housework_semantic/housework_semantic_1.png"" class=""exp-image""></div>","null","","","","","","","",""
"","","","","","html-button-response","99","273118","0.0-99.0","","1613","<div class=""stimulus-container""><img src=""images/semantic_sequence/housework_semantic/housework_semantic_1.png"" class=""exp-image""><div class=""question-area""><p>Is there a person?</p></div></div>","0","observation","housework_semantic","semantic_sequence","1","","","",""
"","","","","","html-keyboard-response","100","277122","0.0-100.0","","null","<div class=""stimulus-container""><img src=""images/semantic_sequence/housework_semantic/housework_semantic_2.png"" class=""exp-image""></div>","null","","","","","","","",""
"","","","","","html-button-response","101","277560","0.0-101.0","","436","<div class=""stimulus-container""><img src=""images/semantic_sequence/housework_semantic/housework_semantic_2.png"" class=""exp-image""><div class=""question-area""><p>Is there a person?</p></div></div>","0","observation","housework_semantic","semantic_sequence","2","","","",""
"","","","","","html-keyboard-response","102","281563","0.0-102.0","","null","<div class=""stimulus-container""><img src=""images/semantic_sequence/housework_semantic/housework_semantic_3.png"" class=""exp-image""></div>","null","","","","","","","",""
"","","","","","html-button-response","103","282343","0.0-103.0","","777","<div class=""stimulus-container""><img src=""images/semantic_sequence/housework_semantic/housework_semantic_3.png"" class=""exp-image""><div class=""question-area""><p>Is there a person?</p></div></div>","0","observation","housework_semantic","semantic_sequence","3","","","",""
"","","","","","html-keyboard-response","104","286346","0.0-104.0","","null","<div class=""stimulus-container""><img src=""images/semantic_sequence/housework_semantic/housework_semantic_4.png"" class=""exp-image""></div>","null","","","","","","","",""
"","","","","","html-button-response","105","287307","0.0-105.0","","959","<div class=""stimulus-container""><img src=""images/semantic_sequence/housework_semantic/housework_semantic_4.png"" class=""exp-image""><div class=""question-area""><p>Is there a person?</p></div></div>","0","observation","housework_semantic","semantic_sequence","4","","","",""
"","","","","","html-keyboard-response","106","291320","0.0-106.0","","null","<div class=""stimulus-container""><img src=""images/semantic_sequence/housework_semantic/housework_semantic_5.png"" class=""exp-image""></div>","null","","","","","","","",""
"","","","","","html-button-response","107","291715","0.0-107.0","","394","<div class=""stimulus-container""><img src=""images/semantic_sequence/housework_semantic/housework_semantic_5.png"" class=""exp-image""><div class=""question-area""><p>Is there a person?</p></div></div>","0","observation","housework_semantic","semantic_sequence","5","","","",""
"","","","","","html-keyboard-response","108","295722","0.0-108.0","","null","<div class=""stimulus-container""><img src=""images/semantic_sequence/housework_semantic/housework_semantic_6.png"" class=""exp-image""></div>","null","","","","","","","",""
"","","","","","html-button-response","109","296438","0.0-109.0","","714","<div class=""stimulus-container""><img src=""images/semantic_sequence/housework_semantic/housework_semantic_6.png"" class=""exp-image""><div class=""question-area""><p>Is there a person?</p></div></div>","0","observation","housework_semantic","semantic_sequence","6","","","",""
"","","","","","html-keyboard-response","110","300450","0.0-110.0","","null","<div class=""stimulus-container""><img src=""images/semantic_sequence/housework_semantic/housework_semantic_7.png"" class=""exp-image""></div>","null","","","","","","","",""
"","","","","","html-button-response","111","301032","0.0-111.0","","580","<div class=""stimulus-container""><img src=""images/semantic_sequence/housework_semantic/housework_semantic_7.png"" class=""exp-image""><div class=""question-area""><p>Is there a person?</p></div></div>","0","observation","housework_semantic","semantic_sequence","7","","","",""
"","","","","","html-keyboard-response","112","305049","0.0-112.0","","null","<div class=""stimulus-container""><img src=""images/semantic_sequence/housework_semantic/housework_semantic_8.png"" class=""exp-image""></div>","null","","","","","","","",""
"","","","","","html-button-response","113","305766","0.0-113.0","","716","<div class=""stimulus-container""><img src=""images/semantic_sequence/housework_semantic/housework_semantic_8.png"" class=""exp-image""><div class=""question-area""><p>Is there a person?</p></div></div>","0","observation","housework_semantic","semantic_sequence","8","","","",""
"","","","","","html-keyboard-response","114","309776","0.0-114.0","","null","<div class=""stimulus-container""><img src=""images/semantic_sequence/housework_semantic/housework_semantic_9.png"" class=""exp-image""></div>","null","","","","","","","",""
"","","","","","html-button-response","115","310195","0.0-115.0","","417","<div class=""stimulus-container""><img src=""images/semantic_sequence/housework_semantic/housework_semantic_9.png"" class=""exp-image""><div class=""question-area""><p>Is there a person?</p></div></div>","0","observation","housework_semantic","semantic_sequence","9","","","",""
"","","","","","html-keyboard-response","116","314208","0.0-116.0","","null","<div class=""stimulus-container""><img src=""images/semantic_sequence/housework_semantic/housework_semantic_ten.png"" class=""exp-image""></div>","null","","","","","","","",""
"","","","","","html-button-response","117","314636","0.0-117.0","","426","<div class=""stimulus-container""><img src=""images/semantic_sequence/housework_semantic/housework_semantic_ten.png"" class=""exp-image""><div class=""question-area""><p>Is there a person?</p></div></div>","0","observation","housework_semantic","semantic_sequence","ten","","","",""
"","","","","","html-keyboard-response","118","316642","0.0-118.0","","null","<div style=""background-color: white; width: 100vw; height: 100vh;""></div>","null","","","","","","","",""
"","","","","","html-keyboard-response","119","320654","0.0-119.0","","null","<div class=""stimulus-container""><img src=""images/causal_sequence/museum_causal/museum_causal_1.png"" class=""exp-image""></div>","null","","","","","","","",""
"","","","","","html-button-response","120","321068","0.0-120.0","","413","<div class=""stimulus-container""><img src=""images/causal_sequence/museum_causal/museum_causal_1.png"" class=""exp-image""><div class=""question-area""><p>Is there a person?</p></div></div>","0","observation","museum_causal","causal_sequence","1","","","",""
"","","","","","html-keyboard-response","121","325072","0.0-121.0","","null","<div class=""stimulus-container""><img src=""images/causal_sequence/museum_causal/museum_causal_2.png"" class=""exp-image""></div>","null","","","","","","","",""
"","","","","","html-button-response","122","327913","0.0-122.0","","2840","<div class=""stimulus-container""><img src=""images/causal_sequence/museum_causal/museum_causal_2.png"" class=""exp-image""><div class=""question-area""><p>Is there a person?</p></div></div>","0","observation","museum_causal","causal_sequence","2","","","",""
"","","","","","html-keyboard-response","123","331924","0.0-123.0","","null","<div class=""stimulus-container""><img src=""images/causal_sequence/museum_causal/museum_causal_3.png"" class=""exp-image""></div>","null","","","","","","","",""
"","","","","","html-button-response","124","332766","0.0-124.0","","841","<div class=""stimulus-container""><img src=""images/causal_sequence/museum_causal/museum_causal_3.png"" class=""exp-image""><div class=""question-area""><p>Is there a person?</p></div></div>","0","observation","museum_causal","causal_sequence","3","","","",""
"","","","","","html-keyboard-response","125","336783","0.0-125.0","","null","<div class=""stimulus-container""><img src=""images/causal_sequence/museum_causal/museum_causal_4.png"" class=""exp-image""></div>","null","","","","","","","",""
"","","","","","html-button-response","126","337606","0.0-126.0","","822","<div class=""stimulus-container""><img src=""images/causal_sequence/museum_causal/museum_causal_4.png"" class=""exp-image""><div class=""question-area""><p>Is there a person?</p></div></div>","1","observation","museum_causal","causal_sequence","4","","","",""
"","","","","","html-keyboard-response","127","341617","0.0-127.0","","null","<div class=""stimulus-container""><img src=""images/causal_sequence/museum_causal/museum_causal_5.png"" class=""exp-image""></div>","null","","","","","","","",""
"","","","","","html-button-response","128","342039","0.0-128.0","","421","<div class=""stimulus-container""><img src=""images/causal_sequence/museum_causal/museum_causal_5.png"" class=""exp-image""><div class=""question-area""><p>Is there a person?</p></div></div>","0","observation","museum_causal","causal_sequence","5","","","",""
"","","","","","html-keyboard-response","129","346050","0.0-129.0","","null","<div class=""stimulus-container""><img src=""images/causal_sequence/museum_causal/museum_causal_6.png"" class=""exp-image""></div>","null","","","","","","","",""
"","","","","","html-button-response","130","346449","0.0-130.0","","397","<div class=""stimulus-container""><img src=""images/causal_sequence/museum_causal/museum_causal_6.png"" class=""exp-image""><div class=""question-area""><p>Is there a person?</p></div></div>","0","observation","museum_causal","causal_sequence","6","","","",""
"","","","","","html-keyboard-response","131","350465","0.0-131.0","","null","<div class=""stimulus-container""><img src=""images/causal_sequence/museum_causal/museum_causal_7.png"" class=""exp-image""></div>","null","","","","","","","",""
"","","","","","html-button-response","132","350911","0.0-132.0","","444","<div class=""stimulus-container""><img src=""images/causal_sequence/museum_causal/museum_causal_7.png"" class=""exp-image""><div class=""question-area""><p>Is there a person?</p></div></div>","1","observation","museum_causal","causal_sequence","7","","","",""
"","","","","","html-keyboard-response","133","354925","0.0-133.0","","null","<div class=""stimulus-container""><img src=""images/causal_sequence/museum_causal/museum_causal_8.png"" class=""exp-image""></div>","null","","","","","","","",""
"","","","","","html-button-response","134","355284","0.0-134.0","","358","<div class=""stimulus-container""><img src=""images/causal_sequence/museum_causal/museum_causal_8.png"" class=""exp-image""><div class=""question-area""><p>Is there a person?</p></div></div>","0","observation","museum_causal","causal_sequence","8","","","",""
"","","","","","html-keyboard-response","135","359297","0.0-135.0","","null","<div class=""stimulus-container""><img src=""images/causal_sequence/museum_causal/museum_causal_9.png"" class=""exp-image""></div>","null","","","","","","","",""
"","","","","","html-button-response","136","360125","0.0-136.0","","825","<div class=""stimulus-container""><img src=""images/causal_sequence/museum_causal/museum_causal_9.png"" class=""exp-image""><div class=""question-area""><p>Is there a person?</p></div></div>","1","observation","museum_causal","causal_sequence","9","","","",""
"","","","","","html-keyboard-response","137","364137","0.0-137.0","","null","<div class=""stimulus-container""><img src=""images/causal_sequence/museum_causal/museum_causal_ten.png"" class=""exp-image""></div>","null","","","","","","","",""
"","","","","","html-button-response","138","364740","0.0-138.0","","601","<div class=""stimulus-container""><img src=""images/causal_sequence/museum_causal/museum_causal_ten.png"" class=""exp-image""><div class=""question-area""><p>Is there a person?</p></div></div>","0","observation","museum_causal","causal_sequence","ten","","","",""
"","","","","","html-keyboard-response","139","366754","0.0-139.0","","null","<div style=""background-color: white; width: 100vw; height: 100vh;""></div>","null","","","","","","","",""
"","","","","","html-keyboard-response","140","370766","0.0-140.0","","null","<div class=""stimulus-container""><img src=""images/causal_sequence/saving_a_cat_causal/saving_a_cat_causal_1.png"" class=""exp-image""></div>","null","","","","","","","",""
"","","","","","html-button-response","141","371539","0.0-141.0","","772","<div class=""stimulus-container""><img src=""images/causal_sequence/saving_a_cat_causal/saving_a_cat_causal_1.png"" class=""exp-image""><div class=""question-area""><p>Is there a person?</p></div></div>","0","observation","saving_a_cat_causal","causal_sequence","1","","","",""
"","","","","","html-keyboard-response","142","375540","0.0-142.0","","null","<div class=""stimulus-container""><img src=""images/causal_sequence/saving_a_cat_causal/saving_a_cat_causal_2.png"" class=""exp-image""></div>","null","","","","","","","",""
"","","","","","html-button-response","143","375943","0.0-143.0","","402","<div class=""stimulus-container""><img src=""images/causal_sequence/saving_a_cat_causal/saving_a_cat_causal_2.png"" class=""exp-image""><div class=""question-area""><p>Is there a person?</p></div></div>","1","observation","saving_a_cat_causal","causal_sequence","2","","","",""
"","","","","","html-keyboard-response","144","379959","0.0-144.0","","null","<div class=""stimulus-container""><img src=""images/causal_sequence/saving_a_cat_causal/saving_a_cat_causal_3.png"" class=""exp-image""></div>","null","","","","","","","",""
"","","","","","html-button-response","145","381118","0.0-145.0","","1156","<div class=""stimulus-container""><img src=""images/causal_sequence/saving_a_cat_causal/saving_a_cat_causal_3.png"" class=""exp-image""><div class=""question-area""><p>Is there a person?</p></div></div>","1","observation","saving_a_cat_causal","causal_sequence","3","","","",""
"","","","","","html-keyboard-response","146","385122","0.0-146.0","","null","<div class=""stimulus-container""><img src=""images/causal_sequence/saving_a_cat_causal/saving_a_cat_causal_4.png"" class=""exp-image""></div>","null","","","","","","","",""
"","","","","","html-button-response","147","385579","0.0-147.0","","455","<div class=""stimulus-container""><img src=""images/causal_sequence/saving_a_cat_causal/saving_a_cat_causal_4.png"" class=""exp-image""><div class=""question-area""><p>Is there a person?</p></div></div>","0","observation","saving_a_cat_causal","causal_sequence","4","","","",""
"","","","","","html-keyboard-response","148","389591","0.0-148.0","","null","<div class=""stimulus-container""><img src=""images/causal_sequence/saving_a_cat_causal/saving_a_cat_causal_5.png"" class=""exp-image""></div>","null","","","","","","","",""
"","","","","","html-button-response","149","390195","0.0-149.0","","603","<div class=""stimulus-container""><img src=""images/causal_sequence/saving_a_cat_causal/saving_a_cat_causal_5.png"" class=""exp-image""><div class=""question-area""><p>Is there a person?</p></div></div>","0","observation","saving_a_cat_causal","causal_sequence","5","","","",""
"","","","","","html-keyboard-response","150","394197","0.0-150.0","","null","<div class=""stimulus-container""><img src=""images/causal_sequence/saving_a_cat_causal/saving_a_cat_causal_6.png"" class=""exp-image""></div>","null","","","","","","","",""
"","","","","","html-button-response","151","394978","0.0-151.0","","779","<div class=""stimulus-container""><img src=""images/causal_sequence/saving_a_cat_causal/saving_a_cat_causal_6.png"" class=""exp-image""><div class=""question-area""><p>Is there a person?</p></div></div>","0","observation","saving_a_cat_causal","causal_sequence","6","","","",""
"","","","","","html-keyboard-response","152","398988","0.0-152.0","","null","<div class=""stimulus-container""><img src=""images/causal_sequence/saving_a_cat_causal/saving_a_cat_causal_7.png"" class=""exp-image""></div>","null","","","","","","","",""
"","","","","","html-button-response","153","400309","0.0-153.0","","1319","<div class=""stimulus-container""><img src=""images/causal_sequence/saving_a_cat_causal/saving_a_cat_causal_7.png"" class=""exp-image""><div class=""question-area""><p>Is there a person?</p></div></div>","0","observation","saving_a_cat_causal","causal_sequence","7","","","",""
"","","","","","html-keyboard-response","154","404312","0.0-154.0","","null","<div class=""stimulus-container""><img src=""images/causal_sequence/saving_a_cat_causal/saving_a_cat_causal_8.png"" class=""exp-image""></div>","null","","","","","","","",""
"","","","","","html-button-response","155","405788","0.0-155.0","","1474","<div class=""stimulus-container""><img src=""images/causal_sequence/saving_a_cat_causal/saving_a_cat_causal_8.png"" class=""exp-image""><div class=""question-area""><p>Is there a person?</p></div></div>","0","observation","saving_a_cat_causal","causal_sequence","8","","","",""
"","","","","","html-keyboard-response","156","409792","0.0-156.0","","null","<div class=""stimulus-container""><img src=""images/causal_sequence/saving_a_cat_causal/saving_a_cat_causal_9.png"" class=""exp-image""></div>","null","","","","","","","",""
"","","","","","html-button-response","157","413773","0.0-157.0","","3979","<div class=""stimulus-container""><img src=""images/causal_sequence/saving_a_cat_causal/saving_a_cat_causal_9.png"" class=""exp-image""><div class=""question-area""><p>Is there a person?</p></div></div>","0","observation","saving_a_cat_causal","causal_sequence","9","","","",""
"","","","","","html-keyboard-response","158","417780","0.0-158.0","","null","<div class=""stimulus-container""><img src=""images/causal_sequence/saving_a_cat_causal/saving_a_cat_causal_ten.png"" class=""exp-image""></div>","null","","","","","","","",""
"","","","","","html-button-response","159","418385","0.0-159.0","","603","<div class=""stimulus-container""><img src=""images/causal_sequence/saving_a_cat_causal/saving_a_cat_causal_ten.png"" class=""exp-image""><div class=""question-area""><p>Is there a person?</p></div></div>","0","observation","saving_a_cat_causal","causal_sequence","ten","","","",""
"","","","","","html-keyboard-response","160","420394","0.0-160.0","","null","<div style=""background-color: white; width: 100vw; height: 100vh;""></div>","null","","","","","","","",""
"","","","","","html-keyboard-response","161","424398","0.0-161.0","","null","<div class=""stimulus-container""><img src=""images/semantic_sequence/maintaining_a_car_semantic/maintaining_a_car_semantic_1.png"" class=""exp-image""></div>","null","","","","","","","",""
"","","","","","html-button-response","162","424948","0.0-162.0","","549","<div class=""stimulus-container""><img src=""images/semantic_sequence/maintaining_a_car_semantic/maintaining_a_car_semantic_1.png"" class=""exp-image""><div class=""question-area""><p>Is there a person?</p></div></div>","0","observation","maintaining_a_car_semantic","semantic_sequence","1","","","",""
"","","","","","html-keyboard-response","163","428965","0.0-163.0","","null","<div class=""stimulus-container""><img src=""images/semantic_sequence/maintaining_a_car_semantic/maintaining_a_car_semantic_2.png"" class=""exp-image""></div>","null","","","","","","","",""
"","","","","","html-button-response","164","430135","0.0-164.0","","1168","<div class=""stimulus-container""><img src=""images/semantic_sequence/maintaining_a_car_semantic/maintaining_a_car_semantic_2.png"" class=""exp-image""><div class=""question-area""><p>Is there a person?</p></div></div>","0","observation","maintaining_a_car_semantic","semantic_sequence","2","","","",""
"","","","","","html-keyboard-response","165","434138","0.0-165.0","","null","<div class=""stimulus-container""><img src=""images/semantic_sequence/maintaining_a_car_semantic/maintaining_a_car_semantic_3.png"" class=""exp-image""></div>","null","","","","","","","",""
"","","","","","html-button-response","166","434871","0.0-166.0","","731","<div class=""stimulus-container""><img src=""images/semantic_sequence/maintaining_a_car_semantic/maintaining_a_car_semantic_3.png"" class=""exp-image""><div class=""question-area""><p>Is there a person?</p></div></div>","0","observation","maintaining_a_car_semantic","semantic_sequence","3","","","",""
"","","","","","html-keyboard-response","167","438886","0.0-167.0","","null","<div class=""stimulus-container""><img src=""images/semantic_sequence/maintaining_a_car_semantic/maintaining_a_car_semantic_4.png"" class=""exp-image""></div>","null","","","","","","","",""
"","","","","","html-button-response","168","439446","0.0-168.0","","558","<div class=""stimulus-container""><img src=""images/semantic_sequence/maintaining_a_car_semantic/maintaining_a_car_semantic_4.png"" class=""exp-image""><div class=""question-area""><p>Is there a person?</p></div></div>","0","observation","maintaining_a_car_semantic","semantic_sequence","4","","","",""
"","","","","","html-keyboard-response","169","443461","0.0-169.0","","null","<div class=""stimulus-container""><img src=""images/semantic_sequence/maintaining_a_car_semantic/maintaining_a_car_semantic_5.png"" class=""exp-image""></div>","null","","","","","","","",""
"","","","","","html-button-response","170","448068","0.0-170.0","","4606","<div class=""stimulus-container""><img src=""images/semantic_sequence/maintaining_a_car_semantic/maintaining_a_car_semantic_5.png"" class=""exp-image""><div class=""question-area""><p>Is there a person?</p></div></div>","0","observation","maintaining_a_car_semantic","semantic_sequence","5","","","",""
"","","","","","html-keyboard-response","171","452086","0.0-171.0","","null","<div class=""stimulus-container""><img src=""images/semantic_sequence/maintaining_a_car_semantic/maintaining_a_car_semantic_6.png"" class=""exp-image""></div>","null","","","","","","","",""
"","","","","","html-button-response","172","452635","0.0-172.0","","547","<div class=""stimulus-container""><img src=""images/semantic_sequence/maintaining_a_car_semantic/maintaining_a_car_semantic_6.png"" class=""exp-image""><div class=""question-area""><p>Is there a person?</p></div></div>","0","observation","maintaining_a_car_semantic","semantic_sequence","6","","","",""
"","","","","","html-keyboard-response","173","456644","0.0-173.0","","null","<div class=""stimulus-container""><img src=""images/semantic_sequence/maintaining_a_car_semantic/maintaining_a_car_semantic_7.png"" class=""exp-image""></div>","null","","","","","","","",""
"","","","","","html-button-response","174","457101","0.0-174.0","","452","<div class=""stimulus-container""><img src=""images/semantic_sequence/maintaining_a_car_semantic/maintaining_a_car_semantic_7.png"" class=""exp-image""><div class=""question-area""><p>Is there a person?</p></div></div>","0","observation","maintaining_a_car_semantic","semantic_sequence","7","","","",""
"","","","","","html-keyboard-response","175","461117","0.0-175.0","","null","<div class=""stimulus-container""><img src=""images/semantic_sequence/maintaining_a_car_semantic/maintaining_a_car_semantic_8.png"" class=""exp-image""></div>","null","","","","","","","",""
"","","","","","html-button-response","176","461493","0.0-176.0","","374","<div class=""stimulus-container""><img src=""images/semantic_sequence/maintaining_a_car_semantic/maintaining_a_car_semantic_8.png"" class=""exp-image""><div class=""question-area""><p>Is there a person?</p></div></div>","0","observation","maintaining_a_car_semantic","semantic_sequence","8","","","",""
"","","","","","html-keyboard-response","177","465503","0.0-177.0","","null","<div class=""stimulus-container""><img src=""images/semantic_sequence/maintaining_a_car_semantic/maintaining_a_car_semantic_9.png"" class=""exp-image""></div>","null","","","","","","","",""
"","","","","","html-button-response","178","465818","0.0-178.0","","313","<div class=""stimulus-container""><img src=""images/semantic_sequence/maintaining_a_car_semantic/maintaining_a_car_semantic_9.png"" class=""exp-image""><div class=""question-area""><p>Is there a person?</p></div></div>","0","observation","maintaining_a_car_semantic","semantic_sequence","9","","","",""
"","","","","","html-keyboard-response","179","469826","0.0-179.0","","null","<div class=""stimulus-container""><img src=""images/semantic_sequence/maintaining_a_car_semantic/maintaining_a_car_semantic_ten.png"" class=""exp-image""></div>","null","","","","","","","",""
"","","","","","html-button-response","180","470527","0.0-180.0","","700","<div class=""stimulus-container""><img src=""images/semantic_sequence/maintaining_a_car_semantic/maintaining_a_car_semantic_ten.png"" class=""exp-image""><div class=""question-area""><p>Is there a person?</p></div></div>","0","observation","maintaining_a_car_semantic","semantic_sequence","ten","","","",""
"","","","","","html-keyboard-response","181","472542","0.0-181.0","","null","<div style=""background-color: white; width: 100vw; height: 100vh;""></div>","null","","","","","","","",""
"","","","","","html-keyboard-response","182","476553","0.0-182.0","","null","<div class=""stimulus-container""><img src=""images/causal_sequence/the_performance_causal/the_performance_causal_1.png"" class=""exp-image""></div>","null","","","","","","","",""
"","","","","","html-button-response","183","476983","0.0-183.0","","427","<div class=""stimulus-container""><img src=""images/causal_sequence/the_performance_causal/the_performance_causal_1.png"" class=""exp-image""><div class=""question-area""><p>Is there a person?</p></div></div>","0","observation","the_performance_causal","causal_sequence","1","","","",""
"","","","","","html-keyboard-response","184","480988","0.0-184.0","","null","<div class=""stimulus-container""><img src=""images/causal_sequence/the_performance_causal/the_performance_causal_2.png"" class=""exp-image""></div>","null","","","","","","","",""
"","","","","","html-button-response","185","482340","0.0-185.0","","1349","<div class=""stimulus-container""><img src=""images/causal_sequence/the_performance_causal/the_performance_causal_2.png"" class=""exp-image""><div class=""question-area""><p>Is there a person?</p></div></div>","0","observation","the_performance_causal","causal_sequence","2","","","",""
"","","","","","html-keyboard-response","186","486347","0.0-186.0","","null","<div class=""stimulus-container""><img src=""images/causal_sequence/the_performance_causal/the_performance_causal_3.png"" class=""exp-image""></div>","null","","","","","","","",""
"","","","","","html-button-response","187","486864","0.0-187.0","","515","<div class=""stimulus-container""><img src=""images/causal_sequence/the_performance_causal/the_performance_causal_3.png"" class=""exp-image""><div class=""question-area""><p>Is there a person?</p></div></div>","0","observation","the_performance_causal","causal_sequence","3","","","",""
"","","","","","html-keyboard-response","188","490873","0.0-188.0","","null","<div class=""stimulus-container""><img src=""images/causal_sequence/the_performance_causal/the_performance_causal_4.png"" class=""exp-image""></div>","null","","","","","","","",""
"","","","","","html-button-response","189","491164","0.0-189.0","","289","<div class=""stimulus-container""><img src=""images/causal_sequence/the_performance_causal/the_performance_causal_4.png"" class=""exp-image""><div class=""question-area""><p>Is there a person?</p></div></div>","0","observation","the_performance_causal","causal_sequence","4","","","",""
"","","","","","html-keyboard-response","190","495179","0.0-190.0","","null","<div class=""stimulus-container""><img src=""images/causal_sequence/the_performance_causal/the_performance_causal_5.png"" class=""exp-image""></div>","null","","","","","","","",""
"","","","","","html-button-response","191","496128","0.0-191.0","","947","<div class=""stimulus-container""><img src=""images/causal_sequence/the_performance_causal/the_performance_causal_5.png"" class=""exp-image""><div class=""question-area""><p>Is there a person?</p></div></div>","0","observation","the_performance_causal","causal_sequence","5","","","",""
"","","","","","html-keyboard-response","192","500139","0.0-192.0","","null","<div class=""stimulus-container""><img src=""images/causal_sequence/the_performance_causal/the_performance_causal_6.png"" class=""exp-image""></div>","null","","","","","","","",""
"","","","","","html-button-response","193","501046","0.0-193.0","","905","<div class=""stimulus-container""><img src=""images/causal_sequence/the_performance_causal/the_performance_causal_6.png"" class=""exp-image""><div class=""question-area""><p>Is there a person?</p></div></div>","0","observation","the_performance_causal","causal_sequence","6","","","",""
"","","","","","html-keyboard-response","194","505053","0.0-194.0","","null","<div class=""stimulus-container""><img src=""images/causal_sequence/the_performance_causal/the_performance_causal_7.png"" class=""exp-image""></div>","null","","","","","","","",""
"","","","","","html-button-response","195","506106","0.0-195.0","","1051","<div class=""stimulus-container""><img src=""images/causal_sequence/the_performance_causal/the_performance_causal_7.png"" class=""exp-image""><div class=""question-area""><p>Is there a person?</p></div></div>","0","observation","the_performance_causal","causal_sequence","7","","","",""
"","","","","","html-keyboard-response","196","510110","0.0-196.0","","null","<div class=""stimulus-container""><img src=""images/causal_sequence/the_performance_causal/the_performance_causal_8.png"" class=""exp-image""></div>","null","","","","","","","",""
"","","","","","html-button-response","197","510580","0.0-197.0","","468","<div class=""stimulus-container""><img src=""images/causal_sequence/the_performance_causal/the_performance_causal_8.png"" class=""exp-image""><div class=""question-area""><p>Is there a person?</p></div></div>","0","observation","the_performance_causal","causal_sequence","8","","","",""
"","","","","","html-keyboard-response","198","514582","0.0-198.0","","null","<div class=""stimulus-container""><img src=""images/causal_sequence/the_performance_causal/the_performance_causal_9.png"" class=""exp-image""></div>","null","","","","","","","",""
"","","","","","html-button-response","199","515887","0.0-199.0","","1303","<div class=""stimulus-container""><img src=""images/causal_sequence/the_performance_causal/the_performance_causal_9.png"" class=""exp-image""><div class=""question-area""><p>Is there a person?</p></div></div>","0","observation","the_performance_causal","causal_sequence","9","","","",""
"","","","","","html-keyboard-response","200","519893","0.0-200.0","","null","<div class=""stimulus-container""><img src=""images/causal_sequence/the_performance_causal/the_performance_causal_ten.png"" class=""exp-image""></div>","null","","","","","","","",""
"","","","","","html-button-response","201","520937","0.0-201.0","","1043","<div class=""stimulus-container""><img src=""images/causal_sequence/the_performance_causal/the_performance_causal_ten.png"" class=""exp-image""><div class=""question-area""><p>Is there a person?</p></div></div>","0","observation","the_performance_causal","causal_sequence","ten","","","",""
"","","","","","html-keyboard-response","202","522950","0.0-202.0","","null","<div style=""background-color: white; width: 100vw; height: 100vh;""></div>","null","","","","","","","",""
"","","","","","html-keyboard-response","203","526960","0.0-203.0","","null","<div class=""stimulus-container""><img src=""images/semantic_sequence/visiting_cities_semantic/visiting_cities_semantic_1.png"" class=""exp-image""></div>","null","","","","","","","",""
"","","","","","html-button-response","204","531482","0.0-204.0","","4520","<div class=""stimulus-container""><img src=""images/semantic_sequence/visiting_cities_semantic/visiting_cities_semantic_1.png"" class=""exp-image""><div class=""question-area""><p>Is there a person?</p></div></div>","1","observation","visiting_cities_semantic","semantic_sequence","1","","","",""
"","","","","","html-keyboard-response","205","535488","0.0-205.0","","null","<div class=""stimulus-container""><img src=""images/semantic_sequence/visiting_cities_semantic/visiting_cities_semantic_2.png"" class=""exp-image""></div>","null","","","","","","","",""
"","","","","","html-button-response","206","540499","0.0-206.0","","5010","<div class=""stimulus-container""><img src=""images/semantic_sequence/visiting_cities_semantic/visiting_cities_semantic_2.png"" class=""exp-image""><div class=""question-area""><p>Is there a person?</p></div></div>","1","observation","visiting_cities_semantic","semantic_sequence","2","","","",""
"","","","","","html-keyboard-response","207","544517","0.0-207.0","","null","<div class=""stimulus-container""><img src=""images/semantic_sequence/visiting_cities_semantic/visiting_cities_semantic_3.png"" class=""exp-image""></div>","null","","","","","","","",""
"","","","","","html-button-response","208","545417","0.0-208.0","","899","<div class=""stimulus-container""><img src=""images/semantic_sequence/visiting_cities_semantic/visiting_cities_semantic_3.png"" class=""exp-image""><div class=""question-area""><p>Is there a person?</p></div></div>","1","observation","visiting_cities_semantic","semantic_sequence","3","","","",""
"","","","","","html-keyboard-response","209","549421","0.0-209.0","","null","<div class=""stimulus-container""><img src=""images/semantic_sequence/visiting_cities_semantic/visiting_cities_semantic_4.png"" class=""exp-image""></div>","null","","","","","","","",""
"","","","","","html-button-response","210","550052","0.0-210.0","","630","<div class=""stimulus-container""><img src=""images/semantic_sequence/visiting_cities_semantic/visiting_cities_semantic_4.png"" class=""exp-image""><div class=""question-area""><p>Is there a person?</p></div></div>","1","observation","visiting_cities_semantic","semantic_sequence","4","","","",""
"","","","","","html-keyboard-response","211","554066","0.0-211.0","","null","<div class=""stimulus-container""><img src=""images/semantic_sequence/visiting_cities_semantic/visiting_cities_semantic_5.png"" class=""exp-image""></div>","null","","","","","","","",""
"","","","","","html-button-response","212","563642","0.0-212.0","","9574","<div class=""stimulus-container""><img src=""images/semantic_sequence/visiting_cities_semantic/visiting_cities_semantic_5.png"" class=""exp-image""><div class=""question-area""><p>Is there a person?</p></div></div>","1","observation","visiting_cities_semantic","semantic_sequence","5","","","",""
"","","","","","html-keyboard-response","213","567658","0.0-213.0","","null","<div class=""stimulus-container""><img src=""images/semantic_sequence/visiting_cities_semantic/visiting_cities_semantic_6.png"" class=""exp-image""></div>","null","","","","","","","",""
"","","","","","html-button-response","214","568331","0.0-214.0","","672","<div class=""stimulus-container""><img src=""images/semantic_sequence/visiting_cities_semantic/visiting_cities_semantic_6.png"" class=""exp-image""><div class=""question-area""><p>Is there a person?</p></div></div>","1","observation","visiting_cities_semantic","semantic_sequence","6","","","",""
"","","","","","html-keyboard-response","215","572343","0.0-215.0","","null","<div class=""stimulus-container""><img src=""images/semantic_sequence/visiting_cities_semantic/visiting_cities_semantic_7.png"" class=""exp-image""></div>","null","","","","","","","",""
"","","","","","html-button-response","216","572811","0.0-216.0","","467","<div class=""stimulus-container""><img src=""images/semantic_sequence/visiting_cities_semantic/visiting_cities_semantic_7.png"" class=""exp-image""><div class=""question-area""><p>Is there a person?</p></div></div>","0","observation","visiting_cities_semantic","semantic_sequence","7","","","",""
"","","","","","html-keyboard-response","217","576815","0.0-217.0","","null","<div class=""stimulus-container""><img src=""images/semantic_sequence/visiting_cities_semantic/visiting_cities_semantic_8.png"" class=""exp-image""></div>","null","","","","","","","",""
"","","","","","html-button-response","218","577173","0.0-218.0","","357","<div class=""stimulus-container""><img src=""images/semantic_sequence/visiting_cities_semantic/visiting_cities_semantic_8.png"" class=""exp-image""><div class=""question-area""><p>Is there a person?</p></div></div>","1","observation","visiting_cities_semantic","semantic_sequence","8","","","",""
"","","","","","html-keyboard-response","219","581179","0.0-219.0","","null","<div class=""stimulus-container""><img src=""images/semantic_sequence/visiting_cities_semantic/visiting_cities_semantic_9.png"" class=""exp-image""></div>","null","","","","","","","",""
"","","","","","html-button-response","220","581492","0.0-220.0","","312","<div class=""stimulus-container""><img src=""images/semantic_sequence/visiting_cities_semantic/visiting_cities_semantic_9.png"" class=""exp-image""><div class=""question-area""><p>Is there a person?</p></div></div>","1","observation","visiting_cities_semantic","semantic_sequence","9","","","",""
"","","","","","html-keyboard-response","221","585500","0.0-221.0","","null","<div class=""stimulus-container""><img src=""images/semantic_sequence/visiting_cities_semantic/visiting_cities_semantic_ten.png"" class=""exp-image""></div>","null","","","","","","","",""
"","","","","","html-button-response","222","586127","0.0-222.0","","625","<div class=""stimulus-container""><img src=""images/semantic_sequence/visiting_cities_semantic/visiting_cities_semantic_ten.png"" class=""exp-image""><div class=""question-area""><p>Is there a person?</p></div></div>","1","observation","visiting_cities_semantic","semantic_sequence","ten","","","",""
"","","","","","html-keyboard-response","223","588135","0.0-223.0","","null","<div style=""background-color: white; width: 100vw; height: 100vh;""></div>","null","","","","","","","",""
"","","","","","html-keyboard-response","224","592138","0.0-224.0","","null","<div class=""stimulus-container""><img src=""images/causal_sequence/coin_causal/coin_causal_1.png"" class=""exp-image""></div>","null","","","","","","","",""
"","","","","","html-button-response","225","592680","0.0-225.0","","540","<div class=""stimulus-container""><img src=""images/causal_sequence/coin_causal/coin_causal_1.png"" class=""exp-image""><div class=""question-area""><p>Is there a person?</p></div></div>","0","observation","coin_causal","causal_sequence","1","","","",""
"","","","","","html-keyboard-response","226","596698","0.0-226.0","","null","<div class=""stimulus-container""><img src=""images/causal_sequence/coin_causal/coin_causal_2.png"" class=""exp-image""></div>","null","","","","","","","",""
"","","","","","html-button-response","227","597473","0.0-227.0","","772","<div class=""stimulus-container""><img src=""images/causal_sequence/coin_causal/coin_causal_2.png"" class=""exp-image""><div class=""question-area""><p>Is there a person?</p></div></div>","0","observation","coin_causal","causal_sequence","2","","","",""
"","","","","","html-keyboard-response","228","601480","0.0-228.0","","null","<div class=""stimulus-container""><img src=""images/causal_sequence/coin_causal/coin_causal_3.png"" class=""exp-image""></div>","null","","","","","","","",""
"","","","","","html-button-response","229","603408","0.0-229.0","","1926","<div class=""stimulus-container""><img src=""images/causal_sequence/coin_causal/coin_causal_3.png"" class=""exp-image""><div class=""question-area""><p>Is there a person?</p></div></div>","0","observation","coin_causal","causal_sequence","3","","","",""
"","","","","","html-keyboard-response","230","607421","0.0-230.0","","null","<div class=""stimulus-container""><img src=""images/causal_sequence/coin_causal/coin_causal_4.png"" class=""exp-image""></div>","null","","","","","","","",""
"","","","","","html-button-response","231","612055","0.0-231.0","","4632","<div class=""stimulus-container""><img src=""images/causal_sequence/coin_causal/coin_causal_4.png"" class=""exp-image""><div class=""question-area""><p>Is there a person?</p></div></div>","0","observation","coin_causal","causal_sequence","4","","","",""
"","","","","","html-keyboard-response","232","616059","0.0-232.0","","null","<div class=""stimulus-container""><img src=""images/causal_sequence/coin_causal/coin_causal_5.png"" class=""exp-image""></div>","null","","","","","","","",""
"","","","","","html-button-response","233","616871","0.0-233.0","","810","<div class=""stimulus-container""><img src=""images/causal_sequence/coin_causal/coin_causal_5.png"" class=""exp-image""><div class=""question-area""><p>Is there a person?</p></div></div>","0","observation","coin_causal","causal_sequence","5","","","",""
"","","","","","html-keyboard-response","234","620886","0.0-234.0","","null","<div class=""stimulus-container""><img src=""images/causal_sequence/coin_causal/coin_causal_6.png"" class=""exp-image""></div>","null","","","","","","","",""
"","","","","","html-button-response","235","621700","0.0-235.0","","812","<div class=""stimulus-container""><img src=""images/causal_sequence/coin_causal/coin_causal_6.png"" class=""exp-image""><div class=""question-area""><p>Is there a person?</p></div></div>","0","observation","coin_causal","causal_sequence","6","","","",""
"","","","","","html-keyboard-response","236","625715","0.0-236.0","","null","<div class=""stimulus-container""><img src=""images/causal_sequence/coin_causal/coin_causal_7.png"" class=""exp-image""></div>","null","","","","","","","",""
"","","","","","html-button-response","237","626137","0.0-237.0","","420","<div class=""stimulus-container""><img src=""images/causal_sequence/coin_causal/coin_causal_7.png"" class=""exp-image""><div class=""question-area""><p>Is there a person?</p></div></div>","1","observation","coin_causal","causal_sequence","7","","","",""
"","","","","","html-keyboard-response","238","630150","0.0-238.0","","null","<div class=""stimulus-container""><img src=""images/causal_sequence/coin_causal/coin_causal_8.png"" class=""exp-image""></div>","null","","","","","","","",""
"","","","","","html-button-response","239","631245","0.0-239.0","","1094","<div class=""stimulus-container""><img src=""images/causal_sequence/coin_causal/coin_causal_8.png"" class=""exp-image""><div class=""question-area""><p>Is there a person?</p></div></div>","0","observation","coin_causal","causal_sequence","8","","","",""
"","","","","","html-keyboard-response","240","635252","0.0-240.0","","null","<div class=""stimulus-container""><img src=""images/causal_sequence/coin_causal/coin_causal_9.png"" class=""exp-image""></div>","null","","","","","","","",""
"","","","","","html-button-response","241","636270","0.0-241.0","","1016","<div class=""stimulus-container""><img src=""images/causal_sequence/coin_causal/coin_causal_9.png"" class=""exp-image""><div class=""question-area""><p>Is there a person?</p></div></div>","0","observation","coin_causal","causal_sequence","9","","","",""
"","","","","","html-keyboard-response","242","640276","0.0-242.0","","null","<div class=""stimulus-container""><img src=""images/causal_sequence/coin_causal/coin_causal_ten.png"" class=""exp-image""></div>","null","","","","","","","",""
"","","","","","html-button-response","243","641377","0.0-243.0","","1099","<div class=""stimulus-container""><img src=""images/causal_sequence/coin_causal/coin_causal_ten.png"" class=""exp-image""><div class=""question-area""><p>Is there a person?</p></div></div>","0","observation","coin_causal","causal_sequence","ten","","","",""
"","","","","","html-keyboard-response","244","643387","0.0-244.0","","null","<div style=""background-color: white; width: 100vw; height: 100vh;""></div>","null","","","","","","","",""
"","","","","","html-keyboard-response","245","647399","0.0-245.0","","null","<div class=""stimulus-container""><img src=""images/causal_sequence/dog_causal/dog_causal_1.png"" class=""exp-image""></div>","null","","","","","","","",""
"","","","","","html-button-response","246","647824","0.0-246.0","","423","<div class=""stimulus-container""><img src=""images/causal_sequence/dog_causal/dog_causal_1.png"" class=""exp-image""><div class=""question-area""><p>Is there a person?</p></div></div>","0","observation","dog_causal","causal_sequence","1","","","",""
"","","","","","html-keyboard-response","247","651836","0.0-247.0","","null","<div class=""stimulus-container""><img src=""images/causal_sequence/dog_causal/dog_causal_2.png"" class=""exp-image""></div>","null","","","","","","","",""
"","","","","","html-button-response","248","652485","0.0-248.0","","647","<div class=""stimulus-container""><img src=""images/causal_sequence/dog_causal/dog_causal_2.png"" class=""exp-image""><div class=""question-area""><p>Is there a person?</p></div></div>","0","observation","dog_causal","causal_sequence","2","","","",""
"","","","","","html-keyboard-response","249","656489","0.0-249.0","","null","<div class=""stimulus-container""><img src=""images/causal_sequence/dog_causal/dog_causal_3.png"" class=""exp-image""></div>","null","","","","","","","",""
"","","","","","html-button-response","250","656983","0.0-250.0","","492","<div class=""stimulus-container""><img src=""images/causal_sequence/dog_causal/dog_causal_3.png"" class=""exp-image""><div class=""question-area""><p>Is there a person?</p></div></div>","0","observation","dog_causal","causal_sequence","3","","","",""
"","","","","","html-keyboard-response","251","660986","0.0-251.0","","null","<div class=""stimulus-container""><img src=""images/causal_sequence/dog_causal/dog_causal_4.png"" class=""exp-image""></div>","null","","","","","","","",""
"","","","","","html-button-response","252","662072","0.0-252.0","","1084","<div class=""stimulus-container""><img src=""images/causal_sequence/dog_causal/dog_causal_4.png"" class=""exp-image""><div class=""question-area""><p>Is there a person?</p></div></div>","0","observation","dog_causal","causal_sequence","4","","","",""
"","","","","","html-keyboard-response","253","666075","0.0-253.0","","null","<div class=""stimulus-container""><img src=""images/causal_sequence/dog_causal/dog_causal_5.png"" class=""exp-image""></div>","null","","","","","","","",""
"","","","","","html-button-response","254","666584","0.0-254.0","","506","<div class=""stimulus-container""><img src=""images/causal_sequence/dog_causal/dog_causal_5.png"" class=""exp-image""><div class=""question-area""><p>Is there a person?</p></div></div>","0","observation","dog_causal","causal_sequence","5","","","",""
"","","","","","html-keyboard-response","255","670592","0.0-255.0","","null","<div class=""stimulus-container""><img src=""images/causal_sequence/dog_causal/dog_causal_6.png"" class=""exp-image""></div>","null","","","","","","","",""
"","","","","","html-button-response","256","671026","0.0-256.0","","432","<div class=""stimulus-container""><img src=""images/causal_sequence/dog_causal/dog_causal_6.png"" class=""exp-image""><div class=""question-area""><p>Is there a person?</p></div></div>","0","observation","dog_causal","causal_sequence","6","","","",""
"","","","","","html-keyboard-response","257","675032","0.0-257.0","","null","<div class=""stimulus-container""><img src=""images/causal_sequence/dog_causal/dog_causal_7.png"" class=""exp-image""></div>","null","","","","","","","",""
"","","","","","html-button-response","258","675895","0.0-258.0","","861","<div class=""stimulus-container""><img src=""images/causal_sequence/dog_causal/dog_causal_7.png"" class=""exp-image""><div class=""question-area""><p>Is there a person?</p></div></div>","0","observation","dog_causal","causal_sequence","7","","","",""
"","","","","","html-keyboard-response","259","679911","0.0-259.0","","null","<div class=""stimulus-container""><img src=""images/causal_sequence/dog_causal/dog_causal_8.png"" class=""exp-image""></div>","null","","","","","","","",""
"","","","","","html-button-response","260","680782","0.0-260.0","","869","<div class=""stimulus-container""><img src=""images/causal_sequence/dog_causal/dog_causal_8.png"" class=""exp-image""><div class=""question-area""><p>Is there a person?</p></div></div>","0","observation","dog_causal","causal_sequence","8","","","",""
"","","","","","html-keyboard-response","261","684792","0.0-261.0","","null","<div class=""stimulus-container""><img src=""images/causal_sequence/dog_causal/dog_causal_9.png"" class=""exp-image""></div>","null","","","","","","","",""
"","","","","","html-button-response","262","685378","0.0-262.0","","583","<div class=""stimulus-container""><img src=""images/causal_sequence/dog_causal/dog_causal_9.png"" class=""exp-image""><div class=""question-area""><p>Is there a person?</p></div></div>","0","observation","dog_causal","causal_sequence","9","","","",""
"","","","","","html-keyboard-response","263","689385","0.0-263.0","","null","<div class=""stimulus-container""><img src=""images/causal_sequence/dog_causal/dog_causal_ten.png"" class=""exp-image""></div>","null","","","","","","","",""
"","","","","","html-button-response","264","690092","0.0-264.0","","705","<div class=""stimulus-container""><img src=""images/causal_sequence/dog_causal/dog_causal_ten.png"" class=""exp-image""><div class=""question-area""><p>Is there a person?</p></div></div>","0","observation","dog_causal","causal_sequence","ten","","","",""
"","","","","","instructions","265","692440","0.0-265.0","[{""page_index"":0,""viewing_time"":2346}]","2347","","","","","","","","","",""
"","","","","","html-button-response","266","695296","0.0-266.0","","2854","<div class=""stimulus-container""><img src=""images/causal_sequence/museum_causal/museum_causal_5.png"" class=""exp-image""><div style=""height:100px;""></div></div>","0","","","","","","","",""
"","","","","","html-keyboard-response","267","699299","0.0-267.0","","null","
                <div class=""stimulus-container"" style=""display:flex; align-items:center; justify-content:center; gap:40px;"">
                    <img src=""images/causal_sequence/museum_causal/museum_causal_5.png"" class=""exp-image"">
                    <div style=""text-align:center;"">
                        <img src=""images/gray.png"" style=""width:150px; border:5px solid grey; border-radius:15px;"">
                        <p style=""color:grey; font-weight:bold; font-size:28px;"">NEUTRAL</p>
                    </div>
                </div>","null","value_learning","museum_causal","","","neutral","5","",""
"","","","","","html-button-response","268","700968","0.0-268.0","","1668","<div class=""stimulus-container""><img src=""images/causal_sequence/package_causal/package_causal_5.png"" class=""exp-image""><div style=""height:100px;""></div></div>","0","","","","","","","",""
"","","","","","html-keyboard-response","269","704982","0.0-269.0","","null","
                <div class=""stimulus-container"" style=""display:flex; align-items:center; justify-content:center; gap:40px;"">
                    <img src=""images/causal_sequence/package_causal/package_causal_5.png"" class=""exp-image"">
                    <div style=""text-align:center;"">
                        <img src=""images/dollar.png"" style=""width:150px; border:5px solid green; border-radius:15px;"">
                        <p style=""color:green; font-weight:bold; font-size:28px;"">WORTH MONEY</p>
                    </div>
                </div>","null","value_learning","package_causal","","","valuable","5","",""
"","","","","","html-button-response","270","705991","0.0-270.0","","1007","<div class=""stimulus-container""><img src=""images/semantic_sequence/physical_activity_semantic/physical_activity_semantic_5.png"" class=""exp-image""><div style=""height:100px;""></div></div>","0","","","","","","","",""
"","","","","","html-keyboard-response","271","709995","0.0-271.0","","null","
                <div class=""stimulus-container"" style=""display:flex; align-items:center; justify-content:center; gap:40px;"">
                    <img src=""images/semantic_sequence/physical_activity_semantic/physical_activity_semantic_5.png"" class=""exp-image"">
                    <div style=""text-align:center;"">
                        <img src=""images/gray.png"" style=""width:150px; border:5px solid grey; border-radius:15px;"">
                        <p style=""color:grey; font-weight:bold; font-size:28px;"">NEUTRAL</p>
                    </div>
                </div>","null","value_learning","physical_activity_semantic","","","neutral","5","",""
"","","","","","html-button-response","272","710550","0.0-272.0","","554","<div class=""stimulus-container""><img src=""images/causal_sequence/dog_causal/dog_causal_4.png"" class=""exp-image""><div style=""height:100px;""></div></div>","0","","","","","","","",""
"","","","","","html-keyboard-response","273","714555","0.0-273.0","","null","
                <div class=""stimulus-container"" style=""display:flex; align-items:center; justify-content:center; gap:40px;"">
                    <img src=""images/causal_sequence/dog_causal/dog_causal_4.png"" class=""exp-image"">
                    <div style=""text-align:center;"">
                        <img src=""images/gray.png"" style=""width:150px; border:5px solid grey; border-radius:15px;"">
                        <p style=""color:grey; font-weight:bold; font-size:28px;"">NEUTRAL</p>
                    </div>
                </div>","null","value_learning","dog_causal","","","neutral","4","",""
"","","","","","html-button-response","274","716155","0.0-274.0","","1597","<div class=""stimulus-container""><img src=""images/semantic_sequence/kitchen_operations_semantic/kitchen_operations_semantic_4.png"" class=""exp-image""><div style=""height:100px;""></div></div>","0","","","","","","","",""
"","","","","","html-keyboard-response","275","720157","0.0-275.0","","null","
                <div class=""stimulus-container"" style=""display:flex; align-items:center; justify-content:center; gap:40px;"">
                    <img src=""images/semantic_sequence/kitchen_operations_semantic/kitchen_operations_semantic_4.png"" class=""exp-image"">
                    <div style=""text-align:center;"">
                        <img src=""images/gray.png"" style=""width:150px; border:5px solid grey; border-radius:15px;"">
                        <p style=""color:grey; font-weight:bold; font-size:28px;"">NEUTRAL</p>
                    </div>
                </div>","null","value_learning","kitchen_operations_semantic","","","neutral","4","",""
"","","","","","html-button-response","276","720694","0.0-276.0","","535","<div class=""stimulus-container""><img src=""images/semantic_sequence/housework_semantic/housework_semantic_4.png"" class=""exp-image""><div style=""height:100px;""></div></div>","0","","","","","","","",""
"","","","","","html-keyboard-response","277","724704","0.0-277.0","","null","
                <div class=""stimulus-container"" style=""display:flex; align-items:center; justify-content:center; gap:40px;"">
                    <img src=""images/semantic_sequence/housework_semantic/housework_semantic_4.png"" class=""exp-image"">
                    <div style=""text-align:center;"">
                        <img src=""images/dollar.png"" style=""width:150px; border:5px solid green; border-radius:15px;"">
                        <p style=""color:green; font-weight:bold; font-size:28px;"">WORTH MONEY</p>
                    </div>
                </div>","null","value_learning","housework_semantic","","","valuable","4","",""
"","","","","","html-button-response","278","725525","0.0-278.0","","819","<div class=""stimulus-container""><img src=""images/causal_sequence/saving_a_cat_causal/saving_a_cat_causal_4.png"" class=""exp-image""><div style=""height:100px;""></div></div>","0","","","","","","","",""
"","","","","","html-keyboard-response","279","729531","0.0-279.0","","null","
                <div class=""stimulus-container"" style=""display:flex; align-items:center; justify-content:center; gap:40px;"">
                    <img src=""images/causal_sequence/saving_a_cat_causal/saving_a_cat_causal_4.png"" class=""exp-image"">
                    <div style=""text-align:center;"">
                        <img src=""images/dollar.png"" style=""width:150px; border:5px solid green; border-radius:15px;"">
                        <p style=""color:green; font-weight:bold; font-size:28px;"">WORTH MONEY</p>
                    </div>
                </div>","null","value_learning","saving_a_cat_causal","","","valuable","4","",""
"","","","","","html-button-response","280","742626","0.0-280.0","","13093","<div class=""stimulus-container""><img src=""images/causal_sequence/the_performance_causal/the_performance_causal_4.png"" class=""exp-image""><div style=""height:100px;""></div></div>","0","","","","","","","",""
"","","","","","html-keyboard-response","281","746641","0.0-281.0","","null","
                <div class=""stimulus-container"" style=""display:flex; align-items:center; justify-content:center; gap:40px;"">
                    <img src=""images/causal_sequence/the_performance_causal/the_performance_causal_4.png"" class=""exp-image"">
                    <div style=""text-align:center;"">
                        <img src=""images/dollar.png"" style=""width:150px; border:5px solid green; border-radius:15px;"">
                        <p style=""color:green; font-weight:bold; font-size:28px;"">WORTH MONEY</p>
                    </div>
                </div>","null","value_learning","the_performance_causal","","","valuable","4","",""
"","","","","","html-button-response","282","748031","0.0-282.0","","1389","<div class=""stimulus-container""><img src=""images/semantic_sequence/self_care_activities_semantic/self_care_activities_semantic_7.png"" class=""exp-image""><div style=""height:100px;""></div></div>","0","","","","","","","",""
"","","","","","html-keyboard-response","283","752035","0.0-283.0","","null","
                <div class=""stimulus-container"" style=""display:flex; align-items:center; justify-content:center; gap:40px;"">
                    <img src=""images/semantic_sequence/self_care_activities_semantic/self_care_activities_semantic_7.png"" class=""exp-image"">
                    <div style=""text-align:center;"">
                        <img src=""images/dollar.png"" style=""width:150px; border:5px solid green; border-radius:15px;"">
                        <p style=""color:green; font-weight:bold; font-size:28px;"">WORTH MONEY</p>
                    </div>
                </div>","null","value_learning","self_care_activities_semantic","","","valuable","7","",""
"","","","","","html-button-response","284","752555","0.0-284.0","","517","<div class=""stimulus-container""><img src=""images/causal_sequence/coin_causal/coin_causal_6.png"" class=""exp-image""><div style=""height:100px;""></div></div>","0","","","","","","","",""
"","","","","","html-keyboard-response","285","756565","0.0-285.0","","null","
                <div class=""stimulus-container"" style=""display:flex; align-items:center; justify-content:center; gap:40px;"">
                    <img src=""images/causal_sequence/coin_causal/coin_causal_6.png"" class=""exp-image"">
                    <div style=""text-align:center;"">
                        <img src=""images/gray.png"" style=""width:150px; border:5px solid grey; border-radius:15px;"">
                        <p style=""color:grey; font-weight:bold; font-size:28px;"">NEUTRAL</p>
                    </div>
                </div>","null","value_learning","coin_causal","","","neutral","6","",""
"","","","","","html-button-response","286","757279","0.0-286.0","","713","<div class=""stimulus-container""><img src=""images/semantic_sequence/maintaining_a_car_semantic/maintaining_a_car_semantic_4.png"" class=""exp-image""><div style=""height:100px;""></div></div>","0","","","","","","","",""
"","","","","","html-keyboard-response","287","761282","0.0-287.0","","null","
                <div class=""stimulus-container"" style=""display:flex; align-items:center; justify-content:center; gap:40px;"">
                    <img src=""images/semantic_sequence/maintaining_a_car_semantic/maintaining_a_car_semantic_4.png"" class=""exp-image"">
                    <div style=""text-align:center;"">
                        <img src=""images/dollar.png"" style=""width:150px; border:5px solid green; border-radius:15px;"">
                        <p style=""color:green; font-weight:bold; font-size:28px;"">WORTH MONEY</p>
                    </div>
                </div>","null","value_learning","maintaining_a_car_semantic","","","valuable","4","",""
"","","","","","html-button-response","288","761925","0.0-288.0","","641","<div class=""stimulus-container""><img src=""images/semantic_sequence/visiting_cities_semantic/visiting_cities_semantic_7.png"" class=""exp-image""><div style=""height:100px;""></div></div>","0","","","","","","","",""
"","","","","","html-keyboard-response","289","765935","0.0-289.0","","null","
                <div class=""stimulus-container"" style=""display:flex; align-items:center; justify-content:center; gap:40px;"">
                    <img src=""images/semantic_sequence/visiting_cities_semantic/visiting_cities_semantic_7.png"" class=""exp-image"">
                    <div style=""text-align:center;"">
                        <img src=""images/gray.png"" style=""width:150px; border:5px solid grey; border-radius:15px;"">
                        <p style=""color:grey; font-weight:bold; font-size:28px;"">NEUTRAL</p>
                    </div>
                </div>","null","value_learning","visiting_cities_semantic","","","neutral","7","",""
"","","","","","instructions","290","773449","0.0-290.0","[{""page_index"":0,""viewing_time"":7513}]","7514","","","","","","","","","",""
"","","","","","html-keyboard-response","291","776459","0.0-291.0-0.0","","null","<div style=""font-family: Arial; margin-bottom: 20px;""><h3>Which image is worth <b>more money</b>?</h3></div>
                                    <div class=""stimulus-container"" style=""display: flex; width: 800px; justify-content: center; gap: 30px;"">
                                        <img src=""images/causal_sequence/dog_causal/dog_causal_6.png"" class=""small-image"">
                                        <img src=""images/causal_sequence/dog_causal/dog_causal_1.png"" class=""small-image"">
                                    </div>","null","","","","","","","",""
"","","","","","html-button-response","292","791059","0.0-291.0-1.0","","14599","<div style=""font-family: Arial; margin-bottom: 20px;""><h3>Which image is worth <b>more money</b>?</h3></div>
                                    <div class=""stimulus-container"" style=""display: flex; width: 800px; justify-content: center; gap: 30px;"">
                                        <img src=""images/causal_sequence/dog_causal/dog_causal_6.png"" class=""small-image"">
                                        <img src=""images/causal_sequence/dog_causal/dog_causal_1.png"" class=""small-image"">
                                    </div>","0","choice_test","dog_causal","","","","","1",""
"","","","","","html-keyboard-response","293","794062","0.0-292.0-0.0","","null","<div style=""font-family: Arial; margin-bottom: 20px;""><h3>Which image is worth <b>more money</b>?</h3></div>
                                    <div class=""stimulus-container"" style=""display: flex; width: 800px; justify-content: center; gap: 30px;"">
                                        <img src=""images/semantic_sequence/visiting_cities_semantic/visiting_cities_semantic_ten.png"" class=""small-image"">
                                        <img src=""images/semantic_sequence/visiting_cities_semantic/visiting_cities_semantic_5.png"" class=""small-image"">
                                    </div>","null","","","","","","","",""
"","","","","","html-button-response","294","795242","0.0-292.0-1.0","","1178","<div style=""font-family: Arial; margin-bottom: 20px;""><h3>Which image is worth <b>more money</b>?</h3></div>
                                    <div class=""stimulus-container"" style=""display: flex; width: 800px; justify-content: center; gap: 30px;"">
                                        <img src=""images/semantic_sequence/visiting_cities_semantic/visiting_cities_semantic_ten.png"" class=""small-image"">
                                        <img src=""images/semantic_sequence/visiting_cities_semantic/visiting_cities_semantic_5.png"" class=""small-image"">
                                    </div>","0","choice_test","visiting_cities_semantic","","","","","1",""
"","","","","","html-keyboard-response","295","798249","0.0-293.0-0.0","","null","<div style=""font-family: Arial; margin-bottom: 20px;""><h3>Which image is worth <b>more money</b>?</h3></div>
                                    <div class=""stimulus-container"" style=""display: flex; width: 800px; justify-content: center; gap: 30px;"">
                                        <img src=""images/causal_sequence/the_performance_causal/the_performance_causal_5.png"" class=""small-image"">
                                        <img src=""images/causal_sequence/the_performance_causal/the_performance_causal_1.png"" class=""small-image"">
                                    </div>","null","","","","","","","",""
"","","","","","html-button-response","296","798904","0.0-293.0-1.0","","653","<div style=""font-family: Arial; margin-bottom: 20px;""><h3>Which image is worth <b>more money</b>?</h3></div>
                                    <div class=""stimulus-container"" style=""display: flex; width: 800px; justify-content: center; gap: 30px;"">
                                        <img src=""images/causal_sequence/the_performance_causal/the_performance_causal_5.png"" class=""small-image"">
                                        <img src=""images/causal_sequence/the_performance_causal/the_performance_causal_1.png"" class=""small-image"">
                                    </div>","0","choice_test","the_performance_causal","","","","","1",""
"","","","","","html-keyboard-response","297","801917","0.0-294.0-0.0","","null","<div style=""font-family: Arial; margin-bottom: 20px;""><h3>Which image is worth <b>more money</b>?</h3></div>
                                    <div class=""stimulus-container"" style=""display: flex; width: 800px; justify-content: center; gap: 30px;"">
                                        <img src=""images/semantic_sequence/maintaining_a_car_semantic/maintaining_a_car_semantic_6.png"" class=""small-image"">
                                        <img src=""images/semantic_sequence/maintaining_a_car_semantic/maintaining_a_car_semantic_1.png"" class=""small-image"">
                                    </div>","null","","","","","","","",""
"","","","","","html-button-response","298","802625","0.0-294.0-1.0","","706","<div style=""font-family: Arial; margin-bottom: 20px;""><h3>Which image is worth <b>more money</b>?</h3></div>
                                    <div class=""stimulus-container"" style=""display: flex; width: 800px; justify-content: center; gap: 30px;"">
                                        <img src=""images/semantic_sequence/maintaining_a_car_semantic/maintaining_a_car_semantic_6.png"" class=""small-image"">
                                        <img src=""images/semantic_sequence/maintaining_a_car_semantic/maintaining_a_car_semantic_1.png"" class=""small-image"">
                                    </div>","1","choice_test","maintaining_a_car_semantic","","","","","0",""
"","","","","","html-keyboard-response","299","805630","0.0-295.0-0.0","","null","<div style=""font-family: Arial; margin-bottom: 20px;""><h3>Which image is worth <b>more money</b>?</h3></div>
                                    <div class=""stimulus-container"" style=""display: flex; width: 800px; justify-content: center; gap: 30px;"">
                                        <img src=""images/causal_sequence/museum_causal/museum_causal_6.png"" class=""small-image"">
                                        <img src=""images/causal_sequence/museum_causal/museum_causal_2.png"" class=""small-image"">
                                    </div>","null","","","","","","","",""
"","","","","","html-button-response","300","806239","0.0-295.0-1.0","","607","<div style=""font-family: Arial; margin-bottom: 20px;""><h3>Which image is worth <b>more money</b>?</h3></div>
                                    <div class=""stimulus-container"" style=""display: flex; width: 800px; justify-content: center; gap: 30px;"">
                                        <img src=""images/causal_sequence/museum_causal/museum_causal_6.png"" class=""small-image"">
                                        <img src=""images/causal_sequence/museum_causal/museum_causal_2.png"" class=""small-image"">
                                    </div>","0","choice_test","museum_causal","","","","","1",""
"","","","","","html-keyboard-response","301","809241","0.0-296.0-0.0","","null","<div class=""stimulus-container"" style=""display:flex; gap:30px;"">
                                    <img src=""images/semantic_sequence/maintaining_a_car_semantic/maintaining_a_car_semantic_5.png"" class=""small-image"">
                                    <img src=""images/causal_sequence/coin_causal/coin_causal_5.png"" class=""small-image"">
                                </div>","null","","","","","","","",""
"","","","","","html-button-response","302","810805","0.0-296.0-1.0","","1562","<h3>Which is worth more money?</h3>","1","cross_block_test","","","","","","","false"
"","","","","","html-keyboard-response","303","813816","0.0-297.0-0.0","","null","<div style=""font-family: Arial; margin-bottom: 20px;""><h3>Which image is worth <b>more money</b>?</h3></div>
                                    <div class=""stimulus-container"" style=""display: flex; width: 800px; justify-content: center; gap: 30px;"">
                                        <img src=""images/causal_sequence/museum_causal/museum_causal_3.png"" class=""small-image"">
                                        <img src=""images/causal_sequence/museum_causal/museum_causal_8.png"" class=""small-image"">
                                    </div>","null","","","","","","","",""
"","","","","","html-button-response","304","814821","0.0-297.0-1.0","","1003","<div style=""font-family: Arial; margin-bottom: 20px;""><h3>Which image is worth <b>more money</b>?</h3></div>
