"success","timeout","failed_images","failed_audio","failed_video","trial_type","trial_index","time_elapsed","internal_node_id","subject_id","study_id","session_id","view_history","rt","stimulus","response","task","image_index","folder","sequence_type","valuable_image_index","reward_type","chosen_image_index","target_X","correct_choice"
"true","false","[]","[]","[]","preload","0","4326","0.0-0.0","BAE1E65B97734A5FB961DC843F50677C","019cf4d7-3511-79bb-81d7-098a844a2be3","019cf4c8-1de8-79ec-b3bd-d98520647593","","","","","","","","","","","","",""
"","","","","","instructions","1","11611","0.0-1.0","BAE1E65B97734A5FB961DC843F50677C","019cf4d7-3511-79bb-81d7-098a844a2be3","019cf4c8-1de8-79ec-b3bd-d98520647593","[{""page_index"":0,""viewing_time"":7284}]","7284","","","","","","","","","","",""
"","","","","","instructions","2","64348","0.0-2.0","BAE1E65B97734A5FB961DC843F50677C","019cf4d7-3511-79bb-81d7-098a844a2be3","019cf4c8-1de8-79ec-b3bd-d98520647593","[{""page_index"":0,""viewing_time"":52734}]","52735","","","","","","","","","","",""
"true","","","","","fullscreen","3","67777","0.0-3.0","BAE1E65B97734A5FB961DC843F50677C","019cf4d7-3511-79bb-81d7-098a844a2be3","019cf4c8-1de8-79ec-b3bd-d98520647593","","2423","","","","","","","","","","",""
"","","","","","instructions","4","90221","0.0-4.0","BAE1E65B97734A5FB961DC843F50677C","019cf4d7-3511-79bb-81d7-098a844a2be3","019cf4c8-1de8-79ec-b3bd-d98520647593","[{""page_index"":0,""viewing_time"":22443}]","22443","","","","","","","","","","",""
"","","","","","instructions","5","101121","0.0-5.0","BAE1E65B97734A5FB961DC843F50677C","019cf4d7-3511-79bb-81d7-098a844a2be3","019cf4c8-1de8-79ec-b3bd-d98520647593","[{""page_index"":0,""viewing_time"":10899}]","10899","","","","","","","","","","",""
"","","","","","html-keyboard-response","6","105124","0.0-6.0","BAE1E65B97734A5FB961DC843F50677C","019cf4d7-3511-79bb-81d7-098a844a2be3","019cf4c8-1de8-79ec-b3bd-d98520647593","","null","
                <div class=""stimulus-container"">
                    <img src=""images/instructions/movie_1.png"" class=""exp-image"">
                    <div class=""question-area""></div> 
                </div>","null","","","","","","","","",""
"","","","","","html-button-response","7","107519","0.0-7.0","BAE1E65B97734A5FB961DC843F50677C","019cf4d7-3511-79bb-81d7-098a844a2be3","019cf4c8-1de8-79ec-b3bd-d98520647593","","2392","
                <div class=""stimulus-container"">
                    <img src=""images/instructions/movie_1.png"" class=""exp-image"">
                    <div class=""question-area"">
                        <p style=""font-size: 20px; font-weight: bold; margin: 0;"">Was there a person in this image?</p>
                    </div>
                </div>","0","example_question","1","","","","","","",""
"","","","","","html-keyboard-response","8","111522","0.0-8.0","BAE1E65B97734A5FB961DC843F50677C","019cf4d7-3511-79bb-81d7-098a844a2be3","019cf4c8-1de8-79ec-b3bd-d98520647593","","null","
                <div class=""stimulus-container"">
                    <img src=""images/instructions/movie_2.png"" class=""exp-image"">
                    <div class=""question-area""></div> 
                </div>","null","","","","","","","","",""
"","","","","","html-button-response","9","113204","0.0-9.0","BAE1E65B97734A5FB961DC843F50677C","019cf4d7-3511-79bb-81d7-098a844a2be3","019cf4c8-1de8-79ec-b3bd-d98520647593","","1681","
                <div class=""stimulus-container"">
                    <img src=""images/instructions/movie_2.png"" class=""exp-image"">
                    <div class=""question-area"">
                        <p style=""font-size: 20px; font-weight: bold; margin: 0;"">Was there a person in this image?</p>
                    </div>
                </div>","0","example_question","2","","","","","","",""
"","","","","","html-keyboard-response","10","117206","0.0-10.0","BAE1E65B97734A5FB961DC843F50677C","019cf4d7-3511-79bb-81d7-098a844a2be3","019cf4c8-1de8-79ec-b3bd-d98520647593","","null","
                <div class=""stimulus-container"">
                    <img src=""images/instructions/movie_3.png"" class=""exp-image"">
                    <div class=""question-area""></div> 
                </div>","null","","","","","","","","",""
"","","","","","html-button-response","11","118270","0.0-11.0","BAE1E65B97734A5FB961DC843F50677C","019cf4d7-3511-79bb-81d7-098a844a2be3","019cf4c8-1de8-79ec-b3bd-d98520647593","","1062","
                <div class=""stimulus-container"">
                    <img src=""images/instructions/movie_3.png"" class=""exp-image"">
                    <div class=""question-area"">
                        <p style=""font-size: 20px; font-weight: bold; margin: 0;"">Was there a person in this image?</p>
                    </div>
                </div>","0","example_question","3","","","","","","",""
"","","","","","html-keyboard-response","12","122275","0.0-12.0","BAE1E65B97734A5FB961DC843F50677C","019cf4d7-3511-79bb-81d7-098a844a2be3","019cf4c8-1de8-79ec-b3bd-d98520647593","","null","
                <div class=""stimulus-container"">
                    <img src=""images/instructions/movie_4.png"" class=""exp-image"">
                    <div class=""question-area""></div> 
                </div>","null","","","","","","","","",""
"","","","","","html-button-response","13","123312","0.0-13.0","BAE1E65B97734A5FB961DC843F50677C","019cf4d7-3511-79bb-81d7-098a844a2be3","019cf4c8-1de8-79ec-b3bd-d98520647593","","1035","
                <div class=""stimulus-container"">
                    <img src=""images/instructions/movie_4.png"" class=""exp-image"">
                    <div class=""question-area"">
                        <p style=""font-size: 20px; font-weight: bold; margin: 0;"">Was there a person in this image?</p>
                    </div>
                </div>","0","example_question","4","","","","","","",""
"","","","","","instructions","14","125247","0.0-14.0","BAE1E65B97734A5FB961DC843F50677C","019cf4d7-3511-79bb-81d7-098a844a2be3","019cf4c8-1de8-79ec-b3bd-d98520647593","[{""page_index"":0,""viewing_time"":1934}]","1934","","","","","","","","","","",""
"","","","","","instructions","15","133766","0.0-15.0","BAE1E65B97734A5FB961DC843F50677C","019cf4d7-3511-79bb-81d7-098a844a2be3","019cf4c8-1de8-79ec-b3bd-d98520647593","[{""page_index"":0,""viewing_time"":8516}]","8516","","","","","","","","","","",""
"","","","","","html-keyboard-response","16","134769","0.0-16.0","BAE1E65B97734A5FB961DC843F50677C","019cf4d7-3511-79bb-81d7-098a844a2be3","019cf4c8-1de8-79ec-b3bd-d98520647593","","null","<div style=""background-color: white; width: 100vw; height: 100vh;""></div>","null","","","","","","","","",""
"","","","","","html-keyboard-response","17","139771","0.0-17.0","BAE1E65B97734A5FB961DC843F50677C","019cf4d7-3511-79bb-81d7-098a844a2be3","019cf4c8-1de8-79ec-b3bd-d98520647593","","null","
                <div class=""stimulus-container"">
                    <img src=""images/causal_sequence/package_causal/package_causal_1.png"" class=""exp-image"">
                    <div class=""question-area""></div> 
                </div>","null","","","","","","","","",""
"","","","","","html-button-response","18","141392","0.0-18.0","BAE1E65B97734A5FB961DC843F50677C","019cf4d7-3511-79bb-81d7-098a844a2be3","019cf4c8-1de8-79ec-b3bd-d98520647593","","1620","
                <div class=""stimulus-container"">
                    <img src=""images/causal_sequence/package_causal/package_causal_1.png"" class=""exp-image"">
                    <div class=""question-area"">
                        <p style=""font-size: 20px; font-weight: bold; margin: 0;"">Is there a person in this image?</p>
                    </div>
                </div>","0","main_experiment_trial","1","package_causal","causal_sequence","","","","",""
"","","","","","html-keyboard-response","19","146395","0.0-19.0","BAE1E65B97734A5FB961DC843F50677C","019cf4d7-3511-79bb-81d7-098a844a2be3","019cf4c8-1de8-79ec-b3bd-d98520647593","","null","
                <div class=""stimulus-container"">
                    <img src=""images/causal_sequence/package_causal/package_causal_2.png"" class=""exp-image"">
                    <div class=""question-area""></div> 
                </div>","null","","","","","","","","",""
"","","","","","html-button-response","20","148595","0.0-20.0","BAE1E65B97734A5FB961DC843F50677C","019cf4d7-3511-79bb-81d7-098a844a2be3","019cf4c8-1de8-79ec-b3bd-d98520647593","","2199","
                <div class=""stimulus-container"">
                    <img src=""images/causal_sequence/package_causal/package_causal_2.png"" class=""exp-image"">
                    <div class=""question-area"">
                        <p style=""font-size: 20px; font-weight: bold; margin: 0;"">Is there a person in this image?</p>
                    </div>
                </div>","0","main_experiment_trial","2","package_causal","causal_sequence","","","","",""
"","","","","","html-keyboard-response","21","153597","0.0-21.0","BAE1E65B97734A5FB961DC843F50677C","019cf4d7-3511-79bb-81d7-098a844a2be3","019cf4c8-1de8-79ec-b3bd-d98520647593","","null","
                <div class=""stimulus-container"">
                    <img src=""images/causal_sequence/package_causal/package_causal_3.png"" class=""exp-image"">
                    <div class=""question-area""></div> 
                </div>","null","","","","","","","","",""
"","","","","","html-button-response","22","155297","0.0-22.0","BAE1E65B97734A5FB961DC843F50677C","019cf4d7-3511-79bb-81d7-098a844a2be3","019cf4c8-1de8-79ec-b3bd-d98520647593","","1699","
                <div class=""stimulus-container"">
                    <img src=""images/causal_sequence/package_causal/package_causal_3.png"" class=""exp-image"">
                    <div class=""question-area"">
                        <p style=""font-size: 20px; font-weight: bold; margin: 0;"">Is there a person in this image?</p>
                    </div>
                </div>","0","main_experiment_trial","3","package_causal","causal_sequence","","","","",""
"","","","","","html-keyboard-response","23","160300","0.0-23.0","BAE1E65B97734A5FB961DC843F50677C","019cf4d7-3511-79bb-81d7-098a844a2be3","019cf4c8-1de8-79ec-b3bd-d98520647593","","null","
                <div class=""stimulus-container"">
                    <img src=""images/causal_sequence/package_causal/package_causal_4.png"" class=""exp-image"">
                    <div class=""question-area""></div> 
                </div>","null","","","","","","","","",""
"","","","","","html-button-response","24","161440","0.0-24.0","BAE1E65B97734A5FB961DC843F50677C","019cf4d7-3511-79bb-81d7-098a844a2be3","019cf4c8-1de8-79ec-b3bd-d98520647593","","1138","
                <div class=""stimulus-container"">
                    <img src=""images/causal_sequence/package_causal/package_causal_4.png"" class=""exp-image"">
                    <div class=""question-area"">
                        <p style=""font-size: 20px; font-weight: bold; margin: 0;"">Is there a person in this image?</p>
                    </div>
                </div>","1","main_experiment_trial","4","package_causal","causal_sequence","","","","",""
"","","","","","html-keyboard-response","25","166441","0.0-25.0","BAE1E65B97734A5FB961DC843F50677C","019cf4d7-3511-79bb-81d7-098a844a2be3","019cf4c8-1de8-79ec-b3bd-d98520647593","","null","
                <div class=""stimulus-container"">
                    <img src=""images/causal_sequence/package_causal/package_causal_5.png"" class=""exp-image"">
                    <div class=""question-area""></div> 
                </div>","null","","","","","","","","",""
"","","","","","html-button-response","26","167414","0.0-26.0","BAE1E65B97734A5FB961DC843F50677C","019cf4d7-3511-79bb-81d7-098a844a2be3","019cf4c8-1de8-79ec-b3bd-d98520647593","","972","
                <div class=""stimulus-container"">
                    <img src=""images/causal_sequence/package_causal/package_causal_5.png"" class=""exp-image"">
                    <div class=""question-area"">
                        <p style=""font-size: 20px; font-weight: bold; margin: 0;"">Is there a person in this image?</p>
                    </div>
                </div>","0","main_experiment_trial","5","package_causal","causal_sequence","","","","",""
"","","","","","html-keyboard-response","27","172417","0.0-27.0","BAE1E65B97734A5FB961DC843F50677C","019cf4d7-3511-79bb-81d7-098a844a2be3","019cf4c8-1de8-79ec-b3bd-d98520647593","","null","
                <div class=""stimulus-container"">
                    <img src=""images/causal_sequence/package_causal/package_causal_6.png"" class=""exp-image"">
                    <div class=""question-area""></div> 
                </div>","null","","","","","","","","",""
"","","","","","html-button-response","28","173386","0.0-28.0","BAE1E65B97734A5FB961DC843F50677C","019cf4d7-3511-79bb-81d7-098a844a2be3","019cf4c8-1de8-79ec-b3bd-d98520647593","","969","
                <div class=""stimulus-container"">
                    <img src=""images/causal_sequence/package_causal/package_causal_6.png"" class=""exp-image"">
                    <div class=""question-area"">
                        <p style=""font-size: 20px; font-weight: bold; margin: 0;"">Is there a person in this image?</p>
                    </div>
                </div>","0","main_experiment_trial","6","package_causal","causal_sequence","","","","",""
"","","","","","html-keyboard-response","29","178389","0.0-29.0","BAE1E65B97734A5FB961DC843F50677C","019cf4d7-3511-79bb-81d7-098a844a2be3","019cf4c8-1de8-79ec-b3bd-d98520647593","","null","
                <div class=""stimulus-container"">
                    <img src=""images/causal_sequence/package_causal/package_causal_7.png"" class=""exp-image"">
                    <div class=""question-area""></div> 
                </div>","null","","","","","","","","",""
"","","","","","html-button-response","30","179532","0.0-30.0","BAE1E65B97734A5FB961DC843F50677C","019cf4d7-3511-79bb-81d7-098a844a2be3","019cf4c8-1de8-79ec-b3bd-d98520647593","","1142","
                <div class=""stimulus-container"">
                    <img src=""images/causal_sequence/package_causal/package_causal_7.png"" class=""exp-image"">
                    <div class=""question-area"">
                        <p style=""font-size: 20px; font-weight: bold; margin: 0;"">Is there a person in this image?</p>
                    </div>
                </div>","0","main_experiment_trial","7","package_causal","causal_sequence","","","","",""
"","","","","","html-keyboard-response","31","184534","0.0-31.0","BAE1E65B97734A5FB961DC843F50677C","019cf4d7-3511-79bb-81d7-098a844a2be3","019cf4c8-1de8-79ec-b3bd-d98520647593","","null","
                <div class=""stimulus-container"">
                    <img src=""images/causal_sequence/package_causal/package_causal_8.png"" class=""exp-image"">
                    <div class=""question-area""></div> 
                </div>","null","","","","","","","","",""
"","","","","","html-button-response","32","185357","0.0-32.0","BAE1E65B97734A5FB961DC843F50677C","019cf4d7-3511-79bb-81d7-098a844a2be3","019cf4c8-1de8-79ec-b3bd-d98520647593","","822","
                <div class=""stimulus-container"">
                    <img src=""images/causal_sequence/package_causal/package_causal_8.png"" class=""exp-image"">
                    <div class=""question-area"">
                        <p style=""font-size: 20px; font-weight: bold; margin: 0;"">Is there a person in this image?</p>
                    </div>
                </div>","0","main_experiment_trial","8","package_causal","causal_sequence","","","","",""
"","","","","","html-keyboard-response","33","190359","0.0-33.0","BAE1E65B97734A5FB961DC843F50677C","019cf4d7-3511-79bb-81d7-098a844a2be3","019cf4c8-1de8-79ec-b3bd-d98520647593","","null","
                <div class=""stimulus-container"">
                    <img src=""images/causal_sequence/package_causal/package_causal_9.png"" class=""exp-image"">
                    <div class=""question-area""></div> 
                </div>","null","","","","","","","","",""
"","","","","","html-button-response","34","191597","0.0-34.0","BAE1E65B97734A5FB961DC843F50677C","019cf4d7-3511-79bb-81d7-098a844a2be3","019cf4c8-1de8-79ec-b3bd-d98520647593","","1237","
                <div class=""stimulus-container"">
                    <img src=""images/causal_sequence/package_causal/package_causal_9.png"" class=""exp-image"">
                    <div class=""question-area"">
                        <p style=""font-size: 20px; font-weight: bold; margin: 0;"">Is there a person in this image?</p>
                    </div>
                </div>","0","main_experiment_trial","9","package_causal","causal_sequence","","","","",""
"","","","","","html-keyboard-response","35","196599","0.0-35.0","BAE1E65B97734A5FB961DC843F50677C","019cf4d7-3511-79bb-81d7-098a844a2be3","019cf4c8-1de8-79ec-b3bd-d98520647593","","null","
                <div class=""stimulus-container"">
                    <img src=""images/causal_sequence/package_causal/package_causal_ten.png"" class=""exp-image"">
                    <div class=""question-area""></div> 
                </div>","null","","","","","","","","",""
"","","","","","html-button-response","36","197323","0.0-36.0","BAE1E65B97734A5FB961DC843F50677C","019cf4d7-3511-79bb-81d7-098a844a2be3","019cf4c8-1de8-79ec-b3bd-d98520647593","","723","
                <div class=""stimulus-container"">
                    <img src=""images/causal_sequence/package_causal/package_causal_ten.png"" class=""exp-image"">
                    <div class=""question-area"">
                        <p style=""font-size: 20px; font-weight: bold; margin: 0;"">Is there a person in this image?</p>
                    </div>
                </div>","0","main_experiment_trial","ten","package_causal","causal_sequence","","","","",""
"","","","","","html-keyboard-response","37","198325","0.0-37.0","BAE1E65B97734A5FB961DC843F50677C","019cf4d7-3511-79bb-81d7-098a844a2be3","019cf4c8-1de8-79ec-b3bd-d98520647593","","null","<div style=""background-color: white; width: 100vw; height: 100vh;""></div>","null","","","","","","","","",""
"","","","","","html-keyboard-response","38","203327","0.0-38.0","BAE1E65B97734A5FB961DC843F50677C","019cf4d7-3511-79bb-81d7-098a844a2be3","019cf4c8-1de8-79ec-b3bd-d98520647593","","null","
                <div class=""stimulus-container"">
                    <img src=""images/schematic_sequence/dinner_party_scheme/dinner_party_scheme_1.png"" class=""exp-image"">
                    <div class=""question-area""></div> 
                </div>","null","","","","","","","","",""
"","","","","","html-button-response","39","205172","0.0-39.0","BAE1E65B97734A5FB961DC843F50677C","019cf4d7-3511-79bb-81d7-098a844a2be3","019cf4c8-1de8-79ec-b3bd-d98520647593","","1844","
                <div class=""stimulus-container"">
                    <img src=""images/schematic_sequence/dinner_party_scheme/dinner_party_scheme_1.png"" class=""exp-image"">
                    <div class=""question-area"">
                        <p style=""font-size: 20px; font-weight: bold; margin: 0;"">Is there a person in this image?</p>
                    </div>
                </div>","0","main_experiment_trial","1","dinner_party_scheme","schematic_sequence","","","","",""
"","","","","","html-keyboard-response","40","210174","0.0-40.0","BAE1E65B97734A5FB961DC843F50677C","019cf4d7-3511-79bb-81d7-098a844a2be3","019cf4c8-1de8-79ec-b3bd-d98520647593","","null","
                <div class=""stimulus-container"">
                    <img src=""images/schematic_sequence/dinner_party_scheme/dinner_party_scheme_2.png"" class=""exp-image"">
                    <div class=""question-area""></div> 
                </div>","null","","","","","","","","",""
"","","","","","html-button-response","41","212665","0.0-41.0","BAE1E65B97734A5FB961DC843F50677C","019cf4d7-3511-79bb-81d7-098a844a2be3","019cf4c8-1de8-79ec-b3bd-d98520647593","","2489","
                <div class=""stimulus-container"">
                    <img src=""images/schematic_sequence/dinner_party_scheme/dinner_party_scheme_2.png"" class=""exp-image"">
                    <div class=""question-area"">
                        <p style=""font-size: 20px; font-weight: bold; margin: 0;"">Is there a person in this image?</p>
                    </div>
                </div>","0","main_experiment_trial","2","dinner_party_scheme","schematic_sequence","","","","",""
"","","","","","html-keyboard-response","42","217666","0.0-42.0","BAE1E65B97734A5FB961DC843F50677C","019cf4d7-3511-79bb-81d7-098a844a2be3","019cf4c8-1de8-79ec-b3bd-d98520647593","","null","
                <div class=""stimulus-container"">
                    <img src=""images/schematic_sequence/dinner_party_scheme/dinner_party_scheme_3.png"" class=""exp-image"">
                    <div class=""question-area""></div> 
                </div>","null","","","","","","","","",""
"","","","","","html-button-response","43","218616","0.0-43.0","BAE1E65B97734A5FB961DC843F50677C","019cf4d7-3511-79bb-81d7-098a844a2be3","019cf4c8-1de8-79ec-b3bd-d98520647593","","948","
                <div class=""stimulus-container"">
                    <img src=""images/schematic_sequence/dinner_party_scheme/dinner_party_scheme_3.png"" class=""exp-image"">
                    <div class=""question-area"">
                        <p style=""font-size: 20px; font-weight: bold; margin: 0;"">Is there a person in this image?</p>
                    </div>
                </div>","0","main_experiment_trial","3","dinner_party_scheme","schematic_sequence","","","","",""
"","","","","","html-keyboard-response","44","223618","0.0-44.0","BAE1E65B97734A5FB961DC843F50677C","019cf4d7-3511-79bb-81d7-098a844a2be3","019cf4c8-1de8-79ec-b3bd-d98520647593","","null","
                <div class=""stimulus-container"">
                    <img src=""images/schematic_sequence/dinner_party_scheme/dinner_party_scheme_4.png"" class=""exp-image"">
                    <div class=""question-area""></div> 
                </div>","null","","","","","","","","",""
"","","","","","html-button-response","45","224403","0.0-45.0","BAE1E65B97734A5FB961DC843F50677C","019cf4d7-3511-79bb-81d7-098a844a2be3","019cf4c8-1de8-79ec-b3bd-d98520647593","","784","
                <div class=""stimulus-container"">
                    <img src=""images/schematic_sequence/dinner_party_scheme/dinner_party_scheme_4.png"" class=""exp-image"">
                    <div class=""question-area"">
                        <p style=""font-size: 20px; font-weight: bold; margin: 0;"">Is there a person in this image?</p>
                    </div>
                </div>","0","main_experiment_trial","4","dinner_party_scheme","schematic_sequence","","","","",""
"","","","","","html-keyboard-response","46","229406","0.0-46.0","BAE1E65B97734A5FB961DC843F50677C","019cf4d7-3511-79bb-81d7-098a844a2be3","019cf4c8-1de8-79ec-b3bd-d98520647593","","null","
                <div class=""stimulus-container"">
                    <img src=""images/schematic_sequence/dinner_party_scheme/dinner_party_scheme_5.png"" class=""exp-image"">
                    <div class=""question-area""></div> 
                </div>","null","","","","","","","","",""
"","","","","","html-button-response","47","230201","0.0-47.0","BAE1E65B97734A5FB961DC843F50677C","019cf4d7-3511-79bb-81d7-098a844a2be3","019cf4c8-1de8-79ec-b3bd-d98520647593","","794","
                <div class=""stimulus-container"">
                    <img src=""images/schematic_sequence/dinner_party_scheme/dinner_party_scheme_5.png"" class=""exp-image"">
                    <div class=""question-area"">
                        <p style=""font-size: 20px; font-weight: bold; margin: 0;"">Is there a person in this image?</p>
                    </div>
                </div>","0","main_experiment_trial","5","dinner_party_scheme","schematic_sequence","","","","",""
"","","","","","html-keyboard-response","48","235203","0.0-48.0","BAE1E65B97734A5FB961DC843F50677C","019cf4d7-3511-79bb-81d7-098a844a2be3","019cf4c8-1de8-79ec-b3bd-d98520647593","","null","
                <div class=""stimulus-container"">
                    <img src=""images/schematic_sequence/dinner_party_scheme/dinner_party_scheme_6.png"" class=""exp-image"">
                    <div class=""question-area""></div> 
                </div>","null","","","","","","","","",""
"","","","","","html-button-response","49","236501","0.0-49.0","BAE1E65B97734A5FB961DC843F50677C","019cf4d7-3511-79bb-81d7-098a844a2be3","019cf4c8-1de8-79ec-b3bd-d98520647593","","1297","
                <div class=""stimulus-container"">
                    <img src=""images/schematic_sequence/dinner_party_scheme/dinner_party_scheme_6.png"" class=""exp-image"">
                    <div class=""question-area"">
                        <p style=""font-size: 20px; font-weight: bold; margin: 0;"">Is there a person in this image?</p>
                    </div>
                </div>","0","main_experiment_trial","6","dinner_party_scheme","schematic_sequence","","","","",""
"","","","","","html-keyboard-response","50","241503","0.0-50.0","BAE1E65B97734A5FB961DC843F50677C","019cf4d7-3511-79bb-81d7-098a844a2be3","019cf4c8-1de8-79ec-b3bd-d98520647593","","null","
                <div class=""stimulus-container"">
                    <img src=""images/schematic_sequence/dinner_party_scheme/dinner_party_scheme_7.png"" class=""exp-image"">
                    <div class=""question-area""></div> 
                </div>","null","","","","","","","","",""
"","","","","","html-button-response","51","242075","0.0-51.0","BAE1E65B97734A5FB961DC843F50677C","019cf4d7-3511-79bb-81d7-098a844a2be3","019cf4c8-1de8-79ec-b3bd-d98520647593","","571","
                <div class=""stimulus-container"">
                    <img src=""images/schematic_sequence/dinner_party_scheme/dinner_party_scheme_7.png"" class=""exp-image"">
                    <div class=""question-area"">
                        <p style=""font-size: 20px; font-weight: bold; margin: 0;"">Is there a person in this image?</p>
                    </div>
                </div>","0","main_experiment_trial","7","dinner_party_scheme","schematic_sequence","","","","",""
"","","","","","html-keyboard-response","52","247078","0.0-52.0","BAE1E65B97734A5FB961DC843F50677C","019cf4d7-3511-79bb-81d7-098a844a2be3","019cf4c8-1de8-79ec-b3bd-d98520647593","","null","
                <div class=""stimulus-container"">
                    <img src=""images/schematic_sequence/dinner_party_scheme/dinner_party_scheme_8.png"" class=""exp-image"">
                    <div class=""question-area""></div> 
                </div>","null","","","","","","","","",""
"","","","","","html-button-response","53","247747","0.0-53.0","BAE1E65B97734A5FB961DC843F50677C","019cf4d7-3511-79bb-81d7-098a844a2be3","019cf4c8-1de8-79ec-b3bd-d98520647593","","669","
                <div class=""stimulus-container"">
                    <img src=""images/schematic_sequence/dinner_party_scheme/dinner_party_scheme_8.png"" class=""exp-image"">
                    <div class=""question-area"">
                        <p style=""font-size: 20px; font-weight: bold; margin: 0;"">Is there a person in this image?</p>
                    </div>
                </div>","0","main_experiment_trial","8","dinner_party_scheme","schematic_sequence","","","","",""
"","","","","","html-keyboard-response","54","252749","0.0-54.0","BAE1E65B97734A5FB961DC843F50677C","019cf4d7-3511-79bb-81d7-098a844a2be3","019cf4c8-1de8-79ec-b3bd-d98520647593","","null","
                <div class=""stimulus-container"">
                    <img src=""images/schematic_sequence/dinner_party_scheme/dinner_party_scheme_9.png"" class=""exp-image"">
                    <div class=""question-area""></div> 
                </div>","null","","","","","","","","",""
"","","","","","html-button-response","55","253394","0.0-55.0","BAE1E65B97734A5FB961DC843F50677C","019cf4d7-3511-79bb-81d7-098a844a2be3","019cf4c8-1de8-79ec-b3bd-d98520647593","","645","
                <div class=""stimulus-container"">
                    <img src=""images/schematic_sequence/dinner_party_scheme/dinner_party_scheme_9.png"" class=""exp-image"">
                    <div class=""question-area"">
                        <p style=""font-size: 20px; font-weight: bold; margin: 0;"">Is there a person in this image?</p>
                    </div>
                </div>","0","main_experiment_trial","9","dinner_party_scheme","schematic_sequence","","","","",""
"","","","","","html-keyboard-response","56","258397","0.0-56.0","BAE1E65B97734A5FB961DC843F50677C","019cf4d7-3511-79bb-81d7-098a844a2be3","019cf4c8-1de8-79ec-b3bd-d98520647593","","null","
                <div class=""stimulus-container"">
                    <img src=""images/schematic_sequence/dinner_party_scheme/dinner_party_scheme_ten.png"" class=""exp-image"">
                    <div class=""question-area""></div> 
                </div>","null","","","","","","","","",""
"","","","","","html-button-response","57","259307","0.0-57.0","BAE1E65B97734A5FB961DC843F50677C","019cf4d7-3511-79bb-81d7-098a844a2be3","019cf4c8-1de8-79ec-b3bd-d98520647593","","910","
                <div class=""stimulus-container"">
                    <img src=""images/schematic_sequence/dinner_party_scheme/dinner_party_scheme_ten.png"" class=""exp-image"">
                    <div class=""question-area"">
                        <p style=""font-size: 20px; font-weight: bold; margin: 0;"">Is there a person in this image?</p>
                    </div>
                </div>","0","main_experiment_trial","ten","dinner_party_scheme","schematic_sequence","","","","",""
"","","","","","html-keyboard-response","58","260309","0.0-58.0","BAE1E65B97734A5FB961DC843F50677C","019cf4d7-3511-79bb-81d7-098a844a2be3","019cf4c8-1de8-79ec-b3bd-d98520647593","","null","<div style=""background-color: white; width: 100vw; height: 100vh;""></div>","null","","","","","","","","",""
"","","","","","html-keyboard-response","59","265312","0.0-59.0","BAE1E65B97734A5FB961DC843F50677C","019cf4d7-3511-79bb-81d7-098a844a2be3","019cf4c8-1de8-79ec-b3bd-d98520647593","","null","
                <div class=""stimulus-container"">
                    <img src=""images/causal_sequence/the_performance_causal/the_performance_causal_1.png"" class=""exp-image"">
                    <div class=""question-area""></div> 
                </div>","null","","","","","","","","",""
"","","","","","html-button-response","60","266246","0.0-60.0","BAE1E65B97734A5FB961DC843F50677C","019cf4d7-3511-79bb-81d7-098a844a2be3","019cf4c8-1de8-79ec-b3bd-d98520647593","","933","
                <div class=""stimulus-container"">
                    <img src=""images/causal_sequence/the_performance_causal/the_performance_causal_1.png"" class=""exp-image"">
                    <div class=""question-area"">
                        <p style=""font-size: 20px; font-weight: bold; margin: 0;"">Is there a person in this image?</p>
                    </div>
                </div>","0","main_experiment_trial","1","the_performance_causal","causal_sequence","","","","",""
"","","","","","html-keyboard-response","61","271248","0.0-61.0","BAE1E65B97734A5FB961DC843F50677C","019cf4d7-3511-79bb-81d7-098a844a2be3","019cf4c8-1de8-79ec-b3bd-d98520647593","","null","
                <div class=""stimulus-container"">
                    <img src=""images/causal_sequence/the_performance_causal/the_performance_causal_2.png"" class=""exp-image"">
                    <div class=""question-area""></div> 
                </div>","null","","","","","","","","",""
"","","","","","html-button-response","62","271919","0.0-62.0","BAE1E65B97734A5FB961DC843F50677C","019cf4d7-3511-79bb-81d7-098a844a2be3","019cf4c8-1de8-79ec-b3bd-d98520647593","","670","
                <div class=""stimulus-container"">
                    <img src=""images/causal_sequence/the_performance_causal/the_performance_causal_2.png"" class=""exp-image"">
                    <div class=""question-area"">
                        <p style=""font-size: 20px; font-weight: bold; margin: 0;"">Is there a person in this image?</p>
                    </div>
                </div>","0","main_experiment_trial","2","the_performance_causal","causal_sequence","","","","",""
"","","","","","html-keyboard-response","63","276921","0.0-63.0","BAE1E65B97734A5FB961DC843F50677C","019cf4d7-3511-79bb-81d7-098a844a2be3","019cf4c8-1de8-79ec-b3bd-d98520647593","","null","
                <div class=""stimulus-container"">
                    <img src=""images/causal_sequence/the_performance_causal/the_performance_causal_3.png"" class=""exp-image"">
                    <div class=""question-area""></div> 
                </div>","null","","","","","","","","",""
"","","","","","html-button-response","64","277566","0.0-64.0","BAE1E65B97734A5FB961DC843F50677C","019cf4d7-3511-79bb-81d7-098a844a2be3","019cf4c8-1de8-79ec-b3bd-d98520647593","","644","
                <div class=""stimulus-container"">
                    <img src=""images/causal_sequence/the_performance_causal/the_performance_causal_3.png"" class=""exp-image"">
                    <div class=""question-area"">
                        <p style=""font-size: 20px; font-weight: bold; margin: 0;"">Is there a person in this image?</p>
                    </div>
                </div>","0","main_experiment_trial","3","the_performance_causal","causal_sequence","","","","",""
"","","","","","html-keyboard-response","65","282568","0.0-65.0","BAE1E65B97734A5FB961DC843F50677C","019cf4d7-3511-79bb-81d7-098a844a2be3","019cf4c8-1de8-79ec-b3bd-d98520647593","","null","
                <div class=""stimulus-container"">
                    <img src=""images/causal_sequence/the_performance_causal/the_performance_causal_4.png"" class=""exp-image"">
                    <div class=""question-area""></div> 
                </div>","null","","","","","","","","",""
"","","","","","html-button-response","66","283034","0.0-66.0","BAE1E65B97734A5FB961DC843F50677C","019cf4d7-3511-79bb-81d7-098a844a2be3","019cf4c8-1de8-79ec-b3bd-d98520647593","","466","
                <div class=""stimulus-container"">
                    <img src=""images/causal_sequence/the_performance_causal/the_performance_causal_4.png"" class=""exp-image"">
                    <div class=""question-area"">
                        <p style=""font-size: 20px; font-weight: bold; margin: 0;"">Is there a person in this image?</p>
                    </div>
                </div>","0","main_experiment_trial","4","the_performance_causal","causal_sequence","","","","",""
"","","","","","html-keyboard-response","67","288037","0.0-67.0","BAE1E65B97734A5FB961DC843F50677C","019cf4d7-3511-79bb-81d7-098a844a2be3","019cf4c8-1de8-79ec-b3bd-d98520647593","","null","
                <div class=""stimulus-container"">
                    <img src=""images/causal_sequence/the_performance_causal/the_performance_causal_5.png"" class=""exp-image"">
                    <div class=""question-area""></div> 
                </div>","null","","","","","","","","",""
"","","","","","html-button-response","68","288711","0.0-68.0","BAE1E65B97734A5FB961DC843F50677C","019cf4d7-3511-79bb-81d7-098a844a2be3","019cf4c8-1de8-79ec-b3bd-d98520647593","","673","
                <div class=""stimulus-container"">
                    <img src=""images/causal_sequence/the_performance_causal/the_performance_causal_5.png"" class=""exp-image"">
                    <div class=""question-area"">
                        <p style=""font-size: 20px; font-weight: bold; margin: 0;"">Is there a person in this image?</p>
                    </div>
                </div>","0","main_experiment_trial","5","the_performance_causal","causal_sequence","","","","",""
"","","","","","html-keyboard-response","69","293714","0.0-69.0","BAE1E65B97734A5FB961DC843F50677C","019cf4d7-3511-79bb-81d7-098a844a2be3","019cf4c8-1de8-79ec-b3bd-d98520647593","","null","
                <div class=""stimulus-container"">
                    <img src=""images/causal_sequence/the_performance_causal/the_performance_causal_6.png"" class=""exp-image"">
                    <div class=""question-area""></div> 
                </div>","null","","","","","","","","",""
"","","","","","html-button-response","70","294903","0.0-70.0","BAE1E65B97734A5FB961DC843F50677C","019cf4d7-3511-79bb-81d7-098a844a2be3","019cf4c8-1de8-79ec-b3bd-d98520647593","","1188","
                <div class=""stimulus-container"">
                    <img src=""images/causal_sequence/the_performance_causal/the_performance_causal_6.png"" class=""exp-image"">
                    <div class=""question-area"">
                        <p style=""font-size: 20px; font-weight: bold; margin: 0;"">Is there a person in this image?</p>
                    </div>
                </div>","0","main_experiment_trial","6","the_performance_causal","causal_sequence","","","","",""
"","","","","","html-keyboard-response","71","299906","0.0-71.0","BAE1E65B97734A5FB961DC843F50677C","019cf4d7-3511-79bb-81d7-098a844a2be3","019cf4c8-1de8-79ec-b3bd-d98520647593","","null","
                <div class=""stimulus-container"">
                    <img src=""images/causal_sequence/the_performance_causal/the_performance_causal_7.png"" class=""exp-image"">
                    <div class=""question-area""></div> 
                </div>","null","","","","","","","","",""
"","","","","","html-button-response","72","300536","0.0-72.0","BAE1E65B97734A5FB961DC843F50677C","019cf4d7-3511-79bb-81d7-098a844a2be3","019cf4c8-1de8-79ec-b3bd-d98520647593","","629","
                <div class=""stimulus-container"">
                    <img src=""images/causal_sequence/the_performance_causal/the_performance_causal_7.png"" class=""exp-image"">
                    <div class=""question-area"">
                        <p style=""font-size: 20px; font-weight: bold; margin: 0;"">Is there a person in this image?</p>
                    </div>
                </div>","0","main_experiment_trial","7","the_performance_causal","causal_sequence","","","","",""
"","","","","","html-keyboard-response","73","305537","0.0-73.0","BAE1E65B97734A5FB961DC843F50677C","019cf4d7-3511-79bb-81d7-098a844a2be3","019cf4c8-1de8-79ec-b3bd-d98520647593","","null","
                <div class=""stimulus-container"">
                    <img src=""images/causal_sequence/the_performance_causal/the_performance_causal_8.png"" class=""exp-image"">
                    <div class=""question-area""></div> 
                </div>","null","","","","","","","","",""
"","","","","","html-button-response","74","306376","0.0-74.0","BAE1E65B97734A5FB961DC843F50677C","019cf4d7-3511-79bb-81d7-098a844a2be3","019cf4c8-1de8-79ec-b3bd-d98520647593","","839","
                <div class=""stimulus-container"">
                    <img src=""images/causal_sequence/the_performance_causal/the_performance_causal_8.png"" class=""exp-image"">
                    <div class=""question-area"">
                        <p style=""font-size: 20px; font-weight: bold; margin: 0;"">Is there a person in this image?</p>
                    </div>
                </div>","0","main_experiment_trial","8","the_performance_causal","causal_sequence","","","","",""
"","","","","","html-keyboard-response","75","311379","0.0-75.0","BAE1E65B97734A5FB961DC843F50677C","019cf4d7-3511-79bb-81d7-098a844a2be3","019cf4c8-1de8-79ec-b3bd-d98520647593","","null","
                <div class=""stimulus-container"">
                    <img src=""images/causal_sequence/the_performance_causal/the_performance_causal_9.png"" class=""exp-image"">
                    <div class=""question-area""></div> 
                </div>","null","","","","","","","","",""
"","","","","","html-button-response","76","312237","0.0-76.0","BAE1E65B97734A5FB961DC843F50677C","019cf4d7-3511-79bb-81d7-098a844a2be3","019cf4c8-1de8-79ec-b3bd-d98520647593","","857","
                <div class=""stimulus-container"">
                    <img src=""images/causal_sequence/the_performance_causal/the_performance_causal_9.png"" class=""exp-image"">
                    <div class=""question-area"">
                        <p style=""font-size: 20px; font-weight: bold; margin: 0;"">Is there a person in this image?</p>
                    </div>
                </div>","0","main_experiment_trial","9","the_performance_causal","causal_sequence","","","","",""
"","","","","","html-keyboard-response","77","317239","0.0-77.0","BAE1E65B97734A5FB961DC843F50677C","019cf4d7-3511-79bb-81d7-098a844a2be3","019cf4c8-1de8-79ec-b3bd-d98520647593","","null","
                <div class=""stimulus-container"">
                    <img src=""images/causal_sequence/the_performance_causal/the_performance_causal_ten.png"" class=""exp-image"">
                    <div class=""question-area""></div> 
                </div>","null","","","","","","","","",""
"","","","","","html-button-response","78","318167","0.0-78.0","BAE1E65B97734A5FB961DC843F50677C","019cf4d7-3511-79bb-81d7-098a844a2be3","019cf4c8-1de8-79ec-b3bd-d98520647593","","926","
                <div class=""stimulus-container"">
                    <img src=""images/causal_sequence/the_performance_causal/the_performance_causal_ten.png"" class=""exp-image"">
                    <div class=""question-area"">
                        <p style=""font-size: 20px; font-weight: bold; margin: 0;"">Is there a person in this image?</p>
                    </div>
                </div>","0","main_experiment_trial","ten","the_performance_causal","causal_sequence","","","","",""
"","","","","","html-keyboard-response","79","319169","0.0-79.0","BAE1E65B97734A5FB961DC843F50677C","019cf4d7-3511-79bb-81d7-098a844a2be3","019cf4c8-1de8-79ec-b3bd-d98520647593","","null","<div style=""background-color: white; width: 100vw; height: 100vh;""></div>","null","","","","","","","","",""
"","","","","","html-keyboard-response","80","324171","0.0-80.0","BAE1E65B97734A5FB961DC843F50677C","019cf4d7-3511-79bb-81d7-098a844a2be3","019cf4c8-1de8-79ec-b3bd-d98520647593","","null","
                <div class=""stimulus-container"">
                    <img src=""images/schematic_sequence/supermarket_scheme/supermarket_scheme_1.png"" class=""exp-image"">
                    <div class=""question-area""></div> 
                </div>","null","","","","","","","","",""
"","","","","","html-button-response","81","325086","0.0-81.0","BAE1E65B97734A5FB961DC843F50677C","019cf4d7-3511-79bb-81d7-098a844a2be3","019cf4c8-1de8-79ec-b3bd-d98520647593","","914","
                <div class=""stimulus-container"">
                    <img src=""images/schematic_sequence/supermarket_scheme/supermarket_scheme_1.png"" class=""exp-image"">
                    <div class=""question-area"">
                        <p style=""font-size: 20px; font-weight: bold; margin: 0;"">Is there a person in this image?</p>
                    </div>
                </div>","1","main_experiment_trial","1","supermarket_scheme","schematic_sequence","","","","",""
"","","","","","html-keyboard-response","82","330089","0.0-82.0","BAE1E65B97734A5FB961DC843F50677C","019cf4d7-3511-79bb-81d7-098a844a2be3","019cf4c8-1de8-79ec-b3bd-d98520647593","","null","
                <div class=""stimulus-container"">
                    <img src=""images/schematic_sequence/supermarket_scheme/supermarket_scheme_2.png"" class=""exp-image"">
                    <div class=""question-area""></div> 
                </div>","null","","","","","","","","",""
"","","","","","html-button-response","83","330703","0.0-83.0","BAE1E65B97734A5FB961DC843F50677C","019cf4d7-3511-79bb-81d7-098a844a2be3","019cf4c8-1de8-79ec-b3bd-d98520647593","","613","
                <div class=""stimulus-container"">
                    <img src=""images/schematic_sequence/supermarket_scheme/supermarket_scheme_2.png"" class=""exp-image"">
                    <div class=""question-area"">
                        <p style=""font-size: 20px; font-weight: bold; margin: 0;"">Is there a person in this image?</p>
                    </div>
                </div>","1","main_experiment_trial","2","supermarket_scheme","schematic_sequence","","","","",""
"","","","","","html-keyboard-response","84","335705","0.0-84.0","BAE1E65B97734A5FB961DC843F50677C","019cf4d7-3511-79bb-81d7-098a844a2be3","019cf4c8-1de8-79ec-b3bd-d98520647593","","null","
                <div class=""stimulus-container"">
                    <img src=""images/schematic_sequence/supermarket_scheme/supermarket_scheme_3.png"" class=""exp-image"">
                    <div class=""question-area""></div> 
                </div>","null","","","","","","","","",""
"","","","","","html-button-response","85","336388","0.0-85.0","BAE1E65B97734A5FB961DC843F50677C","019cf4d7-3511-79bb-81d7-098a844a2be3","019cf4c8-1de8-79ec-b3bd-d98520647593","","682","
                <div class=""stimulus-container"">
                    <img src=""images/schematic_sequence/supermarket_scheme/supermarket_scheme_3.png"" class=""exp-image"">
                    <div class=""question-area"">
                        <p style=""font-size: 20px; font-weight: bold; margin: 0;"">Is there a person in this image?</p>
                    </div>
                </div>","1","main_experiment_trial","3","supermarket_scheme","schematic_sequence","","","","",""
"","","","","","html-keyboard-response","86","341390","0.0-86.0","BAE1E65B97734A5FB961DC843F50677C","019cf4d7-3511-79bb-81d7-098a844a2be3","019cf4c8-1de8-79ec-b3bd-d98520647593","","null","
                <div class=""stimulus-container"">
                    <img src=""images/schematic_sequence/supermarket_scheme/supermarket_scheme_4.png"" class=""exp-image"">
                    <div class=""question-area""></div> 
                </div>","null","","","","","","","","",""
"","","","","","html-button-response","87","342286","0.0-87.0","BAE1E65B97734A5FB961DC843F50677C","019cf4d7-3511-79bb-81d7-098a844a2be3","019cf4c8-1de8-79ec-b3bd-d98520647593","","896","
                <div class=""stimulus-container"">
                    <img src=""images/schematic_sequence/supermarket_scheme/supermarket_scheme_4.png"" class=""exp-image"">
                    <div class=""question-area"">
                        <p style=""font-size: 20px; font-weight: bold; margin: 0;"">Is there a person in this image?</p>
                    </div>
                </div>","0","main_experiment_trial","4","supermarket_scheme","schematic_sequence","","","","",""
"","","","","","html-keyboard-response","88","347288","0.0-88.0","BAE1E65B97734A5FB961DC843F50677C","019cf4d7-3511-79bb-81d7-098a844a2be3","019cf4c8-1de8-79ec-b3bd-d98520647593","","null","
                <div class=""stimulus-container"">
                    <img src=""images/schematic_sequence/supermarket_scheme/supermarket_scheme_5.png"" class=""exp-image"">
                    <div class=""question-area""></div> 
                </div>","null","","","","","","","","",""
"","","","","","html-button-response","89","348093","0.0-89.0","BAE1E65B97734A5FB961DC843F50677C","019cf4d7-3511-79bb-81d7-098a844a2be3","019cf4c8-1de8-79ec-b3bd-d98520647593","","805","
                <div class=""stimulus-container"">
                    <img src=""images/schematic_sequence/supermarket_scheme/supermarket_scheme_5.png"" class=""exp-image"">
                    <div class=""question-area"">
                        <p style=""font-size: 20px; font-weight: bold; margin: 0;"">Is there a person in this image?</p>
                    </div>
                </div>","1","main_experiment_trial","5","supermarket_scheme","schematic_sequence","","","","",""
"","","","","","html-keyboard-response","90","353095","0.0-90.0","BAE1E65B97734A5FB961DC843F50677C","019cf4d7-3511-79bb-81d7-098a844a2be3","019cf4c8-1de8-79ec-b3bd-d98520647593","","null","
                <div class=""stimulus-container"">
                    <img src=""images/schematic_sequence/supermarket_scheme/supermarket_scheme_6.png"" class=""exp-image"">
                    <div class=""question-area""></div> 
                </div>","null","","","","","","","","",""
"","","","","","html-button-response","91","354518","0.0-91.0","BAE1E65B97734A5FB961DC843F50677C","019cf4d7-3511-79bb-81d7-098a844a2be3","019cf4c8-1de8-79ec-b3bd-d98520647593","","1422","
                <div class=""stimulus-container"">
                    <img src=""images/schematic_sequence/supermarket_scheme/supermarket_scheme_6.png"" class=""exp-image"">
                    <div class=""question-area"">
                        <p style=""font-size: 20px; font-weight: bold; margin: 0;"">Is there a person in this image?</p>
                    </div>
                </div>","0","main_experiment_trial","6","supermarket_scheme","schematic_sequence","","","","",""
"","","","","","html-keyboard-response","92","359519","0.0-92.0","BAE1E65B97734A5FB961DC843F50677C","019cf4d7-3511-79bb-81d7-098a844a2be3","019cf4c8-1de8-79ec-b3bd-d98520647593","","null","
                <div class=""stimulus-container"">
                    <img src=""images/schematic_sequence/supermarket_scheme/supermarket_scheme_7.png"" class=""exp-image"">
                    <div class=""question-area""></div> 
                </div>","null","","","","","","","","",""
"","","","","","html-button-response","93","360245","0.0-93.0","BAE1E65B97734A5FB961DC843F50677C","019cf4d7-3511-79bb-81d7-098a844a2be3","019cf4c8-1de8-79ec-b3bd-d98520647593","","725","
                <div class=""stimulus-container"">
                    <img src=""images/schematic_sequence/supermarket_scheme/supermarket_scheme_7.png"" class=""exp-image"">
                    <div class=""question-area"">
                        <p style=""font-size: 20px; font-weight: bold; margin: 0;"">Is there a person in this image?</p>
                    </div>
                </div>","0","main_experiment_trial","7","supermarket_scheme","schematic_sequence","","","","",""
"","","","","","html-keyboard-response","94","365247","0.0-94.0","BAE1E65B97734A5FB961DC843F50677C","019cf4d7-3511-79bb-81d7-098a844a2be3","019cf4c8-1de8-79ec-b3bd-d98520647593","","null","
                <div class=""stimulus-container"">
                    <img src=""images/schematic_sequence/supermarket_scheme/supermarket_scheme_8.png"" class=""exp-image"">
                    <div class=""question-area""></div> 
                </div>","null","","","","","","","","",""
"","","","","","html-button-response","95","366088","0.0-95.0","BAE1E65B97734A5FB961DC843F50677C","019cf4d7-3511-79bb-81d7-098a844a2be3","019cf4c8-1de8-79ec-b3bd-d98520647593","","840","
                <div class=""stimulus-container"">
                    <img src=""images/schematic_sequence/supermarket_scheme/supermarket_scheme_8.png"" class=""exp-image"">
                    <div class=""question-area"">
                        <p style=""font-size: 20px; font-weight: bold; margin: 0;"">Is there a person in this image?</p>
                    </div>
                </div>","0","main_experiment_trial","8","supermarket_scheme","schematic_sequence","","","","",""
"","","","","","html-keyboard-response","96","371091","0.0-96.0","BAE1E65B97734A5FB961DC843F50677C","019cf4d7-3511-79bb-81d7-098a844a2be3","019cf4c8-1de8-79ec-b3bd-d98520647593","","null","
                <div class=""stimulus-container"">
                    <img src=""images/schematic_sequence/supermarket_scheme/supermarket_scheme_9.png"" class=""exp-image"">
                    <div class=""question-area""></div> 
                </div>","null","","","","","","","","",""
"","","","","","html-button-response","97","371788","0.0-97.0","BAE1E65B97734A5FB961DC843F50677C","019cf4d7-3511-79bb-81d7-098a844a2be3","019cf4c8-1de8-79ec-b3bd-d98520647593","","697","
                <div class=""stimulus-container"">
                    <img src=""images/schematic_sequence/supermarket_scheme/supermarket_scheme_9.png"" class=""exp-image"">
                    <div class=""question-area"">
                        <p style=""font-size: 20px; font-weight: bold; margin: 0;"">Is there a person in this image?</p>
                    </div>
                </div>","0","main_experiment_trial","9","supermarket_scheme","schematic_sequence","","","","",""
"","","","","","html-keyboard-response","98","376791","0.0-98.0","BAE1E65B97734A5FB961DC843F50677C","019cf4d7-3511-79bb-81d7-098a844a2be3","019cf4c8-1de8-79ec-b3bd-d98520647593","","null","
                <div class=""stimulus-container"">
                    <img src=""images/schematic_sequence/supermarket_scheme/supermarket_scheme_ten.png"" class=""exp-image"">
                    <div class=""question-area""></div> 
                </div>","null","","","","","","","","",""
"","","","","","html-button-response","99","377561","0.0-99.0","BAE1E65B97734A5FB961DC843F50677C","019cf4d7-3511-79bb-81d7-098a844a2be3","019cf4c8-1de8-79ec-b3bd-d98520647593","","770","
                <div class=""stimulus-container"">
                    <img src=""images/schematic_sequence/supermarket_scheme/supermarket_scheme_ten.png"" class=""exp-image"">
                    <div class=""question-area"">
                        <p style=""font-size: 20px; font-weight: bold; margin: 0;"">Is there a person in this image?</p>
                    </div>
                </div>","1","main_experiment_trial","ten","supermarket_scheme","schematic_sequence","","","","",""
"","","","","","html-keyboard-response","100","378563","0.0-100.0","BAE1E65B97734A5FB961DC843F50677C","019cf4d7-3511-79bb-81d7-098a844a2be3","019cf4c8-1de8-79ec-b3bd-d98520647593","","null","<div style=""background-color: white; width: 100vw; height: 100vh;""></div>","null","","","","","","","","",""
"","","","","","html-keyboard-response","101","383566","0.0-101.0","BAE1E65B97734A5FB961DC843F50677C","019cf4d7-3511-79bb-81d7-098a844a2be3","019cf4c8-1de8-79ec-b3bd-d98520647593","","null","
                <div class=""stimulus-container"">
                    <img src=""images/schematic_sequence/hotel_scheme/hotel_scheme_1.png"" class=""exp-image"">
                    <div class=""question-area""></div> 
                </div>","null","","","","","","","","",""
"","","","","","html-button-response","102","384117","0.0-102.0","BAE1E65B97734A5FB961DC843F50677C","019cf4d7-3511-79bb-81d7-098a844a2be3","019cf4c8-1de8-79ec-b3bd-d98520647593","","550","
                <div class=""stimulus-container"">
                    <img src=""images/schematic_sequence/hotel_scheme/hotel_scheme_1.png"" class=""exp-image"">
                    <div class=""question-area"">
                        <p style=""font-size: 20px; font-weight: bold; margin: 0;"">Is there a person in this image?</p>
                    </div>
                </div>","1","main_experiment_trial","1","hotel_scheme","schematic_sequence","","","","",""
"","","","","","html-keyboard-response","103","389119","0.0-103.0","BAE1E65B97734A5FB961DC843F50677C","019cf4d7-3511-79bb-81d7-098a844a2be3","019cf4c8-1de8-79ec-b3bd-d98520647593","","null","
                <div class=""stimulus-container"">
                    <img src=""images/schematic_sequence/hotel_scheme/hotel_scheme_2.png"" class=""exp-image"">
                    <div class=""question-area""></div> 
                </div>","null","","","","","","","","",""
"","","","","","html-button-response","104","389938","0.0-104.0","BAE1E65B97734A5FB961DC843F50677C","019cf4d7-3511-79bb-81d7-098a844a2be3","019cf4c8-1de8-79ec-b3bd-d98520647593","","817","
                <div class=""stimulus-container"">
                    <img src=""images/schematic_sequence/hotel_scheme/hotel_scheme_2.png"" class=""exp-image"">
                    <div class=""question-area"">
                        <p style=""font-size: 20px; font-weight: bold; margin: 0;"">Is there a person in this image?</p>
                    </div>
                </div>","0","main_experiment_trial","2","hotel_scheme","schematic_sequence","","","","",""
"","","","","","html-keyboard-response","105","394940","0.0-105.0","BAE1E65B97734A5FB961DC843F50677C","019cf4d7-3511-79bb-81d7-098a844a2be3","019cf4c8-1de8-79ec-b3bd-d98520647593","","null","
                <div class=""stimulus-container"">
                    <img src=""images/schematic_sequence/hotel_scheme/hotel_scheme_3.png"" class=""exp-image"">
                    <div class=""question-area""></div> 
                </div>","null","","","","","","","","",""
"","","","","","html-button-response","106","395587","0.0-106.0","BAE1E65B97734A5FB961DC843F50677C","019cf4d7-3511-79bb-81d7-098a844a2be3","019cf4c8-1de8-79ec-b3bd-d98520647593","","646","
                <div class=""stimulus-container"">
                    <img src=""images/schematic_sequence/hotel_scheme/hotel_scheme_3.png"" class=""exp-image"">
                    <div class=""question-area"">
                        <p style=""font-size: 20px; font-weight: bold; margin: 0;"">Is there a person in this image?</p>
                    </div>
                </div>","0","main_experiment_trial","3","hotel_scheme","schematic_sequence","","","","",""
"","","","","","html-keyboard-response","107","400590","0.0-107.0","BAE1E65B97734A5FB961DC843F50677C","019cf4d7-3511-79bb-81d7-098a844a2be3","019cf4c8-1de8-79ec-b3bd-d98520647593","","null","
                <div class=""stimulus-container"">
                    <img src=""images/schematic_sequence/hotel_scheme/hotel_scheme_4.png"" class=""exp-image"">
                    <div class=""question-area""></div> 
                </div>","null","","","","","","","","",""
"","","","","","html-button-response","108","401484","0.0-108.0","BAE1E65B97734A5FB961DC843F50677C","019cf4d7-3511-79bb-81d7-098a844a2be3","019cf4c8-1de8-79ec-b3bd-d98520647593","","893","
                <div class=""stimulus-container"">
                    <img src=""images/schematic_sequence/hotel_scheme/hotel_scheme_4.png"" class=""exp-image"">
                    <div class=""question-area"">
                        <p style=""font-size: 20px; font-weight: bold; margin: 0;"">Is there a person in this image?</p>
                    </div>
                </div>","1","main_experiment_trial","4","hotel_scheme","schematic_sequence","","","","",""
"","","","","","html-keyboard-response","109","406485","0.0-109.0","BAE1E65B97734A5FB961DC843F50677C","019cf4d7-3511-79bb-81d7-098a844a2be3","019cf4c8-1de8-79ec-b3bd-d98520647593","","null","
                <div class=""stimulus-container"">
                    <img src=""images/schematic_sequence/hotel_scheme/hotel_scheme_5.png"" class=""exp-image"">
                    <div class=""question-area""></div> 
                </div>","null","","","","","","","","",""
"","","","","","html-button-response","110","407581","0.0-110.0","BAE1E65B97734A5FB961DC843F50677C","019cf4d7-3511-79bb-81d7-098a844a2be3","019cf4c8-1de8-79ec-b3bd-d98520647593","","1095","
                <div class=""stimulus-container"">
                    <img src=""images/schematic_sequence/hotel_scheme/hotel_scheme_5.png"" class=""exp-image"">
                    <div class=""question-area"">
                        <p style=""font-size: 20px; font-weight: bold; margin: 0;"">Is there a person in this image?</p>
                    </div>
                </div>","0","main_experiment_trial","5","hotel_scheme","schematic_sequence","","","","",""
"","","","","","html-keyboard-response","111","412584","0.0-111.0","BAE1E65B97734A5FB961DC843F50677C","019cf4d7-3511-79bb-81d7-098a844a2be3","019cf4c8-1de8-79ec-b3bd-d98520647593","","null","
                <div class=""stimulus-container"">
                    <img src=""images/schematic_sequence/hotel_scheme/hotel_scheme_6.png"" class=""exp-image"">
                    <div class=""question-area""></div> 
                </div>","null","","","","","","","","",""
"","","","","","html-button-response","112","413201","0.0-112.0","BAE1E65B97734A5FB961DC843F50677C","019cf4d7-3511-79bb-81d7-098a844a2be3","019cf4c8-1de8-79ec-b3bd-d98520647593","","616","
                <div class=""stimulus-container"">
                    <img src=""images/schematic_sequence/hotel_scheme/hotel_scheme_6.png"" class=""exp-image"">
                    <div class=""question-area"">
                        <p style=""font-size: 20px; font-weight: bold; margin: 0;"">Is there a person in this image?</p>
                    </div>
                </div>","0","main_experiment_trial","6","hotel_scheme","schematic_sequence","","","","",""
"","","","","","html-keyboard-response","113","418202","0.0-113.0","BAE1E65B97734A5FB961DC843F50677C","019cf4d7-3511-79bb-81d7-098a844a2be3","019cf4c8-1de8-79ec-b3bd-d98520647593","","null","
                <div class=""stimulus-container"">
                    <img src=""images/schematic_sequence/hotel_scheme/hotel_scheme_7.png"" class=""exp-image"">
                    <div class=""question-area""></div> 
                </div>","null","","","","","","","","",""
"","","","","","html-button-response","114","419036","0.0-114.0","BAE1E65B97734A5FB961DC843F50677C","019cf4d7-3511-79bb-81d7-098a844a2be3","019cf4c8-1de8-79ec-b3bd-d98520647593","","833","
                <div class=""stimulus-container"">
                    <img src=""images/schematic_sequence/hotel_scheme/hotel_scheme_7.png"" class=""exp-image"">
                    <div class=""question-area"">
                        <p style=""font-size: 20px; font-weight: bold; margin: 0;"">Is there a person in this image?</p>
                    </div>
                </div>","0","main_experiment_trial","7","hotel_scheme","schematic_sequence","","","","",""
"","","","","","html-keyboard-response","115","424038","0.0-115.0","BAE1E65B97734A5FB961DC843F50677C","019cf4d7-3511-79bb-81d7-098a844a2be3","019cf4c8-1de8-79ec-b3bd-d98520647593","","null","
                <div class=""stimulus-container"">
                    <img src=""images/schematic_sequence/hotel_scheme/hotel_scheme_8.png"" class=""exp-image"">
                    <div class=""question-area""></div> 
                </div>","null","","","","","","","","",""
"","","","","","html-button-response","116","424983","0.0-116.0","BAE1E65B97734A5FB961DC843F50677C","019cf4d7-3511-79bb-81d7-098a844a2be3","019cf4c8-1de8-79ec-b3bd-d98520647593","","944","
                <div class=""stimulus-container"">
                    <img src=""images/schematic_sequence/hotel_scheme/hotel_scheme_8.png"" class=""exp-image"">
                    <div class=""question-area"">
                        <p style=""font-size: 20px; font-weight: bold; margin: 0;"">Is there a person in this image?</p>
                    </div>
                </div>","0","main_experiment_trial","8","hotel_scheme","schematic_sequence","","","","",""
"","","","","","html-keyboard-response","117","429985","0.0-117.0","BAE1E65B97734A5FB961DC843F50677C","019cf4d7-3511-79bb-81d7-098a844a2be3","019cf4c8-1de8-79ec-b3bd-d98520647593","","null","
                <div class=""stimulus-container"">
                    <img src=""images/schematic_sequence/hotel_scheme/hotel_scheme_9.png"" class=""exp-image"">
                    <div class=""question-area""></div> 
                </div>","null","","","","","","","","",""
"","","","","","html-button-response","118","430926","0.0-118.0","BAE1E65B97734A5FB961DC843F50677C","019cf4d7-3511-79bb-81d7-098a844a2be3","019cf4c8-1de8-79ec-b3bd-d98520647593","","940","
                <div class=""stimulus-container"">
                    <img src=""images/schematic_sequence/hotel_scheme/hotel_scheme_9.png"" class=""exp-image"">
                    <div class=""question-area"">
                        <p style=""font-size: 20px; font-weight: bold; margin: 0;"">Is there a person in this image?</p>
                    </div>
                </div>","0","main_experiment_trial","9","hotel_scheme","schematic_sequence","","","","",""
"","","","","","html-keyboard-response","119","435929","0.0-119.0","BAE1E65B97734A5FB961DC843F50677C","019cf4d7-3511-79bb-81d7-098a844a2be3","019cf4c8-1de8-79ec-b3bd-d98520647593","","null","
                <div class=""stimulus-container"">
                    <img src=""images/schematic_sequence/hotel_scheme/hotel_scheme_ten.png"" class=""exp-image"">
                    <div class=""question-area""></div> 
                </div>","null","","","","","","","","",""
"","","","","","html-button-response","120","437192","0.0-120.0","BAE1E65B97734A5FB961DC843F50677C","019cf4d7-3511-79bb-81d7-098a844a2be3","019cf4c8-1de8-79ec-b3bd-d98520647593","","1262","
                <div class=""stimulus-container"">
                    <img src=""images/schematic_sequence/hotel_scheme/hotel_scheme_ten.png"" class=""exp-image"">
                    <div class=""question-area"">
                        <p style=""font-size: 20px; font-weight: bold; margin: 0;"">Is there a person in this image?</p>
                    </div>
                </div>","0","main_experiment_trial","ten","hotel_scheme","schematic_sequence","","","","",""
"","","","","","html-keyboard-response","121","438194","0.0-121.0","BAE1E65B97734A5FB961DC843F50677C","019cf4d7-3511-79bb-81d7-098a844a2be3","019cf4c8-1de8-79ec-b3bd-d98520647593","","null","<div style=""background-color: white; width: 100vw; height: 100vh;""></div>","null","","","","","","","","",""
"","","","","","html-keyboard-response","122","443197","0.0-122.0","BAE1E65B97734A5FB961DC843F50677C","019cf4d7-3511-79bb-81d7-098a844a2be3","019cf4c8-1de8-79ec-b3bd-d98520647593","","null","
                <div class=""stimulus-container"">
                    <img src=""images/causal_sequence/saving_a_cat_causal/saving_a_cat_causal_1.png"" class=""exp-image"">
                    <div class=""question-area""></div> 
                </div>","null","","","","","","","","",""
"","","","","","html-button-response","123","444473","0.0-123.0","BAE1E65B97734A5FB961DC843F50677C","019cf4d7-3511-79bb-81d7-098a844a2be3","019cf4c8-1de8-79ec-b3bd-d98520647593","","1275","
                <div class=""stimulus-container"">
                    <img src=""images/causal_sequence/saving_a_cat_causal/saving_a_cat_causal_1.png"" class=""exp-image"">
                    <div class=""question-area"">
                        <p style=""font-size: 20px; font-weight: bold; margin: 0;"">Is there a person in this image?</p>
                    </div>
                </div>","0","main_experiment_trial","1","saving_a_cat_causal","causal_sequence","","","","",""
"","","","","","html-keyboard-response","124","449475","0.0-124.0","BAE1E65B97734A5FB961DC843F50677C","019cf4d7-3511-79bb-81d7-098a844a2be3","019cf4c8-1de8-79ec-b3bd-d98520647593","","null","
                <div class=""stimulus-container"">
                    <img src=""images/causal_sequence/saving_a_cat_causal/saving_a_cat_causal_2.png"" class=""exp-image"">
                    <div class=""question-area""></div> 
                </div>","null","","","","","","","","",""
"","","","","","html-button-response","125","450643","0.0-125.0","BAE1E65B97734A5FB961DC843F50677C","019cf4d7-3511-79bb-81d7-098a844a2be3","019cf4c8-1de8-79ec-b3bd-d98520647593","","1167","
                <div class=""stimulus-container"">
                    <img src=""images/causal_sequence/saving_a_cat_causal/saving_a_cat_causal_2.png"" class=""exp-image"">
                    <div class=""question-area"">
                        <p style=""font-size: 20px; font-weight: bold; margin: 0;"">Is there a person in this image?</p>
                    </div>
                </div>","1","main_experiment_trial","2","saving_a_cat_causal","causal_sequence","","","","",""
"","","","","","html-keyboard-response","126","455646","0.0-126.0","BAE1E65B97734A5FB961DC843F50677C","019cf4d7-3511-79bb-81d7-098a844a2be3","019cf4c8-1de8-79ec-b3bd-d98520647593","","null","
                <div class=""stimulus-container"">
                    <img src=""images/causal_sequence/saving_a_cat_causal/saving_a_cat_causal_3.png"" class=""exp-image"">
                    <div class=""question-area""></div> 
                </div>","null","","","","","","","","",""
"","","","","","html-button-response","127","456523","0.0-127.0","BAE1E65B97734A5FB961DC843F50677C","019cf4d7-3511-79bb-81d7-098a844a2be3","019cf4c8-1de8-79ec-b3bd-d98520647593","","876","
                <div class=""stimulus-container"">
                    <img src=""images/causal_sequence/saving_a_cat_causal/saving_a_cat_causal_3.png"" class=""exp-image"">
                    <div class=""question-area"">
                        <p style=""font-size: 20px; font-weight: bold; margin: 0;"">Is there a person in this image?</p>
                    </div>
                </div>","1","main_experiment_trial","3","saving_a_cat_causal","causal_sequence","","","","",""
"","","","","","html-keyboard-response","128","461524","0.0-128.0","BAE1E65B97734A5FB961DC843F50677C","019cf4d7-3511-79bb-81d7-098a844a2be3","019cf4c8-1de8-79ec-b3bd-d98520647593","","null","
                <div class=""stimulus-container"">
                    <img src=""images/causal_sequence/saving_a_cat_causal/saving_a_cat_causal_4.png"" class=""exp-image"">
                    <div class=""question-area""></div> 
                </div>","null","","","","","","","","",""
"","","","","","html-button-response","129","462264","0.0-129.0","BAE1E65B97734A5FB961DC843F50677C","019cf4d7-3511-79bb-81d7-098a844a2be3","019cf4c8-1de8-79ec-b3bd-d98520647593","","739","
                <div class=""stimulus-container"">
                    <img src=""images/causal_sequence/saving_a_cat_causal/saving_a_cat_causal_4.png"" class=""exp-image"">
                    <div class=""question-area"">
                        <p style=""font-size: 20px; font-weight: bold; margin: 0;"">Is there a person in this image?</p>
                    </div>
                </div>","0","main_experiment_trial","4","saving_a_cat_causal","causal_sequence","","","","",""
"","","","","","html-keyboard-response","130","467267","0.0-130.0","BAE1E65B97734A5FB961DC843F50677C","019cf4d7-3511-79bb-81d7-098a844a2be3","019cf4c8-1de8-79ec-b3bd-d98520647593","","null","
                <div class=""stimulus-container"">
                    <img src=""images/causal_sequence/saving_a_cat_causal/saving_a_cat_causal_5.png"" class=""exp-image"">
                    <div class=""question-area""></div> 
                </div>","null","","","","","","","","",""
"","","","","","html-button-response","131","468394","0.0-131.0","BAE1E65B97734A5FB961DC843F50677C","019cf4d7-3511-79bb-81d7-098a844a2be3","019cf4c8-1de8-79ec-b3bd-d98520647593","","1126","
                <div class=""stimulus-container"">
                    <img src=""images/causal_sequence/saving_a_cat_causal/saving_a_cat_causal_5.png"" class=""exp-image"">
                    <div class=""question-area"">
                        <p style=""font-size: 20px; font-weight: bold; margin: 0;"">Is there a person in this image?</p>
                    </div>
                </div>","0","main_experiment_trial","5","saving_a_cat_causal","causal_sequence","","","","",""
"","","","","","html-keyboard-response","132","473396","0.0-132.0","BAE1E65B97734A5FB961DC843F50677C","019cf4d7-3511-79bb-81d7-098a844a2be3","019cf4c8-1de8-79ec-b3bd-d98520647593","","null","
                <div class=""stimulus-container"">
                    <img src=""images/causal_sequence/saving_a_cat_causal/saving_a_cat_causal_6.png"" class=""exp-image"">
                    <div class=""question-area""></div> 
                </div>","null","","","","","","","","",""
"","","","","","html-button-response","133","474316","0.0-133.0","BAE1E65B97734A5FB961DC843F50677C","019cf4d7-3511-79bb-81d7-098a844a2be3","019cf4c8-1de8-79ec-b3bd-d98520647593","","920","
                <div class=""stimulus-container"">
                    <img src=""images/causal_sequence/saving_a_cat_causal/saving_a_cat_causal_6.png"" class=""exp-image"">
                    <div class=""question-area"">
                        <p style=""font-size: 20px; font-weight: bold; margin: 0;"">Is there a person in this image?</p>
                    </div>
                </div>","0","main_experiment_trial","6","saving_a_cat_causal","causal_sequence","","","","",""
"","","","","","html-keyboard-response","134","479319","0.0-134.0","BAE1E65B97734A5FB961DC843F50677C","019cf4d7-3511-79bb-81d7-098a844a2be3","019cf4c8-1de8-79ec-b3bd-d98520647593","","null","
                <div class=""stimulus-container"">
                    <img src=""images/causal_sequence/saving_a_cat_causal/saving_a_cat_causal_7.png"" class=""exp-image"">
                    <div class=""question-area""></div> 
                </div>","null","","","","","","","","",""
"","","","","","html-button-response","135","480402","0.0-135.0","BAE1E65B97734A5FB961DC843F50677C","019cf4d7-3511-79bb-81d7-098a844a2be3","019cf4c8-1de8-79ec-b3bd-d98520647593","","1082","
                <div class=""stimulus-container"">
                    <img src=""images/causal_sequence/saving_a_cat_causal/saving_a_cat_causal_7.png"" class=""exp-image"">
                    <div class=""question-area"">
                        <p style=""font-size: 20px; font-weight: bold; margin: 0;"">Is there a person in this image?</p>
                    </div>
                </div>","0","main_experiment_trial","7","saving_a_cat_causal","causal_sequence","","","","",""
"","","","","","html-keyboard-response","136","485403","0.0-136.0","BAE1E65B97734A5FB961DC843F50677C","019cf4d7-3511-79bb-81d7-098a844a2be3","019cf4c8-1de8-79ec-b3bd-d98520647593","","null","
                <div class=""stimulus-container"">
                    <img src=""images/causal_sequence/saving_a_cat_causal/saving_a_cat_causal_8.png"" class=""exp-image"">
                    <div class=""question-area""></div> 
                </div>","null","","","","","","","","",""
"","","","","","html-button-response","137","486560","0.0-137.0","BAE1E65B97734A5FB961DC843F50677C","019cf4d7-3511-79bb-81d7-098a844a2be3","019cf4c8-1de8-79ec-b3bd-d98520647593","","1156","
                <div class=""stimulus-container"">
                    <img src=""images/causal_sequence/saving_a_cat_causal/saving_a_cat_causal_8.png"" class=""exp-image"">
                    <div class=""question-area"">
                        <p style=""font-size: 20px; font-weight: bold; margin: 0;"">Is there a person in this image?</p>
                    </div>
                </div>","0","main_experiment_trial","8","saving_a_cat_causal","causal_sequence","","","","",""
"","","","","","html-keyboard-response","138","491563","0.0-138.0","BAE1E65B97734A5FB961DC843F50677C","019cf4d7-3511-79bb-81d7-098a844a2be3","019cf4c8-1de8-79ec-b3bd-d98520647593","","null","
                <div class=""stimulus-container"">
                    <img src=""images/causal_sequence/saving_a_cat_causal/saving_a_cat_causal_9.png"" class=""exp-image"">
                    <div class=""question-area""></div> 
                </div>","null","","","","","","","","",""
"","","","","","html-button-response","139","492999","0.0-139.0","BAE1E65B97734A5FB961DC843F50677C","019cf4d7-3511-79bb-81d7-098a844a2be3","019cf4c8-1de8-79ec-b3bd-d98520647593","","1434","
                <div class=""stimulus-container"">
                    <img src=""images/causal_sequence/saving_a_cat_causal/saving_a_cat_causal_9.png"" class=""exp-image"">
                    <div class=""question-area"">
                        <p style=""font-size: 20px; font-weight: bold; margin: 0;"">Is there a person in this image?</p>
                    </div>
                </div>","0","main_experiment_trial","9","saving_a_cat_causal","causal_sequence","","","","",""
"","","","","","html-keyboard-response","140","498000","0.0-140.0","BAE1E65B97734A5FB961DC843F50677C","019cf4d7-3511-79bb-81d7-098a844a2be3","019cf4c8-1de8-79ec-b3bd-d98520647593","","null","
                <div class=""stimulus-container"">
                    <img src=""images/causal_sequence/saving_a_cat_causal/saving_a_cat_causal_ten.png"" class=""exp-image"">
                    <div class=""question-area""></div> 
                </div>","null","","","","","","","","",""
"","","","","","html-button-response","141","498935","0.0-141.0","BAE1E65B97734A5FB961DC843F50677C","019cf4d7-3511-79bb-81d7-098a844a2be3","019cf4c8-1de8-79ec-b3bd-d98520647593","","933","
                <div class=""stimulus-container"">
                    <img src=""images/causal_sequence/saving_a_cat_causal/saving_a_cat_causal_ten.png"" class=""exp-image"">
                    <div class=""question-area"">
                        <p style=""font-size: 20px; font-weight: bold; margin: 0;"">Is there a person in this image?</p>
                    </div>
                </div>","0","main_experiment_trial","ten","saving_a_cat_causal","causal_sequence","","","","",""
"","","","","","html-keyboard-response","142","499936","0.0-142.0","BAE1E65B97734A5FB961DC843F50677C","019cf4d7-3511-79bb-81d7-098a844a2be3","019cf4c8-1de8-79ec-b3bd-d98520647593","","null","<div style=""background-color: white; width: 100vw; height: 100vh;""></div>","null","","","","","","","","",""
"","","","","","html-keyboard-response","143","504938","0.0-143.0","BAE1E65B97734A5FB961DC843F50677C","019cf4d7-3511-79bb-81d7-098a844a2be3","019cf4c8-1de8-79ec-b3bd-d98520647593","","null","
                <div class=""stimulus-container"">
                    <img src=""images/schematic_sequence/flight_scheme/flight_scheme_1.png"" class=""exp-image"">
                    <div class=""question-area""></div> 
                </div>","null","","","","","","","","",""
"","","","","","html-button-response","144","505936","0.0-144.0","BAE1E65B97734A5FB961DC843F50677C","019cf4d7-3511-79bb-81d7-098a844a2be3","019cf4c8-1de8-79ec-b3bd-d98520647593","","998","
                <div class=""stimulus-container"">
                    <img src=""images/schematic_sequence/flight_scheme/flight_scheme_1.png"" class=""exp-image"">
                    <div class=""question-area"">
                        <p style=""font-size: 20px; font-weight: bold; margin: 0;"">Is there a person in this image?</p>
                    </div>
                </div>","0","main_experiment_trial","1","flight_scheme","schematic_sequence","","","","",""
"","","","","","html-keyboard-response","145","510938","0.0-145.0","BAE1E65B97734A5FB961DC843F50677C","019cf4d7-3511-79bb-81d7-098a844a2be3","019cf4c8-1de8-79ec-b3bd-d98520647593","","null","
                <div class=""stimulus-container"">
                    <img src=""images/schematic_sequence/flight_scheme/flight_scheme_2.png"" class=""exp-image"">
                    <div class=""question-area""></div> 
                </div>","null","","","","","","","","",""
"","","","","","html-button-response","146","511737","0.0-146.0","BAE1E65B97734A5FB961DC843F50677C","019cf4d7-3511-79bb-81d7-098a844a2be3","019cf4c8-1de8-79ec-b3bd-d98520647593","","799","
                <div class=""stimulus-container"">
                    <img src=""images/schematic_sequence/flight_scheme/flight_scheme_2.png"" class=""exp-image"">
                    <div class=""question-area"">
                        <p style=""font-size: 20px; font-weight: bold; margin: 0;"">Is there a person in this image?</p>
                    </div>
                </div>","1","main_experiment_trial","2","flight_scheme","schematic_sequence","","","","",""
"","","","","","html-keyboard-response","147","516740","0.0-147.0","BAE1E65B97734A5FB961DC843F50677C","019cf4d7-3511-79bb-81d7-098a844a2be3","019cf4c8-1de8-79ec-b3bd-d98520647593","","null","
                <div class=""stimulus-container"">
                    <img src=""images/schematic_sequence/flight_scheme/flight_scheme_3.png"" class=""exp-image"">
                    <div class=""question-area""></div> 
                </div>","null","","","","","","","","",""
"","","","","","html-button-response","148","519743","0.0-148.0","BAE1E65B97734A5FB961DC843F50677C","019cf4d7-3511-79bb-81d7-098a844a2be3","019cf4c8-1de8-79ec-b3bd-d98520647593","","null","
                <div class=""stimulus-container"">
                    <img src=""images/schematic_sequence/flight_scheme/flight_scheme_3.png"" class=""exp-image"">
                    <div class=""question-area"">
                        <p style=""font-size: 20px; font-weight: bold; margin: 0;"">Is there a person in this image?</p>
                    </div>
                </div>","null","main_experiment_trial","3","flight_scheme","schematic_sequence","","","","",""
"","","","","","html-keyboard-response","149","524745","0.0-149.0","BAE1E65B97734A5FB961DC843F50677C","019cf4d7-3511-79bb-81d7-098a844a2be3","019cf4c8-1de8-79ec-b3bd-d98520647593","","null","
                <div class=""stimulus-container"">
                    <img src=""images/schematic_sequence/flight_scheme/flight_scheme_4.png"" class=""exp-image"">
                    <div class=""question-area""></div> 
                </div>","null","","","","","","","","",""
"","","","","","html-button-response","150","527748","0.0-150.0","BAE1E65B97734A5FB961DC843F50677C","019cf4d7-3511-79bb-81d7-098a844a2be3","019cf4c8-1de8-79ec-b3bd-d98520647593","","null","
                <div class=""stimulus-container"">
                    <img src=""images/schematic_sequence/flight_scheme/flight_scheme_4.png"" class=""exp-image"">
                    <div class=""question-area"">
                        <p style=""font-size: 20px; font-weight: bold; margin: 0;"">Is there a person in this image?</p>
                    </div>
                </div>","null","main_experiment_trial","4","flight_scheme","schematic_sequence","","","","",""
"","","","","","html-keyboard-response","151","532749","0.0-151.0","BAE1E65B97734A5FB961DC843F50677C","019cf4d7-3511-79bb-81d7-098a844a2be3","019cf4c8-1de8-79ec-b3bd-d98520647593","","null","
                <div class=""stimulus-container"">
                    <img src=""images/schematic_sequence/flight_scheme/flight_scheme_5.png"" class=""exp-image"">
                    <div class=""question-area""></div> 
                </div>","null","","","","","","","","",""
"","","","","","html-button-response","152","533378","0.0-152.0","BAE1E65B97734A5FB961DC843F50677C","019cf4d7-3511-79bb-81d7-098a844a2be3","019cf4c8-1de8-79ec-b3bd-d98520647593","","628","
                <div class=""stimulus-container"">
                    <img src=""images/schematic_sequence/flight_scheme/flight_scheme_5.png"" class=""exp-image"">
                    <div class=""question-area"">
                        <p style=""font-size: 20px; font-weight: bold; margin: 0;"">Is there a person in this image?</p>
                    </div>
                </div>","0","main_experiment_trial","5","flight_scheme","schematic_sequence","","","","",""
"","","","","","html-keyboard-response","153","538380","0.0-153.0","BAE1E65B97734A5FB961DC843F50677C","019cf4d7-3511-79bb-81d7-098a844a2be3","019cf4c8-1de8-79ec-b3bd-d98520647593","","null","
                <div class=""stimulus-container"">
                    <img src=""images/schematic_sequence/flight_scheme/flight_scheme_6.png"" class=""exp-image"">
                    <div class=""question-area""></div> 
                </div>","null","","","","","","","","",""
"","","","","","html-button-response","154","539395","0.0-154.0","BAE1E65B97734A5FB961DC843F50677C","019cf4d7-3511-79bb-81d7-098a844a2be3","019cf4c8-1de8-79ec-b3bd-d98520647593","","1014","
                <div class=""stimulus-container"">
                    <img src=""images/schematic_sequence/flight_scheme/flight_scheme_6.png"" class=""exp-image"">
                    <div class=""question-area"">
                        <p style=""font-size: 20px; font-weight: bold; margin: 0;"">Is there a person in this image?</p>
                    </div>
                </div>","1","main_experiment_trial","6","flight_scheme","schematic_sequence","","","","",""
"","","","","","html-keyboard-response","155","544396","0.0-155.0","BAE1E65B97734A5FB961DC843F50677C","019cf4d7-3511-79bb-81d7-098a844a2be3","019cf4c8-1de8-79ec-b3bd-d98520647593","","null","
                <div class=""stimulus-container"">
                    <img src=""images/schematic_sequence/flight_scheme/flight_scheme_7.png"" class=""exp-image"">
                    <div class=""question-area""></div> 
                </div>","null","","","","","","","","",""
"","","","","","html-button-response","156","545309","0.0-156.0","BAE1E65B97734A5FB961DC843F50677C","019cf4d7-3511-79bb-81d7-098a844a2be3","019cf4c8-1de8-79ec-b3bd-d98520647593","","912","
                <div class=""stimulus-container"">
                    <img src=""images/schematic_sequence/flight_scheme/flight_scheme_7.png"" class=""exp-image"">
                    <div class=""question-area"">
                        <p style=""font-size: 20px; font-weight: bold; margin: 0;"">Is there a person in this image?</p>
                    </div>
                </div>","0","main_experiment_trial","7","flight_scheme","schematic_sequence","","","","",""
"","","","","","html-keyboard-response","157","550312","0.0-157.0","BAE1E65B97734A5FB961DC843F50677C","019cf4d7-3511-79bb-81d7-098a844a2be3","019cf4c8-1de8-79ec-b3bd-d98520647593","","null","
                <div class=""stimulus-container"">
                    <img src=""images/schematic_sequence/flight_scheme/flight_scheme_8.png"" class=""exp-image"">
                    <div class=""question-area""></div> 
                </div>","null","","","","","","","","",""
"","","","","","html-button-response","158","551172","0.0-158.0","BAE1E65B97734A5FB961DC843F50677C","019cf4d7-3511-79bb-81d7-098a844a2be3","019cf4c8-1de8-79ec-b3bd-d98520647593","","859","
                <div class=""stimulus-container"">
                    <img src=""images/schematic_sequence/flight_scheme/flight_scheme_8.png"" class=""exp-image"">
                    <div class=""question-area"">
                        <p style=""font-size: 20px; font-weight: bold; margin: 0;"">Is there a person in this image?</p>
                    </div>
                </div>","1","main_experiment_trial","8","flight_scheme","schematic_sequence","","","","",""
"","","","","","html-keyboard-response","159","556175","0.0-159.0","BAE1E65B97734A5FB961DC843F50677C","019cf4d7-3511-79bb-81d7-098a844a2be3","019cf4c8-1de8-79ec-b3bd-d98520647593","","null","
                <div class=""stimulus-container"">
                    <img src=""images/schematic_sequence/flight_scheme/flight_scheme_9.png"" class=""exp-image"">
                    <div class=""question-area""></div> 
                </div>","null","","","","","","","","",""
"","","","","","html-button-response","160","556726","0.0-160.0","BAE1E65B97734A5FB961DC843F50677C","019cf4d7-3511-79bb-81d7-098a844a2be3","019cf4c8-1de8-79ec-b3bd-d98520647593","","551","
                <div class=""stimulus-container"">
                    <img src=""images/schematic_sequence/flight_scheme/flight_scheme_9.png"" class=""exp-image"">
                    <div class=""question-area"">
                        <p style=""font-size: 20px; font-weight: bold; margin: 0;"">Is there a person in this image?</p>
                    </div>
                </div>","0","main_experiment_trial","9","flight_scheme","schematic_sequence","","","","",""
"","","","","","html-keyboard-response","161","561727","0.0-161.0","BAE1E65B97734A5FB961DC843F50677C","019cf4d7-3511-79bb-81d7-098a844a2be3","019cf4c8-1de8-79ec-b3bd-d98520647593","","null","
                <div class=""stimulus-container"">
                    <img src=""images/schematic_sequence/flight_scheme/flight_scheme_ten.png"" class=""exp-image"">
                    <div class=""question-area""></div> 
                </div>","null","","","","","","","","",""
"","","","","","html-button-response","162","563037","0.0-162.0","BAE1E65B97734A5FB961DC843F50677C","019cf4d7-3511-79bb-81d7-098a844a2be3","019cf4c8-1de8-79ec-b3bd-d98520647593","","1309","
                <div class=""stimulus-container"">
                    <img src=""images/schematic_sequence/flight_scheme/flight_scheme_ten.png"" class=""exp-image"">
                    <div class=""question-area"">
                        <p style=""font-size: 20px; font-weight: bold; margin: 0;"">Is there a person in this image?</p>
                    </div>
                </div>","0","main_experiment_trial","ten","flight_scheme","schematic_sequence","","","","",""
"","","","","","html-keyboard-response","163","564039","0.0-163.0","BAE1E65B97734A5FB961DC843F50677C","019cf4d7-3511-79bb-81d7-098a844a2be3","019cf4c8-1de8-79ec-b3bd-d98520647593","","null","<div style=""background-color: white; width: 100vw; height: 100vh;""></div>","null","","","","","","","","",""
"","","","","","html-keyboard-response","164","569042","0.0-164.0","BAE1E65B97734A5FB961DC843F50677C","019cf4d7-3511-79bb-81d7-098a844a2be3","019cf4c8-1de8-79ec-b3bd-d98520647593","","null","
                <div class=""stimulus-container"">
                    <img src=""images/causal_sequence/dog_causal/dog_causal_1.png"" class=""exp-image"">
                    <div class=""question-area""></div> 
                </div>","null","","","","","","","","",""
"","","","","","html-button-response","165","570035","0.0-165.0","BAE1E65B97734A5FB961DC843F50677C","019cf4d7-3511-79bb-81d7-098a844a2be3","019cf4c8-1de8-79ec-b3bd-d98520647593","","993","
                <div class=""stimulus-container"">
                    <img src=""images/causal_sequence/dog_causal/dog_causal_1.png"" class=""exp-image"">
                    <div class=""question-area"">
                        <p style=""font-size: 20px; font-weight: bold; margin: 0;"">Is there a person in this image?</p>
                    </div>
                </div>","0","main_experiment_trial","1","dog_causal","causal_sequence","","","","",""
"","","","","","html-keyboard-response","166","575037","0.0-166.0","BAE1E65B97734A5FB961DC843F50677C","019cf4d7-3511-79bb-81d7-098a844a2be3","019cf4c8-1de8-79ec-b3bd-d98520647593","","null","
                <div class=""stimulus-container"">
                    <img src=""images/causal_sequence/dog_causal/dog_causal_2.png"" class=""exp-image"">
                    <div class=""question-area""></div> 
                </div>","null","","","","","","","","",""
"","","","","","html-button-response","167","575823","0.0-167.0","BAE1E65B97734A5FB961DC843F50677C","019cf4d7-3511-79bb-81d7-098a844a2be3","019cf4c8-1de8-79ec-b3bd-d98520647593","","785","
                <div class=""stimulus-container"">
                    <img src=""images/causal_sequence/dog_causal/dog_causal_2.png"" class=""exp-image"">
                    <div class=""question-area"">
                        <p style=""font-size: 20px; font-weight: bold; margin: 0;"">Is there a person in this image?</p>
                    </div>
                </div>","0","main_experiment_trial","2","dog_causal","causal_sequence","","","","",""
"","","","","","html-keyboard-response","168","580825","0.0-168.0","BAE1E65B97734A5FB961DC843F50677C","019cf4d7-3511-79bb-81d7-098a844a2be3","019cf4c8-1de8-79ec-b3bd-d98520647593","","null","
                <div class=""stimulus-container"">
                    <img src=""images/causal_sequence/dog_causal/dog_causal_3.png"" class=""exp-image"">
                    <div class=""question-area""></div> 
                </div>","null","","","","","","","","",""
"","","","","","html-button-response","169","582077","0.0-169.0","BAE1E65B97734A5FB961DC843F50677C","019cf4d7-3511-79bb-81d7-098a844a2be3","019cf4c8-1de8-79ec-b3bd-d98520647593","","1251","
                <div class=""stimulus-container"">
                    <img src=""images/causal_sequence/dog_causal/dog_causal_3.png"" class=""exp-image"">
                    <div class=""question-area"">
                        <p style=""font-size: 20px; font-weight: bold; margin: 0;"">Is there a person in this image?</p>
                    </div>
                </div>","0","main_experiment_trial","3","dog_causal","causal_sequence","","","","",""
"","","","","","html-keyboard-response","170","587079","0.0-170.0","BAE1E65B97734A5FB961DC843F50677C","019cf4d7-3511-79bb-81d7-098a844a2be3","019cf4c8-1de8-79ec-b3bd-d98520647593","","null","
                <div class=""stimulus-container"">
                    <img src=""images/causal_sequence/dog_causal/dog_causal_4.png"" class=""exp-image"">
                    <div class=""question-area""></div> 
                </div>","null","","","","","","","","",""
"","","","","","html-button-response","171","587531","0.0-171.0","BAE1E65B97734A5FB961DC843F50677C","019cf4d7-3511-79bb-81d7-098a844a2be3","019cf4c8-1de8-79ec-b3bd-d98520647593","","451","
                <div class=""stimulus-container"">
                    <img src=""images/causal_sequence/dog_causal/dog_causal_4.png"" class=""exp-image"">
                    <div class=""question-area"">
                        <p style=""font-size: 20px; font-weight: bold; margin: 0;"">Is there a person in this image?</p>
                    </div>
                </div>","0","main_experiment_trial","4","dog_causal","causal_sequence","","","","",""
"","","","","","html-keyboard-response","172","592533","0.0-172.0","BAE1E65B97734A5FB961DC843F50677C","019cf4d7-3511-79bb-81d7-098a844a2be3","019cf4c8-1de8-79ec-b3bd-d98520647593","","null","
                <div class=""stimulus-container"">
                    <img src=""images/causal_sequence/dog_causal/dog_causal_5.png"" class=""exp-image"">
                    <div class=""question-area""></div> 
                </div>","null","","","","","","","","",""
"","","","","","html-button-response","173","592946","0.0-173.0","BAE1E65B97734A5FB961DC843F50677C","019cf4d7-3511-79bb-81d7-098a844a2be3","019cf4c8-1de8-79ec-b3bd-d98520647593","","412","
                <div class=""stimulus-container"">
                    <img src=""images/causal_sequence/dog_causal/dog_causal_5.png"" class=""exp-image"">
                    <div class=""question-area"">
                        <p style=""font-size: 20px; font-weight: bold; margin: 0;"">Is there a person in this image?</p>
                    </div>
                </div>","0","main_experiment_trial","5","dog_causal","causal_sequence","","","","",""
"","","","","","html-keyboard-response","174","597948","0.0-174.0","BAE1E65B97734A5FB961DC843F50677C","019cf4d7-3511-79bb-81d7-098a844a2be3","019cf4c8-1de8-79ec-b3bd-d98520647593","","null","
                <div class=""stimulus-container"">
                    <img src=""images/causal_sequence/dog_causal/dog_causal_6.png"" class=""exp-image"">
                    <div class=""question-area""></div> 
                </div>","null","","","","","","","","",""
"","","","","","html-button-response","175","599149","0.0-175.0","BAE1E65B97734A5FB961DC843F50677C","019cf4d7-3511-79bb-81d7-098a844a2be3","019cf4c8-1de8-79ec-b3bd-d98520647593","","1201","
                <div class=""stimulus-container"">
                    <img src=""images/causal_sequence/dog_causal/dog_causal_6.png"" class=""exp-image"">
                    <div class=""question-area"">
                        <p style=""font-size: 20px; font-weight: bold; margin: 0;"">Is there a person in this image?</p>
                    </div>
                </div>","0","main_experiment_trial","6","dog_causal","causal_sequence","","","","",""
"","","","","","html-keyboard-response","176","604152","0.0-176.0","BAE1E65B97734A5FB961DC843F50677C","019cf4d7-3511-79bb-81d7-098a844a2be3","019cf4c8-1de8-79ec-b3bd-d98520647593","","null","
                <div class=""stimulus-container"">
                    <img src=""images/causal_sequence/dog_causal/dog_causal_7.png"" class=""exp-image"">
                    <div class=""question-area""></div> 
                </div>","null","","","","","","","","",""
"","","","","","html-button-response","177","607155","0.0-177.0","BAE1E65B97734A5FB961DC843F50677C","019cf4d7-3511-79bb-81d7-098a844a2be3","019cf4c8-1de8-79ec-b3bd-d98520647593","","null","
                <div class=""stimulus-container"">
                    <img src=""images/causal_sequence/dog_causal/dog_causal_7.png"" class=""exp-image"">
                    <div class=""question-area"">
                        <p style=""font-size: 20px; font-weight: bold; margin: 0;"">Is there a person in this image?</p>
                    </div>
                </div>","null","main_experiment_trial","7","dog_causal","causal_sequence","","","","",""
"","","","","","html-keyboard-response","178","612157","0.0-178.0","BAE1E65B97734A5FB961DC843F50677C","019cf4d7-3511-79bb-81d7-098a844a2be3","019cf4c8-1de8-79ec-b3bd-d98520647593","","null","
                <div class=""stimulus-container"">
                    <img src=""images/causal_sequence/dog_causal/dog_causal_8.png"" class=""exp-image"">
                    <div class=""question-area""></div> 
                </div>","null","","","","","","","","",""
"","","","","","html-button-response","179","614677","0.0-179.0","BAE1E65B97734A5FB961DC843F50677C","019cf4d7-3511-79bb-81d7-098a844a2be3","019cf4c8-1de8-79ec-b3bd-d98520647593","","2519","
                <div class=""stimulus-container"">
                    <img src=""images/causal_sequence/dog_causal/dog_causal_8.png"" class=""exp-image"">
                    <div class=""question-area"">
                        <p style=""font-size: 20px; font-weight: bold; margin: 0;"">Is there a person in this image?</p>
                    </div>
                </div>","0","main_experiment_trial","8","dog_causal","causal_sequence","","","","",""
"","","","","","html-keyboard-response","180","619679","0.0-180.0","BAE1E65B97734A5FB961DC843F50677C","019cf4d7-3511-79bb-81d7-098a844a2be3","019cf4c8-1de8-79ec-b3bd-d98520647593","","null","
                <div class=""stimulus-container"">
                    <img src=""images/causal_sequence/dog_causal/dog_causal_9.png"" class=""exp-image"">
                    <div class=""question-area""></div> 
                </div>","null","","","","","","","","",""
"","","","","","html-button-response","181","621127","0.0-181.0","BAE1E65B97734A5FB961DC843F50677C","019cf4d7-3511-79bb-81d7-098a844a2be3","019cf4c8-1de8-79ec-b3bd-d98520647593","","1447","
                <div class=""stimulus-container"">
                    <img src=""images/causal_sequence/dog_causal/dog_causal_9.png"" class=""exp-image"">
                    <div class=""question-area"">
                        <p style=""font-size: 20px; font-weight: bold; margin: 0;"">Is there a person in this image?</p>
                    </div>
                </div>","0","main_experiment_trial","9","dog_causal","causal_sequence","","","","",""
"","","","","","html-keyboard-response","182","626130","0.0-182.0","BAE1E65B97734A5FB961DC843F50677C","019cf4d7-3511-79bb-81d7-098a844a2be3","019cf4c8-1de8-79ec-b3bd-d98520647593","","null","
                <div class=""stimulus-container"">
                    <img src=""images/causal_sequence/dog_causal/dog_causal_ten.png"" class=""exp-image"">
                    <div class=""question-area""></div> 
                </div>","null","","","","","","","","",""
"","","","","","html-button-response","183","627224","0.0-183.0","BAE1E65B97734A5FB961DC843F50677C","019cf4d7-3511-79bb-81d7-098a844a2be3","019cf4c8-1de8-79ec-b3bd-d98520647593","","1093","
                <div class=""stimulus-container"">
                    <img src=""images/causal_sequence/dog_causal/dog_causal_ten.png"" class=""exp-image"">
