"success","timeout","failed_images","failed_audio","failed_video","trial_type","trial_index","time_elapsed","internal_node_id","subject_id","study_id","session_id","view_history","rt","stimulus","response","task","image_index","folder","sequence_type","presentation_order","valuable_image_index","reward_type","distance_from_x","target_X","chosen_image_index","is_x_plus_dist","correct_choice"
"true","false","[]","[]","[]","preload","0","12341","0.0-0.0","B2B3D8E4DFD14AA997DA4526F6779F8A","019cfa5d-0386-7ee1-91c6-37b3271461a8","019cfa3a-388e-72ab-ad58-bdeb258f96cd","","","","","","","","","","","","","","","",""
"","","","","","instructions","1","16894","0.0-1.0","B2B3D8E4DFD14AA997DA4526F6779F8A","019cfa5d-0386-7ee1-91c6-37b3271461a8","019cfa3a-388e-72ab-ad58-bdeb258f96cd","[{""page_index"":0,""viewing_time"":4551}]","4552","","","","","","","","","","","","","",""
"","","","","","instructions","2","62077","0.0-2.0","B2B3D8E4DFD14AA997DA4526F6779F8A","019cfa5d-0386-7ee1-91c6-37b3271461a8","019cfa3a-388e-72ab-ad58-bdeb258f96cd","[{""page_index"":0,""viewing_time"":45180}]","45181","","","","","","","","","","","","","",""
"true","","","","","fullscreen","3","66169","0.0-3.0","B2B3D8E4DFD14AA997DA4526F6779F8A","019cfa5d-0386-7ee1-91c6-37b3271461a8","019cfa3a-388e-72ab-ad58-bdeb258f96cd","","3078","","","","","","","","","","","","","",""
"","","","","","instructions","4","88361","0.0-4.0","B2B3D8E4DFD14AA997DA4526F6779F8A","019cfa5d-0386-7ee1-91c6-37b3271461a8","019cfa3a-388e-72ab-ad58-bdeb258f96cd","[{""page_index"":0,""viewing_time"":22189}]","22190","","","","","","","","","","","","","",""
"","","","","","instructions","5","106881","0.0-5.0","B2B3D8E4DFD14AA997DA4526F6779F8A","019cfa5d-0386-7ee1-91c6-37b3271461a8","019cfa3a-388e-72ab-ad58-bdeb258f96cd","[{""page_index"":0,""viewing_time"":18518}]","18519","","","","","","","","","","","","","",""
"","","","","","html-keyboard-response","6","110896","0.0-6.0","B2B3D8E4DFD14AA997DA4526F6779F8A","019cfa5d-0386-7ee1-91c6-37b3271461a8","019cfa3a-388e-72ab-ad58-bdeb258f96cd","","null","
                <div class=""stimulus-container"">
                    <img src=""images/instructions/movie_1.png"" class=""exp-image"">
                    <div class=""question-area""></div> 
                </div>","null","","","","","","","","","","","",""
"","","","","","html-button-response","7","113710","0.0-7.0","B2B3D8E4DFD14AA997DA4526F6779F8A","019cfa5d-0386-7ee1-91c6-37b3271461a8","019cfa3a-388e-72ab-ad58-bdeb258f96cd","","2813","
                <div class=""stimulus-container"">
                    <img src=""images/instructions/movie_1.png"" class=""exp-image"">
                    <div class=""question-area"">
                        <p style=""font-size: 20px; font-weight: bold; margin: 0;"">Was there a person in this image?</p>
                    </div>
                </div>","0","example_question","1","","","","","","","","","",""
"","","","","","html-keyboard-response","8","117725","0.0-8.0","B2B3D8E4DFD14AA997DA4526F6779F8A","019cfa5d-0386-7ee1-91c6-37b3271461a8","019cfa3a-388e-72ab-ad58-bdeb258f96cd","","null","
                <div class=""stimulus-container"">
                    <img src=""images/instructions/movie_2.png"" class=""exp-image"">
                    <div class=""question-area""></div> 
                </div>","null","","","","","","","","","","","",""
"","","","","","html-button-response","9","119257","0.0-9.0","B2B3D8E4DFD14AA997DA4526F6779F8A","019cfa5d-0386-7ee1-91c6-37b3271461a8","019cfa3a-388e-72ab-ad58-bdeb258f96cd","","1529","
                <div class=""stimulus-container"">
                    <img src=""images/instructions/movie_2.png"" class=""exp-image"">
                    <div class=""question-area"">
                        <p style=""font-size: 20px; font-weight: bold; margin: 0;"">Was there a person in this image?</p>
                    </div>
                </div>","0","example_question","2","","","","","","","","","",""
"","","","","","html-keyboard-response","10","123273","0.0-10.0","B2B3D8E4DFD14AA997DA4526F6779F8A","019cfa5d-0386-7ee1-91c6-37b3271461a8","019cfa3a-388e-72ab-ad58-bdeb258f96cd","","null","
                <div class=""stimulus-container"">
                    <img src=""images/instructions/movie_3.png"" class=""exp-image"">
                    <div class=""question-area""></div> 
                </div>","null","","","","","","","","","","","",""
"","","","","","html-button-response","11","125016","0.0-11.0","B2B3D8E4DFD14AA997DA4526F6779F8A","019cfa5d-0386-7ee1-91c6-37b3271461a8","019cfa3a-388e-72ab-ad58-bdeb258f96cd","","1741","
                <div class=""stimulus-container"">
                    <img src=""images/instructions/movie_3.png"" class=""exp-image"">
                    <div class=""question-area"">
                        <p style=""font-size: 20px; font-weight: bold; margin: 0;"">Was there a person in this image?</p>
                    </div>
                </div>","0","example_question","3","","","","","","","","","",""
"","","","","","html-keyboard-response","12","129031","0.0-12.0","B2B3D8E4DFD14AA997DA4526F6779F8A","019cfa5d-0386-7ee1-91c6-37b3271461a8","019cfa3a-388e-72ab-ad58-bdeb258f96cd","","null","
                <div class=""stimulus-container"">
                    <img src=""images/instructions/movie_4.png"" class=""exp-image"">
                    <div class=""question-area""></div> 
                </div>","null","","","","","","","","","","","",""
"","","","","","html-button-response","13","132045","0.0-13.0","B2B3D8E4DFD14AA997DA4526F6779F8A","019cfa5d-0386-7ee1-91c6-37b3271461a8","019cfa3a-388e-72ab-ad58-bdeb258f96cd","","null","
                <div class=""stimulus-container"">
                    <img src=""images/instructions/movie_4.png"" class=""exp-image"">
                    <div class=""question-area"">
                        <p style=""font-size: 20px; font-weight: bold; margin: 0;"">Was there a person in this image?</p>
                    </div>
                </div>","null","example_question","4","","","","","","","","","",""
"","","","","","instructions","14","135362","0.0-14.0","B2B3D8E4DFD14AA997DA4526F6779F8A","019cfa5d-0386-7ee1-91c6-37b3271461a8","019cfa3a-388e-72ab-ad58-bdeb258f96cd","[{""page_index"":0,""viewing_time"":3315}]","3316","","","","","","","","","","","","","",""
"","","","","","instructions","15","146419","0.0-15.0","B2B3D8E4DFD14AA997DA4526F6779F8A","019cfa5d-0386-7ee1-91c6-37b3271461a8","019cfa3a-388e-72ab-ad58-bdeb258f96cd","[{""page_index"":0,""viewing_time"":11056}]","11056","","","","","","","","","","","","","",""
"","","","","","html-keyboard-response","16","151429","0.0-16.0","B2B3D8E4DFD14AA997DA4526F6779F8A","019cfa5d-0386-7ee1-91c6-37b3271461a8","019cfa3a-388e-72ab-ad58-bdeb258f96cd","","null","<div style=""background-color: white; width: 100vw; height: 100vh;""></div>","null","","","","","","","","","","","",""
"","","","","","html-keyboard-response","17","152443","0.0-17.0","B2B3D8E4DFD14AA997DA4526F6779F8A","019cfa5d-0386-7ee1-91c6-37b3271461a8","019cfa3a-388e-72ab-ad58-bdeb258f96cd","","null","
                <div class=""stimulus-container"">
                    <img src=""images/causal_sequence/dog_causal/dog_causal_1.png"" class=""exp-image"">
                    <div class=""question-area""></div> 
                </div>","null","","","","","","","","","","","",""
"","","","","","html-button-response","18","155447","0.0-18.0","B2B3D8E4DFD14AA997DA4526F6779F8A","019cfa5d-0386-7ee1-91c6-37b3271461a8","019cfa3a-388e-72ab-ad58-bdeb258f96cd","","null","
                <div class=""stimulus-container"">
                    <img src=""images/causal_sequence/dog_causal/dog_causal_1.png"" class=""exp-image"">
                    <div class=""question-area"">
                        <p style=""font-size: 20px; font-weight: bold; margin: 0;"">Is there a person in this image?</p>
                    </div>
                </div>","null","main_experiment_trial","1","dog_causal","causal_sequence","chronological","","","","","","",""
"","","","","","html-keyboard-response","19","156463","0.0-19.0","B2B3D8E4DFD14AA997DA4526F6779F8A","019cfa5d-0386-7ee1-91c6-37b3271461a8","019cfa3a-388e-72ab-ad58-bdeb258f96cd","","null","
                <div class=""stimulus-container"">
                    <img src=""images/causal_sequence/dog_causal/dog_causal_2.png"" class=""exp-image"">
                    <div class=""question-area""></div> 
                </div>","null","","","","","","","","","","","",""
"","","","","","html-button-response","20","157939","0.0-20.0","B2B3D8E4DFD14AA997DA4526F6779F8A","019cfa5d-0386-7ee1-91c6-37b3271461a8","019cfa3a-388e-72ab-ad58-bdeb258f96cd","","1474","
                <div class=""stimulus-container"">
                    <img src=""images/causal_sequence/dog_causal/dog_causal_2.png"" class=""exp-image"">
                    <div class=""question-area"">
                        <p style=""font-size: 20px; font-weight: bold; margin: 0;"">Is there a person in this image?</p>
                    </div>
                </div>","0","main_experiment_trial","2","dog_causal","causal_sequence","chronological","","","","","","",""
"","","","","","html-keyboard-response","21","158946","0.0-21.0","B2B3D8E4DFD14AA997DA4526F6779F8A","019cfa5d-0386-7ee1-91c6-37b3271461a8","019cfa3a-388e-72ab-ad58-bdeb258f96cd","","null","
                <div class=""stimulus-container"">
                    <img src=""images/causal_sequence/dog_causal/dog_causal_3.png"" class=""exp-image"">
                    <div class=""question-area""></div> 
                </div>","null","","","","","","","","","","","",""
"","","","","","html-button-response","22","161460","0.0-22.0","B2B3D8E4DFD14AA997DA4526F6779F8A","019cfa5d-0386-7ee1-91c6-37b3271461a8","019cfa3a-388e-72ab-ad58-bdeb258f96cd","","2511","
                <div class=""stimulus-container"">
                    <img src=""images/causal_sequence/dog_causal/dog_causal_3.png"" class=""exp-image"">
                    <div class=""question-area"">
                        <p style=""font-size: 20px; font-weight: bold; margin: 0;"">Is there a person in this image?</p>
                    </div>
                </div>","0","main_experiment_trial","3","dog_causal","causal_sequence","chronological","","","","","","",""
"","","","","","html-keyboard-response","23","162461","0.0-23.0","B2B3D8E4DFD14AA997DA4526F6779F8A","019cfa5d-0386-7ee1-91c6-37b3271461a8","019cfa3a-388e-72ab-ad58-bdeb258f96cd","","null","
                <div class=""stimulus-container"">
                    <img src=""images/causal_sequence/dog_causal/dog_causal_4.png"" class=""exp-image"">
                    <div class=""question-area""></div> 
                </div>","null","","","","","","","","","","","",""
"","","","","","html-button-response","24","164246","0.0-24.0","B2B3D8E4DFD14AA997DA4526F6779F8A","019cfa5d-0386-7ee1-91c6-37b3271461a8","019cfa3a-388e-72ab-ad58-bdeb258f96cd","","1782","
                <div class=""stimulus-container"">
                    <img src=""images/causal_sequence/dog_causal/dog_causal_4.png"" class=""exp-image"">
                    <div class=""question-area"">
                        <p style=""font-size: 20px; font-weight: bold; margin: 0;"">Is there a person in this image?</p>
                    </div>
                </div>","0","main_experiment_trial","4","dog_causal","causal_sequence","chronological","","","","","","",""
"","","","","","html-keyboard-response","25","165249","0.0-25.0","B2B3D8E4DFD14AA997DA4526F6779F8A","019cfa5d-0386-7ee1-91c6-37b3271461a8","019cfa3a-388e-72ab-ad58-bdeb258f96cd","","null","
                <div class=""stimulus-container"">
                    <img src=""images/causal_sequence/dog_causal/dog_causal_5.png"" class=""exp-image"">
                    <div class=""question-area""></div> 
                </div>","null","","","","","","","","","","","",""
"","","","","","html-button-response","26","168261","0.0-26.0","B2B3D8E4DFD14AA997DA4526F6779F8A","019cfa5d-0386-7ee1-91c6-37b3271461a8","019cfa3a-388e-72ab-ad58-bdeb258f96cd","","null","
                <div class=""stimulus-container"">
                    <img src=""images/causal_sequence/dog_causal/dog_causal_5.png"" class=""exp-image"">
                    <div class=""question-area"">
                        <p style=""font-size: 20px; font-weight: bold; margin: 0;"">Is there a person in this image?</p>
                    </div>
                </div>","null","main_experiment_trial","5","dog_causal","causal_sequence","chronological","","","","","","",""
"","","","","","html-keyboard-response","27","169276","0.0-27.0","B2B3D8E4DFD14AA997DA4526F6779F8A","019cfa5d-0386-7ee1-91c6-37b3271461a8","019cfa3a-388e-72ab-ad58-bdeb258f96cd","","null","
                <div class=""stimulus-container"">
                    <img src=""images/causal_sequence/dog_causal/dog_causal_6.png"" class=""exp-image"">
                    <div class=""question-area""></div> 
                </div>","null","","","","","","","","","","","",""
"","","","","","html-button-response","28","171573","0.0-28.0","B2B3D8E4DFD14AA997DA4526F6779F8A","019cfa5d-0386-7ee1-91c6-37b3271461a8","019cfa3a-388e-72ab-ad58-bdeb258f96cd","","2294","
                <div class=""stimulus-container"">
                    <img src=""images/causal_sequence/dog_causal/dog_causal_6.png"" class=""exp-image"">
                    <div class=""question-area"">
                        <p style=""font-size: 20px; font-weight: bold; margin: 0;"">Is there a person in this image?</p>
                    </div>
                </div>","0","main_experiment_trial","6","dog_causal","causal_sequence","chronological","","","","","","",""
"","","","","","html-keyboard-response","29","172578","0.0-29.0","B2B3D8E4DFD14AA997DA4526F6779F8A","019cfa5d-0386-7ee1-91c6-37b3271461a8","019cfa3a-388e-72ab-ad58-bdeb258f96cd","","null","
                <div class=""stimulus-container"">
                    <img src=""images/causal_sequence/dog_causal/dog_causal_7.png"" class=""exp-image"">
                    <div class=""question-area""></div> 
                </div>","null","","","","","","","","","","","",""
"","","","","","html-button-response","30","174208","0.0-30.0","B2B3D8E4DFD14AA997DA4526F6779F8A","019cfa5d-0386-7ee1-91c6-37b3271461a8","019cfa3a-388e-72ab-ad58-bdeb258f96cd","","1627","
                <div class=""stimulus-container"">
                    <img src=""images/causal_sequence/dog_causal/dog_causal_7.png"" class=""exp-image"">
                    <div class=""question-area"">
                        <p style=""font-size: 20px; font-weight: bold; margin: 0;"">Is there a person in this image?</p>
                    </div>
                </div>","0","main_experiment_trial","7","dog_causal","causal_sequence","chronological","","","","","","",""
"","","","","","html-keyboard-response","31","175214","0.0-31.0","B2B3D8E4DFD14AA997DA4526F6779F8A","019cfa5d-0386-7ee1-91c6-37b3271461a8","019cfa3a-388e-72ab-ad58-bdeb258f96cd","","null","
                <div class=""stimulus-container"">
                    <img src=""images/causal_sequence/dog_causal/dog_causal_8.png"" class=""exp-image"">
                    <div class=""question-area""></div> 
                </div>","null","","","","","","","","","","","",""
"","","","","","html-button-response","32","176957","0.0-32.0","B2B3D8E4DFD14AA997DA4526F6779F8A","019cfa5d-0386-7ee1-91c6-37b3271461a8","019cfa3a-388e-72ab-ad58-bdeb258f96cd","","1741","
                <div class=""stimulus-container"">
                    <img src=""images/causal_sequence/dog_causal/dog_causal_8.png"" class=""exp-image"">
                    <div class=""question-area"">
                        <p style=""font-size: 20px; font-weight: bold; margin: 0;"">Is there a person in this image?</p>
                    </div>
                </div>","0","main_experiment_trial","8","dog_causal","causal_sequence","chronological","","","","","","",""
"","","","","","html-keyboard-response","33","177961","0.0-33.0","B2B3D8E4DFD14AA997DA4526F6779F8A","019cfa5d-0386-7ee1-91c6-37b3271461a8","019cfa3a-388e-72ab-ad58-bdeb258f96cd","","null","
                <div class=""stimulus-container"">
                    <img src=""images/causal_sequence/dog_causal/dog_causal_9.png"" class=""exp-image"">
                    <div class=""question-area""></div> 
                </div>","null","","","","","","","","","","","",""
"","","","","","html-button-response","34","179860","0.0-34.0","B2B3D8E4DFD14AA997DA4526F6779F8A","019cfa5d-0386-7ee1-91c6-37b3271461a8","019cfa3a-388e-72ab-ad58-bdeb258f96cd","","1897","
                <div class=""stimulus-container"">
                    <img src=""images/causal_sequence/dog_causal/dog_causal_9.png"" class=""exp-image"">
                    <div class=""question-area"">
                        <p style=""font-size: 20px; font-weight: bold; margin: 0;"">Is there a person in this image?</p>
                    </div>
                </div>","0","main_experiment_trial","9","dog_causal","causal_sequence","chronological","","","","","","",""
"","","","","","html-keyboard-response","35","180867","0.0-35.0","B2B3D8E4DFD14AA997DA4526F6779F8A","019cfa5d-0386-7ee1-91c6-37b3271461a8","019cfa3a-388e-72ab-ad58-bdeb258f96cd","","null","
                <div class=""stimulus-container"">
                    <img src=""images/causal_sequence/dog_causal/dog_causal_ten.png"" class=""exp-image"">
                    <div class=""question-area""></div> 
                </div>","null","","","","","","","","","","","",""
"","","","","","html-button-response","36","182174","0.0-36.0","B2B3D8E4DFD14AA997DA4526F6779F8A","019cfa5d-0386-7ee1-91c6-37b3271461a8","019cfa3a-388e-72ab-ad58-bdeb258f96cd","","1305","
                <div class=""stimulus-container"">
                    <img src=""images/causal_sequence/dog_causal/dog_causal_ten.png"" class=""exp-image"">
                    <div class=""question-area"">
                        <p style=""font-size: 20px; font-weight: bold; margin: 0;"">Is there a person in this image?</p>
                    </div>
                </div>","0","main_experiment_trial","ten","dog_causal","causal_sequence","chronological","","","","","","",""
"","","","","","html-keyboard-response","37","187176","0.0-37.0","B2B3D8E4DFD14AA997DA4526F6779F8A","019cfa5d-0386-7ee1-91c6-37b3271461a8","019cfa3a-388e-72ab-ad58-bdeb258f96cd","","null","<div style=""background-color: white; width: 100vw; height: 100vh;""></div>","null","","","","","","","","","","","",""
"","","","","","html-keyboard-response","38","188178","0.0-38.0","B2B3D8E4DFD14AA997DA4526F6779F8A","019cfa5d-0386-7ee1-91c6-37b3271461a8","019cfa3a-388e-72ab-ad58-bdeb258f96cd","","null","
                <div class=""stimulus-container"">
                    <img src=""images/causal_sequence/the_performance_causal/the_performance_causal_1.png"" class=""exp-image"">
                    <div class=""question-area""></div> 
                </div>","null","","","","","","","","","","","",""
"","","","","","html-button-response","39","189520","0.0-39.0","B2B3D8E4DFD14AA997DA4526F6779F8A","019cfa5d-0386-7ee1-91c6-37b3271461a8","019cfa3a-388e-72ab-ad58-bdeb258f96cd","","1339","
                <div class=""stimulus-container"">
                    <img src=""images/causal_sequence/the_performance_causal/the_performance_causal_1.png"" class=""exp-image"">
                    <div class=""question-area"">
                        <p style=""font-size: 20px; font-weight: bold; margin: 0;"">Is there a person in this image?</p>
                    </div>
                </div>","0","main_experiment_trial","1","the_performance_causal","causal_sequence","chronological","","","","","","",""
"","","","","","html-keyboard-response","40","190526","0.0-40.0","B2B3D8E4DFD14AA997DA4526F6779F8A","019cfa5d-0386-7ee1-91c6-37b3271461a8","019cfa3a-388e-72ab-ad58-bdeb258f96cd","","null","
                <div class=""stimulus-container"">
                    <img src=""images/causal_sequence/the_performance_causal/the_performance_causal_2.png"" class=""exp-image"">
                    <div class=""question-area""></div> 
                </div>","null","","","","","","","","","","","",""
"","","","","","html-button-response","41","191735","0.0-41.0","B2B3D8E4DFD14AA997DA4526F6779F8A","019cfa5d-0386-7ee1-91c6-37b3271461a8","019cfa3a-388e-72ab-ad58-bdeb258f96cd","","1206","
                <div class=""stimulus-container"">
                    <img src=""images/causal_sequence/the_performance_causal/the_performance_causal_2.png"" class=""exp-image"">
                    <div class=""question-area"">
                        <p style=""font-size: 20px; font-weight: bold; margin: 0;"">Is there a person in this image?</p>
                    </div>
                </div>","0","main_experiment_trial","2","the_performance_causal","causal_sequence","chronological","","","","","","",""
"","","","","","html-keyboard-response","42","192736","0.0-42.0","B2B3D8E4DFD14AA997DA4526F6779F8A","019cfa5d-0386-7ee1-91c6-37b3271461a8","019cfa3a-388e-72ab-ad58-bdeb258f96cd","","null","
                <div class=""stimulus-container"">
                    <img src=""images/causal_sequence/the_performance_causal/the_performance_causal_3.png"" class=""exp-image"">
                    <div class=""question-area""></div> 
                </div>","null","","","","","","","","","","","",""
"","","","","","html-button-response","43","193984","0.0-43.0","B2B3D8E4DFD14AA997DA4526F6779F8A","019cfa5d-0386-7ee1-91c6-37b3271461a8","019cfa3a-388e-72ab-ad58-bdeb258f96cd","","1246","
                <div class=""stimulus-container"">
                    <img src=""images/causal_sequence/the_performance_causal/the_performance_causal_3.png"" class=""exp-image"">
                    <div class=""question-area"">
                        <p style=""font-size: 20px; font-weight: bold; margin: 0;"">Is there a person in this image?</p>
                    </div>
                </div>","0","main_experiment_trial","3","the_performance_causal","causal_sequence","chronological","","","","","","",""
"","","","","","html-keyboard-response","44","194988","0.0-44.0","B2B3D8E4DFD14AA997DA4526F6779F8A","019cfa5d-0386-7ee1-91c6-37b3271461a8","019cfa3a-388e-72ab-ad58-bdeb258f96cd","","null","
                <div class=""stimulus-container"">
                    <img src=""images/causal_sequence/the_performance_causal/the_performance_causal_4.png"" class=""exp-image"">
                    <div class=""question-area""></div> 
                </div>","null","","","","","","","","","","","",""
"","","","","","html-button-response","45","196061","0.0-45.0","B2B3D8E4DFD14AA997DA4526F6779F8A","019cfa5d-0386-7ee1-91c6-37b3271461a8","019cfa3a-388e-72ab-ad58-bdeb258f96cd","","1072","
                <div class=""stimulus-container"">
                    <img src=""images/causal_sequence/the_performance_causal/the_performance_causal_4.png"" class=""exp-image"">
                    <div class=""question-area"">
                        <p style=""font-size: 20px; font-weight: bold; margin: 0;"">Is there a person in this image?</p>
                    </div>
                </div>","0","main_experiment_trial","4","the_performance_causal","causal_sequence","chronological","","","","","","",""
"","","","","","html-keyboard-response","46","197068","0.0-46.0","B2B3D8E4DFD14AA997DA4526F6779F8A","019cfa5d-0386-7ee1-91c6-37b3271461a8","019cfa3a-388e-72ab-ad58-bdeb258f96cd","","null","
                <div class=""stimulus-container"">
                    <img src=""images/causal_sequence/the_performance_causal/the_performance_causal_5.png"" class=""exp-image"">
                    <div class=""question-area""></div> 
                </div>","null","","","","","","","","","","","",""
"","","","","","html-button-response","47","197687","0.0-47.0","B2B3D8E4DFD14AA997DA4526F6779F8A","019cfa5d-0386-7ee1-91c6-37b3271461a8","019cfa3a-388e-72ab-ad58-bdeb258f96cd","","617","
                <div class=""stimulus-container"">
                    <img src=""images/causal_sequence/the_performance_causal/the_performance_causal_5.png"" class=""exp-image"">
                    <div class=""question-area"">
                        <p style=""font-size: 20px; font-weight: bold; margin: 0;"">Is there a person in this image?</p>
                    </div>
                </div>","0","main_experiment_trial","5","the_performance_causal","causal_sequence","chronological","","","","","","",""
"","","","","","html-keyboard-response","48","198699","0.0-48.0","B2B3D8E4DFD14AA997DA4526F6779F8A","019cfa5d-0386-7ee1-91c6-37b3271461a8","019cfa3a-388e-72ab-ad58-bdeb258f96cd","","null","
                <div class=""stimulus-container"">
                    <img src=""images/causal_sequence/the_performance_causal/the_performance_causal_6.png"" class=""exp-image"">
                    <div class=""question-area""></div> 
                </div>","null","","","","","","","","","","","",""
"","","","","","html-button-response","49","199672","0.0-49.0","B2B3D8E4DFD14AA997DA4526F6779F8A","019cfa5d-0386-7ee1-91c6-37b3271461a8","019cfa3a-388e-72ab-ad58-bdeb258f96cd","","971","
                <div class=""stimulus-container"">
                    <img src=""images/causal_sequence/the_performance_causal/the_performance_causal_6.png"" class=""exp-image"">
                    <div class=""question-area"">
                        <p style=""font-size: 20px; font-weight: bold; margin: 0;"">Is there a person in this image?</p>
                    </div>
                </div>","0","main_experiment_trial","6","the_performance_causal","causal_sequence","chronological","","","","","","",""
"","","","","","html-keyboard-response","50","200684","0.0-50.0","B2B3D8E4DFD14AA997DA4526F6779F8A","019cfa5d-0386-7ee1-91c6-37b3271461a8","019cfa3a-388e-72ab-ad58-bdeb258f96cd","","null","
                <div class=""stimulus-container"">
                    <img src=""images/causal_sequence/the_performance_causal/the_performance_causal_7.png"" class=""exp-image"">
                    <div class=""question-area""></div> 
                </div>","null","","","","","","","","","","","",""
"","","","","","html-button-response","51","201877","0.0-51.0","B2B3D8E4DFD14AA997DA4526F6779F8A","019cfa5d-0386-7ee1-91c6-37b3271461a8","019cfa3a-388e-72ab-ad58-bdeb258f96cd","","1192","
                <div class=""stimulus-container"">
                    <img src=""images/causal_sequence/the_performance_causal/the_performance_causal_7.png"" class=""exp-image"">
                    <div class=""question-area"">
                        <p style=""font-size: 20px; font-weight: bold; margin: 0;"">Is there a person in this image?</p>
                    </div>
                </div>","0","main_experiment_trial","7","the_performance_causal","causal_sequence","chronological","","","","","","",""
"","","","","","html-keyboard-response","52","202889","0.0-52.0","B2B3D8E4DFD14AA997DA4526F6779F8A","019cfa5d-0386-7ee1-91c6-37b3271461a8","019cfa3a-388e-72ab-ad58-bdeb258f96cd","","null","
                <div class=""stimulus-container"">
                    <img src=""images/causal_sequence/the_performance_causal/the_performance_causal_8.png"" class=""exp-image"">
                    <div class=""question-area""></div> 
                </div>","null","","","","","","","","","","","",""
"","","","","","html-button-response","53","203696","0.0-53.0","B2B3D8E4DFD14AA997DA4526F6779F8A","019cfa5d-0386-7ee1-91c6-37b3271461a8","019cfa3a-388e-72ab-ad58-bdeb258f96cd","","805","
                <div class=""stimulus-container"">
                    <img src=""images/causal_sequence/the_performance_causal/the_performance_causal_8.png"" class=""exp-image"">
                    <div class=""question-area"">
                        <p style=""font-size: 20px; font-weight: bold; margin: 0;"">Is there a person in this image?</p>
                    </div>
                </div>","0","main_experiment_trial","8","the_performance_causal","causal_sequence","chronological","","","","","","",""
"","","","","","html-keyboard-response","54","204704","0.0-54.0","B2B3D8E4DFD14AA997DA4526F6779F8A","019cfa5d-0386-7ee1-91c6-37b3271461a8","019cfa3a-388e-72ab-ad58-bdeb258f96cd","","null","
                <div class=""stimulus-container"">
                    <img src=""images/causal_sequence/the_performance_causal/the_performance_causal_9.png"" class=""exp-image"">
                    <div class=""question-area""></div> 
                </div>","null","","","","","","","","","","","",""
"","","","","","html-button-response","55","205263","0.0-55.0","B2B3D8E4DFD14AA997DA4526F6779F8A","019cfa5d-0386-7ee1-91c6-37b3271461a8","019cfa3a-388e-72ab-ad58-bdeb258f96cd","","558","
                <div class=""stimulus-container"">
                    <img src=""images/causal_sequence/the_performance_causal/the_performance_causal_9.png"" class=""exp-image"">
                    <div class=""question-area"">
                        <p style=""font-size: 20px; font-weight: bold; margin: 0;"">Is there a person in this image?</p>
                    </div>
                </div>","0","main_experiment_trial","9","the_performance_causal","causal_sequence","chronological","","","","","","",""
"","","","","","html-keyboard-response","56","206277","0.0-56.0","B2B3D8E4DFD14AA997DA4526F6779F8A","019cfa5d-0386-7ee1-91c6-37b3271461a8","019cfa3a-388e-72ab-ad58-bdeb258f96cd","","null","
                <div class=""stimulus-container"">
                    <img src=""images/causal_sequence/the_performance_causal/the_performance_causal_ten.png"" class=""exp-image"">
                    <div class=""question-area""></div> 
                </div>","null","","","","","","","","","","","",""
"","","","","","html-button-response","57","207203","0.0-57.0","B2B3D8E4DFD14AA997DA4526F6779F8A","019cfa5d-0386-7ee1-91c6-37b3271461a8","019cfa3a-388e-72ab-ad58-bdeb258f96cd","","925","
                <div class=""stimulus-container"">
                    <img src=""images/causal_sequence/the_performance_causal/the_performance_causal_ten.png"" class=""exp-image"">
                    <div class=""question-area"">
                        <p style=""font-size: 20px; font-weight: bold; margin: 0;"">Is there a person in this image?</p>
                    </div>
                </div>","0","main_experiment_trial","ten","the_performance_causal","causal_sequence","chronological","","","","","","",""
"","","","","","html-keyboard-response","58","212216","0.0-58.0","B2B3D8E4DFD14AA997DA4526F6779F8A","019cfa5d-0386-7ee1-91c6-37b3271461a8","019cfa3a-388e-72ab-ad58-bdeb258f96cd","","null","<div style=""background-color: white; width: 100vw; height: 100vh;""></div>","null","","","","","","","","","","","",""
"","","","","","html-keyboard-response","59","213232","0.0-59.0","B2B3D8E4DFD14AA997DA4526F6779F8A","019cfa5d-0386-7ee1-91c6-37b3271461a8","019cfa3a-388e-72ab-ad58-bdeb258f96cd","","null","
                <div class=""stimulus-container"">
                    <img src=""images/causal_sequence/coin_causal/coin_causal_1.png"" class=""exp-image"">
                    <div class=""question-area""></div> 
                </div>","null","","","","","","","","","","","",""
"","","","","","html-button-response","60","215202","0.0-60.0","B2B3D8E4DFD14AA997DA4526F6779F8A","019cfa5d-0386-7ee1-91c6-37b3271461a8","019cfa3a-388e-72ab-ad58-bdeb258f96cd","","1968","
                <div class=""stimulus-container"">
                    <img src=""images/causal_sequence/coin_causal/coin_causal_1.png"" class=""exp-image"">
                    <div class=""question-area"">
                        <p style=""font-size: 20px; font-weight: bold; margin: 0;"">Is there a person in this image?</p>
                    </div>
                </div>","0","main_experiment_trial","1","coin_causal","causal_sequence","chronological","","","","","","",""
"","","","","","html-keyboard-response","61","216203","0.0-61.0","B2B3D8E4DFD14AA997DA4526F6779F8A","019cfa5d-0386-7ee1-91c6-37b3271461a8","019cfa3a-388e-72ab-ad58-bdeb258f96cd","","null","
                <div class=""stimulus-container"">
                    <img src=""images/causal_sequence/coin_causal/coin_causal_2.png"" class=""exp-image"">
                    <div class=""question-area""></div> 
                </div>","null","","","","","","","","","","","",""
"","","","","","html-button-response","62","217305","0.0-62.0","B2B3D8E4DFD14AA997DA4526F6779F8A","019cfa5d-0386-7ee1-91c6-37b3271461a8","019cfa3a-388e-72ab-ad58-bdeb258f96cd","","1101","
                <div class=""stimulus-container"">
                    <img src=""images/causal_sequence/coin_causal/coin_causal_2.png"" class=""exp-image"">
                    <div class=""question-area"">
                        <p style=""font-size: 20px; font-weight: bold; margin: 0;"">Is there a person in this image?</p>
                    </div>
                </div>","0","main_experiment_trial","2","coin_causal","causal_sequence","chronological","","","","","","",""
"","","","","","html-keyboard-response","63","218315","0.0-63.0","B2B3D8E4DFD14AA997DA4526F6779F8A","019cfa5d-0386-7ee1-91c6-37b3271461a8","019cfa3a-388e-72ab-ad58-bdeb258f96cd","","null","
                <div class=""stimulus-container"">
                    <img src=""images/causal_sequence/coin_causal/coin_causal_3.png"" class=""exp-image"">
                    <div class=""question-area""></div> 
                </div>","null","","","","","","","","","","","",""
"","","","","","html-button-response","64","219083","0.0-64.0","B2B3D8E4DFD14AA997DA4526F6779F8A","019cfa5d-0386-7ee1-91c6-37b3271461a8","019cfa3a-388e-72ab-ad58-bdeb258f96cd","","766","
                <div class=""stimulus-container"">
                    <img src=""images/causal_sequence/coin_causal/coin_causal_3.png"" class=""exp-image"">
                    <div class=""question-area"">
                        <p style=""font-size: 20px; font-weight: bold; margin: 0;"">Is there a person in this image?</p>
                    </div>
                </div>","0","main_experiment_trial","3","coin_causal","causal_sequence","chronological","","","","","","",""
"","","","","","html-keyboard-response","65","220095","0.0-65.0","B2B3D8E4DFD14AA997DA4526F6779F8A","019cfa5d-0386-7ee1-91c6-37b3271461a8","019cfa3a-388e-72ab-ad58-bdeb258f96cd","","null","
                <div class=""stimulus-container"">
                    <img src=""images/causal_sequence/coin_causal/coin_causal_4.png"" class=""exp-image"">
                    <div class=""question-area""></div> 
                </div>","null","","","","","","","","","","","",""
"","","","","","html-button-response","66","220666","0.0-66.0","B2B3D8E4DFD14AA997DA4526F6779F8A","019cfa5d-0386-7ee1-91c6-37b3271461a8","019cfa3a-388e-72ab-ad58-bdeb258f96cd","","569","
                <div class=""stimulus-container"">
                    <img src=""images/causal_sequence/coin_causal/coin_causal_4.png"" class=""exp-image"">
                    <div class=""question-area"">
                        <p style=""font-size: 20px; font-weight: bold; margin: 0;"">Is there a person in this image?</p>
                    </div>
                </div>","0","main_experiment_trial","4","coin_causal","causal_sequence","chronological","","","","","","",""
"","","","","","html-keyboard-response","67","221688","0.0-67.0","B2B3D8E4DFD14AA997DA4526F6779F8A","019cfa5d-0386-7ee1-91c6-37b3271461a8","019cfa3a-388e-72ab-ad58-bdeb258f96cd","","null","
                <div class=""stimulus-container"">
                    <img src=""images/causal_sequence/coin_causal/coin_causal_5.png"" class=""exp-image"">
                    <div class=""question-area""></div> 
                </div>","null","","","","","","","","","","","",""
"","","","","","html-button-response","68","222256","0.0-68.0","B2B3D8E4DFD14AA997DA4526F6779F8A","019cfa5d-0386-7ee1-91c6-37b3271461a8","019cfa3a-388e-72ab-ad58-bdeb258f96cd","","566","
                <div class=""stimulus-container"">
                    <img src=""images/causal_sequence/coin_causal/coin_causal_5.png"" class=""exp-image"">
                    <div class=""question-area"">
                        <p style=""font-size: 20px; font-weight: bold; margin: 0;"">Is there a person in this image?</p>
                    </div>
                </div>","0","main_experiment_trial","5","coin_causal","causal_sequence","chronological","","","","","","",""
"","","","","","html-keyboard-response","69","223263","0.0-69.0","B2B3D8E4DFD14AA997DA4526F6779F8A","019cfa5d-0386-7ee1-91c6-37b3271461a8","019cfa3a-388e-72ab-ad58-bdeb258f96cd","","null","
                <div class=""stimulus-container"">
                    <img src=""images/causal_sequence/coin_causal/coin_causal_6.png"" class=""exp-image"">
                    <div class=""question-area""></div> 
                </div>","null","","","","","","","","","","","",""
"","","","","","html-button-response","70","223879","0.0-70.0","B2B3D8E4DFD14AA997DA4526F6779F8A","019cfa5d-0386-7ee1-91c6-37b3271461a8","019cfa3a-388e-72ab-ad58-bdeb258f96cd","","614","
                <div class=""stimulus-container"">
                    <img src=""images/causal_sequence/coin_causal/coin_causal_6.png"" class=""exp-image"">
                    <div class=""question-area"">
                        <p style=""font-size: 20px; font-weight: bold; margin: 0;"">Is there a person in this image?</p>
                    </div>
                </div>","0","main_experiment_trial","6","coin_causal","causal_sequence","chronological","","","","","","",""
"","","","","","html-keyboard-response","71","224889","0.0-71.0","B2B3D8E4DFD14AA997DA4526F6779F8A","019cfa5d-0386-7ee1-91c6-37b3271461a8","019cfa3a-388e-72ab-ad58-bdeb258f96cd","","null","
                <div class=""stimulus-container"">
                    <img src=""images/causal_sequence/coin_causal/coin_causal_7.png"" class=""exp-image"">
                    <div class=""question-area""></div> 
                </div>","null","","","","","","","","","","","",""
"","","","","","html-button-response","72","226430","0.0-72.0","B2B3D8E4DFD14AA997DA4526F6779F8A","019cfa5d-0386-7ee1-91c6-37b3271461a8","019cfa3a-388e-72ab-ad58-bdeb258f96cd","","1538","
                <div class=""stimulus-container"">
                    <img src=""images/causal_sequence/coin_causal/coin_causal_7.png"" class=""exp-image"">
                    <div class=""question-area"">
                        <p style=""font-size: 20px; font-weight: bold; margin: 0;"">Is there a person in this image?</p>
                    </div>
                </div>","1","main_experiment_trial","7","coin_causal","causal_sequence","chronological","","","","","","",""
"","","","","","html-keyboard-response","73","227436","0.0-73.0","B2B3D8E4DFD14AA997DA4526F6779F8A","019cfa5d-0386-7ee1-91c6-37b3271461a8","019cfa3a-388e-72ab-ad58-bdeb258f96cd","","null","
                <div class=""stimulus-container"">
                    <img src=""images/causal_sequence/coin_causal/coin_causal_8.png"" class=""exp-image"">
                    <div class=""question-area""></div> 
                </div>","null","","","","","","","","","","","",""
"","","","","","html-button-response","74","228238","0.0-74.0","B2B3D8E4DFD14AA997DA4526F6779F8A","019cfa5d-0386-7ee1-91c6-37b3271461a8","019cfa3a-388e-72ab-ad58-bdeb258f96cd","","800","
                <div class=""stimulus-container"">
                    <img src=""images/causal_sequence/coin_causal/coin_causal_8.png"" class=""exp-image"">
                    <div class=""question-area"">
                        <p style=""font-size: 20px; font-weight: bold; margin: 0;"">Is there a person in this image?</p>
                    </div>
                </div>","0","main_experiment_trial","8","coin_causal","causal_sequence","chronological","","","","","","",""
"","","","","","html-keyboard-response","75","229250","0.0-75.0","B2B3D8E4DFD14AA997DA4526F6779F8A","019cfa5d-0386-7ee1-91c6-37b3271461a8","019cfa3a-388e-72ab-ad58-bdeb258f96cd","","null","
                <div class=""stimulus-container"">
                    <img src=""images/causal_sequence/coin_causal/coin_causal_9.png"" class=""exp-image"">
                    <div class=""question-area""></div> 
                </div>","null","","","","","","","","","","","",""
"","","","","","html-button-response","76","229720","0.0-76.0","B2B3D8E4DFD14AA997DA4526F6779F8A","019cfa5d-0386-7ee1-91c6-37b3271461a8","019cfa3a-388e-72ab-ad58-bdeb258f96cd","","468","
                <div class=""stimulus-container"">
                    <img src=""images/causal_sequence/coin_causal/coin_causal_9.png"" class=""exp-image"">
                    <div class=""question-area"">
                        <p style=""font-size: 20px; font-weight: bold; margin: 0;"">Is there a person in this image?</p>
                    </div>
                </div>","0","main_experiment_trial","9","coin_causal","causal_sequence","chronological","","","","","","",""
"","","","","","html-keyboard-response","77","230738","0.0-77.0","B2B3D8E4DFD14AA997DA4526F6779F8A","019cfa5d-0386-7ee1-91c6-37b3271461a8","019cfa3a-388e-72ab-ad58-bdeb258f96cd","","null","
                <div class=""stimulus-container"">
                    <img src=""images/causal_sequence/coin_causal/coin_causal_ten.png"" class=""exp-image"">
                    <div class=""question-area""></div> 
                </div>","null","","","","","","","","","","","",""
"","","","","","html-button-response","78","231477","0.0-78.0","B2B3D8E4DFD14AA997DA4526F6779F8A","019cfa5d-0386-7ee1-91c6-37b3271461a8","019cfa3a-388e-72ab-ad58-bdeb258f96cd","","733","
                <div class=""stimulus-container"">
                    <img src=""images/causal_sequence/coin_causal/coin_causal_ten.png"" class=""exp-image"">
                    <div class=""question-area"">
                        <p style=""font-size: 20px; font-weight: bold; margin: 0;"">Is there a person in this image?</p>
                    </div>
                </div>","0","main_experiment_trial","ten","coin_causal","causal_sequence","chronological","","","","","","",""
"","","","","","html-keyboard-response","79","236487","0.0-79.0","B2B3D8E4DFD14AA997DA4526F6779F8A","019cfa5d-0386-7ee1-91c6-37b3271461a8","019cfa3a-388e-72ab-ad58-bdeb258f96cd","","null","<div style=""background-color: white; width: 100vw; height: 100vh;""></div>","null","","","","","","","","","","","",""
"","","","","","html-keyboard-response","80","237491","0.0-80.0","B2B3D8E4DFD14AA997DA4526F6779F8A","019cfa5d-0386-7ee1-91c6-37b3271461a8","019cfa3a-388e-72ab-ad58-bdeb258f96cd","","null","
                <div class=""stimulus-container"">
                    <img src=""images/causal_sequence/package_causal/package_causal_1.png"" class=""exp-image"">
                    <div class=""question-area""></div> 
                </div>","null","","","","","","","","","","","",""
"","","","","","html-button-response","81","238502","0.0-81.0","B2B3D8E4DFD14AA997DA4526F6779F8A","019cfa5d-0386-7ee1-91c6-37b3271461a8","019cfa3a-388e-72ab-ad58-bdeb258f96cd","","1008","
                <div class=""stimulus-container"">
                    <img src=""images/causal_sequence/package_causal/package_causal_1.png"" class=""exp-image"">
                    <div class=""question-area"">
                        <p style=""font-size: 20px; font-weight: bold; margin: 0;"">Is there a person in this image?</p>
                    </div>
                </div>","0","main_experiment_trial","1","package_causal","causal_sequence","chronological","","","","","","",""
"","","","","","html-keyboard-response","82","239512","0.0-82.0","B2B3D8E4DFD14AA997DA4526F6779F8A","019cfa5d-0386-7ee1-91c6-37b3271461a8","019cfa3a-388e-72ab-ad58-bdeb258f96cd","","null","
                <div class=""stimulus-container"">
                    <img src=""images/causal_sequence/package_causal/package_causal_2.png"" class=""exp-image"">
                    <div class=""question-area""></div> 
                </div>","null","","","","","","","","","","","",""
"","","","","","html-button-response","83","240162","0.0-83.0","B2B3D8E4DFD14AA997DA4526F6779F8A","019cfa5d-0386-7ee1-91c6-37b3271461a8","019cfa3a-388e-72ab-ad58-bdeb258f96cd","","649","
                <div class=""stimulus-container"">
                    <img src=""images/causal_sequence/package_causal/package_causal_2.png"" class=""exp-image"">
                    <div class=""question-area"">
                        <p style=""font-size: 20px; font-weight: bold; margin: 0;"">Is there a person in this image?</p>
                    </div>
                </div>","0","main_experiment_trial","2","package_causal","causal_sequence","chronological","","","","","","",""
"","","","","","html-keyboard-response","84","241169","0.0-84.0","B2B3D8E4DFD14AA997DA4526F6779F8A","019cfa5d-0386-7ee1-91c6-37b3271461a8","019cfa3a-388e-72ab-ad58-bdeb258f96cd","","null","
                <div class=""stimulus-container"">
                    <img src=""images/causal_sequence/package_causal/package_causal_3.png"" class=""exp-image"">
                    <div class=""question-area""></div> 
                </div>","null","","","","","","","","","","","",""
"","","","","","html-button-response","85","241825","0.0-85.0","B2B3D8E4DFD14AA997DA4526F6779F8A","019cfa5d-0386-7ee1-91c6-37b3271461a8","019cfa3a-388e-72ab-ad58-bdeb258f96cd","","654","
                <div class=""stimulus-container"">
                    <img src=""images/causal_sequence/package_causal/package_causal_3.png"" class=""exp-image"">
                    <div class=""question-area"">
                        <p style=""font-size: 20px; font-weight: bold; margin: 0;"">Is there a person in this image?</p>
                    </div>
                </div>","0","main_experiment_trial","3","package_causal","causal_sequence","chronological","","","","","","",""
"","","","","","html-keyboard-response","86","242831","0.0-86.0","B2B3D8E4DFD14AA997DA4526F6779F8A","019cfa5d-0386-7ee1-91c6-37b3271461a8","019cfa3a-388e-72ab-ad58-bdeb258f96cd","","null","
                <div class=""stimulus-container"">
                    <img src=""images/causal_sequence/package_causal/package_causal_4.png"" class=""exp-image"">
                    <div class=""question-area""></div> 
                </div>","null","","","","","","","","","","","",""
"","","","","","html-button-response","87","245845","0.0-87.0","B2B3D8E4DFD14AA997DA4526F6779F8A","019cfa5d-0386-7ee1-91c6-37b3271461a8","019cfa3a-388e-72ab-ad58-bdeb258f96cd","","null","
                <div class=""stimulus-container"">
                    <img src=""images/causal_sequence/package_causal/package_causal_4.png"" class=""exp-image"">
                    <div class=""question-area"">
                        <p style=""font-size: 20px; font-weight: bold; margin: 0;"">Is there a person in this image?</p>
                    </div>
                </div>","null","main_experiment_trial","4","package_causal","causal_sequence","chronological","","","","","","",""
"","","","","","html-keyboard-response","88","246853","0.0-88.0","B2B3D8E4DFD14AA997DA4526F6779F8A","019cfa5d-0386-7ee1-91c6-37b3271461a8","019cfa3a-388e-72ab-ad58-bdeb258f96cd","","null","
                <div class=""stimulus-container"">
                    <img src=""images/causal_sequence/package_causal/package_causal_5.png"" class=""exp-image"">
                    <div class=""question-area""></div> 
                </div>","null","","","","","","","","","","","",""
"","","","","","html-button-response","89","247504","0.0-89.0","B2B3D8E4DFD14AA997DA4526F6779F8A","019cfa5d-0386-7ee1-91c6-37b3271461a8","019cfa3a-388e-72ab-ad58-bdeb258f96cd","","651","
                <div class=""stimulus-container"">
                    <img src=""images/causal_sequence/package_causal/package_causal_5.png"" class=""exp-image"">
                    <div class=""question-area"">
                        <p style=""font-size: 20px; font-weight: bold; margin: 0;"">Is there a person in this image?</p>
                    </div>
                </div>","0","main_experiment_trial","5","package_causal","causal_sequence","chronological","","","","","","",""
"","","","","","html-keyboard-response","90","248512","0.0-90.0","B2B3D8E4DFD14AA997DA4526F6779F8A","019cfa5d-0386-7ee1-91c6-37b3271461a8","019cfa3a-388e-72ab-ad58-bdeb258f96cd","","null","
                <div class=""stimulus-container"">
                    <img src=""images/causal_sequence/package_causal/package_causal_6.png"" class=""exp-image"">
                    <div class=""question-area""></div> 
                </div>","null","","","","","","","","","","","",""
"","","","","","html-button-response","91","249125","0.0-91.0","B2B3D8E4DFD14AA997DA4526F6779F8A","019cfa5d-0386-7ee1-91c6-37b3271461a8","019cfa3a-388e-72ab-ad58-bdeb258f96cd","","611","
                <div class=""stimulus-container"">
                    <img src=""images/causal_sequence/package_causal/package_causal_6.png"" class=""exp-image"">
                    <div class=""question-area"">
                        <p style=""font-size: 20px; font-weight: bold; margin: 0;"">Is there a person in this image?</p>
                    </div>
                </div>","0","main_experiment_trial","6","package_causal","causal_sequence","chronological","","","","","","",""
"","","","","","html-keyboard-response","92","250138","0.0-92.0","B2B3D8E4DFD14AA997DA4526F6779F8A","019cfa5d-0386-7ee1-91c6-37b3271461a8","019cfa3a-388e-72ab-ad58-bdeb258f96cd","","null","
                <div class=""stimulus-container"">
                    <img src=""images/causal_sequence/package_causal/package_causal_7.png"" class=""exp-image"">
                    <div class=""question-area""></div> 
                </div>","null","","","","","","","","","","","",""
"","","","","","html-button-response","93","250657","0.0-93.0","B2B3D8E4DFD14AA997DA4526F6779F8A","019cfa5d-0386-7ee1-91c6-37b3271461a8","019cfa3a-388e-72ab-ad58-bdeb258f96cd","","517","
                <div class=""stimulus-container"">
                    <img src=""images/causal_sequence/package_causal/package_causal_7.png"" class=""exp-image"">
                    <div class=""question-area"">
                        <p style=""font-size: 20px; font-weight: bold; margin: 0;"">Is there a person in this image?</p>
                    </div>
                </div>","0","main_experiment_trial","7","package_causal","causal_sequence","chronological","","","","","","",""
"","","","","","html-keyboard-response","94","251672","0.0-94.0","B2B3D8E4DFD14AA997DA4526F6779F8A","019cfa5d-0386-7ee1-91c6-37b3271461a8","019cfa3a-388e-72ab-ad58-bdeb258f96cd","","null","
                <div class=""stimulus-container"">
                    <img src=""images/causal_sequence/package_causal/package_causal_8.png"" class=""exp-image"">
                    <div class=""question-area""></div> 
                </div>","null","","","","","","","","","","","",""
"","","","","","html-button-response","95","252114","0.0-95.0","B2B3D8E4DFD14AA997DA4526F6779F8A","019cfa5d-0386-7ee1-91c6-37b3271461a8","019cfa3a-388e-72ab-ad58-bdeb258f96cd","","440","
                <div class=""stimulus-container"">
                    <img src=""images/causal_sequence/package_causal/package_causal_8.png"" class=""exp-image"">
                    <div class=""question-area"">
                        <p style=""font-size: 20px; font-weight: bold; margin: 0;"">Is there a person in this image?</p>
                    </div>
                </div>","0","main_experiment_trial","8","package_causal","causal_sequence","chronological","","","","","","",""
"","","","","","html-keyboard-response","96","253123","0.0-96.0","B2B3D8E4DFD14AA997DA4526F6779F8A","019cfa5d-0386-7ee1-91c6-37b3271461a8","019cfa3a-388e-72ab-ad58-bdeb258f96cd","","null","
                <div class=""stimulus-container"">
                    <img src=""images/causal_sequence/package_causal/package_causal_9.png"" class=""exp-image"">
                    <div class=""question-area""></div> 
                </div>","null","","","","","","","","","","","",""
"","","","","","html-button-response","97","253506","0.0-97.0","B2B3D8E4DFD14AA997DA4526F6779F8A","019cfa5d-0386-7ee1-91c6-37b3271461a8","019cfa3a-388e-72ab-ad58-bdeb258f96cd","","381","
                <div class=""stimulus-container"">
                    <img src=""images/causal_sequence/package_causal/package_causal_9.png"" class=""exp-image"">
                    <div class=""question-area"">
                        <p style=""font-size: 20px; font-weight: bold; margin: 0;"">Is there a person in this image?</p>
                    </div>
                </div>","0","main_experiment_trial","9","package_causal","causal_sequence","chronological","","","","","","",""
"","","","","","html-keyboard-response","98","254508","0.0-98.0","B2B3D8E4DFD14AA997DA4526F6779F8A","019cfa5d-0386-7ee1-91c6-37b3271461a8","019cfa3a-388e-72ab-ad58-bdeb258f96cd","","null","
                <div class=""stimulus-container"">
                    <img src=""images/causal_sequence/package_causal/package_causal_ten.png"" class=""exp-image"">
                    <div class=""question-area""></div> 
                </div>","null","","","","","","","","","","","",""
"","","","","","html-button-response","99","255087","0.0-99.0","B2B3D8E4DFD14AA997DA4526F6779F8A","019cfa5d-0386-7ee1-91c6-37b3271461a8","019cfa3a-388e-72ab-ad58-bdeb258f96cd","","576","
                <div class=""stimulus-container"">
                    <img src=""images/causal_sequence/package_causal/package_causal_ten.png"" class=""exp-image"">
                    <div class=""question-area"">
                        <p style=""font-size: 20px; font-weight: bold; margin: 0;"">Is there a person in this image?</p>
                    </div>
                </div>","0","main_experiment_trial","ten","package_causal","causal_sequence","chronological","","","","","","",""
"","","","","","html-keyboard-response","100","260095","0.0-100.0","B2B3D8E4DFD14AA997DA4526F6779F8A","019cfa5d-0386-7ee1-91c6-37b3271461a8","019cfa3a-388e-72ab-ad58-bdeb258f96cd","","null","<div style=""background-color: white; width: 100vw; height: 100vh;""></div>","null","","","","","","","","","","","",""
"","","","","","html-keyboard-response","101","261104","0.0-101.0","B2B3D8E4DFD14AA997DA4526F6779F8A","019cfa5d-0386-7ee1-91c6-37b3271461a8","019cfa3a-388e-72ab-ad58-bdeb258f96cd","","null","
                <div class=""stimulus-container"">
                    <img src=""images/causal_sequence/saving_a_cat_causal/saving_a_cat_causal_1.png"" class=""exp-image"">
                    <div class=""question-area""></div> 
                </div>","null","","","","","","","","","","","",""
"","","","","","html-button-response","102","262099","0.0-102.0","B2B3D8E4DFD14AA997DA4526F6779F8A","019cfa5d-0386-7ee1-91c6-37b3271461a8","019cfa3a-388e-72ab-ad58-bdeb258f96cd","","993","
                <div class=""stimulus-container"">
                    <img src=""images/causal_sequence/saving_a_cat_causal/saving_a_cat_causal_1.png"" class=""exp-image"">
                    <div class=""question-area"">
                        <p style=""font-size: 20px; font-weight: bold; margin: 0;"">Is there a person in this image?</p>
                    </div>
                </div>","0","main_experiment_trial","1","saving_a_cat_causal","causal_sequence","chronological","","","","","","",""
"","","","","","html-keyboard-response","103","263123","0.0-103.0","B2B3D8E4DFD14AA997DA4526F6779F8A","019cfa5d-0386-7ee1-91c6-37b3271461a8","019cfa3a-388e-72ab-ad58-bdeb258f96cd","","null","
                <div class=""stimulus-container"">
                    <img src=""images/causal_sequence/saving_a_cat_causal/saving_a_cat_causal_2.png"" class=""exp-image"">
                    <div class=""question-area""></div> 
                </div>","null","","","","","","","","","","","",""
"","","","","","html-button-response","104","264863","0.0-104.0","B2B3D8E4DFD14AA997DA4526F6779F8A","019cfa5d-0386-7ee1-91c6-37b3271461a8","019cfa3a-388e-72ab-ad58-bdeb258f96cd","","1737","
                <div class=""stimulus-container"">
                    <img src=""images/causal_sequence/saving_a_cat_causal/saving_a_cat_causal_2.png"" class=""exp-image"">
                    <div class=""question-area"">
                        <p style=""font-size: 20px; font-weight: bold; margin: 0;"">Is there a person in this image?</p>
                    </div>
                </div>","1","main_experiment_trial","2","saving_a_cat_causal","causal_sequence","chronological","","","","","","",""
"","","","","","html-keyboard-response","105","265875","0.0-105.0","B2B3D8E4DFD14AA997DA4526F6779F8A","019cfa5d-0386-7ee1-91c6-37b3271461a8","019cfa3a-388e-72ab-ad58-bdeb258f96cd","","null","
                <div class=""stimulus-container"">
                    <img src=""images/causal_sequence/saving_a_cat_causal/saving_a_cat_causal_3.png"" class=""exp-image"">
                    <div class=""question-area""></div> 
                </div>","null","","","","","","","","","","","",""
"","","","","","html-button-response","106","267440","0.0-106.0","B2B3D8E4DFD14AA997DA4526F6779F8A","019cfa5d-0386-7ee1-91c6-37b3271461a8","019cfa3a-388e-72ab-ad58-bdeb258f96cd","","1563","
                <div class=""stimulus-container"">
                    <img src=""images/causal_sequence/saving_a_cat_causal/saving_a_cat_causal_3.png"" class=""exp-image"">
                    <div class=""question-area"">
                        <p style=""font-size: 20px; font-weight: bold; margin: 0;"">Is there a person in this image?</p>
                    </div>
                </div>","1","main_experiment_trial","3","saving_a_cat_causal","causal_sequence","chronological","","","","","","",""
"","","","","","html-keyboard-response","107","268450","0.0-107.0","B2B3D8E4DFD14AA997DA4526F6779F8A","019cfa5d-0386-7ee1-91c6-37b3271461a8","019cfa3a-388e-72ab-ad58-bdeb258f96cd","","null","
                <div class=""stimulus-container"">
                    <img src=""images/causal_sequence/saving_a_cat_causal/saving_a_cat_causal_4.png"" class=""exp-image"">
                    <div class=""question-area""></div> 
                </div>","null","","","","","","","","","","","",""
"","","","","","html-button-response","108","269344","0.0-108.0","B2B3D8E4DFD14AA997DA4526F6779F8A","019cfa5d-0386-7ee1-91c6-37b3271461a8","019cfa3a-388e-72ab-ad58-bdeb258f96cd","","891","
                <div class=""stimulus-container"">
                    <img src=""images/causal_sequence/saving_a_cat_causal/saving_a_cat_causal_4.png"" class=""exp-image"">
                    <div class=""question-area"">
                        <p style=""font-size: 20px; font-weight: bold; margin: 0;"">Is there a person in this image?</p>
                    </div>
                </div>","0","main_experiment_trial","4","saving_a_cat_causal","causal_sequence","chronological","","","","","","",""
"","","","","","html-keyboard-response","109","270348","0.0-109.0","B2B3D8E4DFD14AA997DA4526F6779F8A","019cfa5d-0386-7ee1-91c6-37b3271461a8","019cfa3a-388e-72ab-ad58-bdeb258f96cd","","null","
                <div class=""stimulus-container"">
                    <img src=""images/causal_sequence/saving_a_cat_causal/saving_a_cat_causal_5.png"" class=""exp-image"">
                    <div class=""question-area""></div> 
                </div>","null","","","","","","","","","","","",""
"","","","","","html-button-response","110","270896","0.0-110.0","B2B3D8E4DFD14AA997DA4526F6779F8A","019cfa5d-0386-7ee1-91c6-37b3271461a8","019cfa3a-388e-72ab-ad58-bdeb258f96cd","","546","
                <div class=""stimulus-container"">
                    <img src=""images/causal_sequence/saving_a_cat_causal/saving_a_cat_causal_5.png"" class=""exp-image"">
                    <div class=""question-area"">
                        <p style=""font-size: 20px; font-weight: bold; margin: 0;"">Is there a person in this image?</p>
                    </div>
                </div>","0","main_experiment_trial","5","saving_a_cat_causal","causal_sequence","chronological","","","","","","",""
"","","","","","html-keyboard-response","111","271902","0.0-111.0","B2B3D8E4DFD14AA997DA4526F6779F8A","019cfa5d-0386-7ee1-91c6-37b3271461a8","019cfa3a-388e-72ab-ad58-bdeb258f96cd","","null","
                <div class=""stimulus-container"">
                    <img src=""images/causal_sequence/saving_a_cat_causal/saving_a_cat_causal_6.png"" class=""exp-image"">
                    <div class=""question-area""></div> 
                </div>","null","","","","","","","","","","","",""
"","","","","","html-button-response","112","272498","0.0-112.0","B2B3D8E4DFD14AA997DA4526F6779F8A","019cfa5d-0386-7ee1-91c6-37b3271461a8","019cfa3a-388e-72ab-ad58-bdeb258f96cd","","595","
                <div class=""stimulus-container"">
                    <img src=""images/causal_sequence/saving_a_cat_causal/saving_a_cat_causal_6.png"" class=""exp-image"">
                    <div class=""question-area"">
                        <p style=""font-size: 20px; font-weight: bold; margin: 0;"">Is there a person in this image?</p>
                    </div>
                </div>","0","main_experiment_trial","6","saving_a_cat_causal","causal_sequence","chronological","","","","","","",""
"","","","","","html-keyboard-response","113","273510","0.0-113.0","B2B3D8E4DFD14AA997DA4526F6779F8A","019cfa5d-0386-7ee1-91c6-37b3271461a8","019cfa3a-388e-72ab-ad58-bdeb258f96cd","","null","
                <div class=""stimulus-container"">
                    <img src=""images/causal_sequence/saving_a_cat_causal/saving_a_cat_causal_7.png"" class=""exp-image"">
                    <div class=""question-area""></div> 
                </div>","null","","","","","","","","","","","",""
"","","","","","html-button-response","114","273934","0.0-114.0","B2B3D8E4DFD14AA997DA4526F6779F8A","019cfa5d-0386-7ee1-91c6-37b3271461a8","019cfa3a-388e-72ab-ad58-bdeb258f96cd","","421","
                <div class=""stimulus-container"">
                    <img src=""images/causal_sequence/saving_a_cat_causal/saving_a_cat_causal_7.png"" class=""exp-image"">
                    <div class=""question-area"">
                        <p style=""font-size: 20px; font-weight: bold; margin: 0;"">Is there a person in this image?</p>
                    </div>
                </div>","0","main_experiment_trial","7","saving_a_cat_causal","causal_sequence","chronological","","","","","","",""
"","","","","","html-keyboard-response","115","274950","0.0-115.0","B2B3D8E4DFD14AA997DA4526F6779F8A","019cfa5d-0386-7ee1-91c6-37b3271461a8","019cfa3a-388e-72ab-ad58-bdeb258f96cd","","null","
                <div class=""stimulus-container"">
                    <img src=""images/causal_sequence/saving_a_cat_causal/saving_a_cat_causal_8.png"" class=""exp-image"">
                    <div class=""question-area""></div> 
                </div>","null","","","","","","","","","","","",""
"","","","","","html-button-response","116","275508","0.0-116.0","B2B3D8E4DFD14AA997DA4526F6779F8A","019cfa5d-0386-7ee1-91c6-37b3271461a8","019cfa3a-388e-72ab-ad58-bdeb258f96cd","","556","
                <div class=""stimulus-container"">
                    <img src=""images/causal_sequence/saving_a_cat_causal/saving_a_cat_causal_8.png"" class=""exp-image"">
                    <div class=""question-area"">
                        <p style=""font-size: 20px; font-weight: bold; margin: 0;"">Is there a person in this image?</p>
                    </div>
                </div>","0","main_experiment_trial","8","saving_a_cat_causal","causal_sequence","chronological","","","","","","",""
"","","","","","html-keyboard-response","117","276515","0.0-117.0","B2B3D8E4DFD14AA997DA4526F6779F8A","019cfa5d-0386-7ee1-91c6-37b3271461a8","019cfa3a-388e-72ab-ad58-bdeb258f96cd","","null","
                <div class=""stimulus-container"">
                    <img src=""images/causal_sequence/saving_a_cat_causal/saving_a_cat_causal_9.png"" class=""exp-image"">
                    <div class=""question-area""></div> 
                </div>","null","","","","","","","","","","","",""
"","","","","","html-button-response","118","276959","0.0-118.0","B2B3D8E4DFD14AA997DA4526F6779F8A","019cfa5d-0386-7ee1-91c6-37b3271461a8","019cfa3a-388e-72ab-ad58-bdeb258f96cd","","442","
                <div class=""stimulus-container"">
                    <img src=""images/causal_sequence/saving_a_cat_causal/saving_a_cat_causal_9.png"" class=""exp-image"">
                    <div class=""question-area"">
                        <p style=""font-size: 20px; font-weight: bold; margin: 0;"">Is there a person in this image?</p>
                    </div>
                </div>","0","main_experiment_trial","9","saving_a_cat_causal","causal_sequence","chronological","","","","","","",""
"","","","","","html-keyboard-response","119","277971","0.0-119.0","B2B3D8E4DFD14AA997DA4526F6779F8A","019cfa5d-0386-7ee1-91c6-37b3271461a8","019cfa3a-388e-72ab-ad58-bdeb258f96cd","","null","
                <div class=""stimulus-container"">
                    <img src=""images/causal_sequence/saving_a_cat_causal/saving_a_cat_causal_ten.png"" class=""exp-image"">
                    <div class=""question-area""></div> 
                </div>","null","","","","","","","","","","","",""
"","","","","","html-button-response","120","278328","0.0-120.0","B2B3D8E4DFD14AA997DA4526F6779F8A","019cfa5d-0386-7ee1-91c6-37b3271461a8","019cfa3a-388e-72ab-ad58-bdeb258f96cd","","354","
                <div class=""stimulus-container"">
                    <img src=""images/causal_sequence/saving_a_cat_causal/saving_a_cat_causal_ten.png"" class=""exp-image"">
                    <div class=""question-area"">
                        <p style=""font-size: 20px; font-weight: bold; margin: 0;"">Is there a person in this image?</p>
                    </div>
                </div>","0","main_experiment_trial","ten","saving_a_cat_causal","causal_sequence","chronological","","","","","","",""
"","","","","","html-keyboard-response","121","283342","0.0-121.0","B2B3D8E4DFD14AA997DA4526F6779F8A","019cfa5d-0386-7ee1-91c6-37b3271461a8","019cfa3a-388e-72ab-ad58-bdeb258f96cd","","null","<div style=""background-color: white; width: 100vw; height: 100vh;""></div>","null","","","","","","","","","","","",""
"","","","","","html-keyboard-response","122","284356","0.0-122.0","B2B3D8E4DFD14AA997DA4526F6779F8A","019cfa5d-0386-7ee1-91c6-37b3271461a8","019cfa3a-388e-72ab-ad58-bdeb258f96cd","","null","
                <div class=""stimulus-container"">
                    <img src=""images/semantic_sequence/using_technology_semantic/using_technology_semantic_1.png"" class=""exp-image"">
                    <div class=""question-area""></div> 
                </div>","null","","","","","","","","","","","",""
"","","","","","html-button-response","123","285600","0.0-123.0","B2B3D8E4DFD14AA997DA4526F6779F8A","019cfa5d-0386-7ee1-91c6-37b3271461a8","019cfa3a-388e-72ab-ad58-bdeb258f96cd","","1241","
                <div class=""stimulus-container"">
                    <img src=""images/semantic_sequence/using_technology_semantic/using_technology_semantic_1.png"" class=""exp-image"">
                    <div class=""question-area"">
                        <p style=""font-size: 20px; font-weight: bold; margin: 0;"">Is there a person in this image?</p>
                    </div>
                </div>","0","main_experiment_trial","1","using_technology_semantic","semantic_sequence","chronological","","","","","","",""
"","","","","","html-keyboard-response","124","286610","0.0-124.0","B2B3D8E4DFD14AA997DA4526F6779F8A","019cfa5d-0386-7ee1-91c6-37b3271461a8","019cfa3a-388e-72ab-ad58-bdeb258f96cd","","null","
                <div class=""stimulus-container"">
                    <img src=""images/semantic_sequence/using_technology_semantic/using_technology_semantic_2.png"" class=""exp-image"">
                    <div class=""question-area""></div> 
                </div>","null","","","","","","","","","","","",""
"","","","","","html-button-response","125","286954","0.0-125.0","B2B3D8E4DFD14AA997DA4526F6779F8A","019cfa5d-0386-7ee1-91c6-37b3271461a8","019cfa3a-388e-72ab-ad58-bdeb258f96cd","","342","
                <div class=""stimulus-container"">
                    <img src=""images/semantic_sequence/using_technology_semantic/using_technology_semantic_2.png"" class=""exp-image"">
                    <div class=""question-area"">
                        <p style=""font-size: 20px; font-weight: bold; margin: 0;"">Is there a person in this image?</p>
                    </div>
                </div>","0","main_experiment_trial","2","using_technology_semantic","semantic_sequence","chronological","","","","","","",""
"","","","","","html-keyboard-response","126","287971","0.0-126.0","B2B3D8E4DFD14AA997DA4526F6779F8A","019cfa5d-0386-7ee1-91c6-37b3271461a8","019cfa3a-388e-72ab-ad58-bdeb258f96cd","","null","
                <div class=""stimulus-container"">
                    <img src=""images/semantic_sequence/using_technology_semantic/using_technology_semantic_3.png"" class=""exp-image"">
                    <div class=""question-area""></div> 
                </div>","null","","","","","","","","","","","",""
"","","","","","html-button-response","127","288344","0.0-127.0","B2B3D8E4DFD14AA997DA4526F6779F8A","019cfa5d-0386-7ee1-91c6-37b3271461a8","019cfa3a-388e-72ab-ad58-bdeb258f96cd","","371","
                <div class=""stimulus-container"">
                    <img src=""images/semantic_sequence/using_technology_semantic/using_technology_semantic_3.png"" class=""exp-image"">
                    <div class=""question-area"">
                        <p style=""font-size: 20px; font-weight: bold; margin: 0;"">Is there a person in this image?</p>
                    </div>
                </div>","0","main_experiment_trial","3","using_technology_semantic","semantic_sequence","chronological","","","","","","",""
"","","","","","html-keyboard-response","128","289358","0.0-128.0","B2B3D8E4DFD14AA997DA4526F6779F8A","019cfa5d-0386-7ee1-91c6-37b3271461a8","019cfa3a-388e-72ab-ad58-bdeb258f96cd","","null","
                <div class=""stimulus-container"">
                    <img src=""images/semantic_sequence/using_technology_semantic/using_technology_semantic_4.png"" class=""exp-image"">
                    <div class=""question-area""></div> 
                </div>","null","","","","","","","","","","","",""
"","","","","","html-button-response","129","289782","0.0-129.0","B2B3D8E4DFD14AA997DA4526F6779F8A","019cfa5d-0386-7ee1-91c6-37b3271461a8","019cfa3a-388e-72ab-ad58-bdeb258f96cd","","423","
                <div class=""stimulus-container"">
                    <img src=""images/semantic_sequence/using_technology_semantic/using_technology_semantic_4.png"" class=""exp-image"">
                    <div class=""question-area"">
                        <p style=""font-size: 20px; font-weight: bold; margin: 0;"">Is there a person in this image?</p>
                    </div>
                </div>","0","main_experiment_trial","4","using_technology_semantic","semantic_sequence","chronological","","","","","","",""
"","","","","","html-keyboard-response","130","290800","0.0-130.0","B2B3D8E4DFD14AA997DA4526F6779F8A","019cfa5d-0386-7ee1-91c6-37b3271461a8","019cfa3a-388e-72ab-ad58-bdeb258f96cd","","null","
                <div class=""stimulus-container"">
                    <img src=""images/semantic_sequence/using_technology_semantic/using_technology_semantic_5.png"" class=""exp-image"">
                    <div class=""question-area""></div> 
                </div>","null","","","","","","","","","","","",""
"","","","","","html-button-response","131","291144","0.0-131.0","B2B3D8E4DFD14AA997DA4526F6779F8A","019cfa5d-0386-7ee1-91c6-37b3271461a8","019cfa3a-388e-72ab-ad58-bdeb258f96cd","","342","
                <div class=""stimulus-container"">
                    <img src=""images/semantic_sequence/using_technology_semantic/using_technology_semantic_5.png"" class=""exp-image"">
                    <div class=""question-area"">
                        <p style=""font-size: 20px; font-weight: bold; margin: 0;"">Is there a person in this image?</p>
                    </div>
                </div>","0","main_experiment_trial","5","using_technology_semantic","semantic_sequence","chronological","","","","","","",""
"","","","","","html-keyboard-response","132","292148","0.0-132.0","B2B3D8E4DFD14AA997DA4526F6779F8A","019cfa5d-0386-7ee1-91c6-37b3271461a8","019cfa3a-388e-72ab-ad58-bdeb258f96cd","","null","
                <div class=""stimulus-container"">
                    <img src=""images/semantic_sequence/using_technology_semantic/using_technology_semantic_6.png"" class=""exp-image"">
                    <div class=""question-area""></div> 
                </div>","null","","","","","","","","","","","",""
"","","","","","html-button-response","133","292563","0.0-133.0","B2B3D8E4DFD14AA997DA4526F6779F8A","019cfa5d-0386-7ee1-91c6-37b3271461a8","019cfa3a-388e-72ab-ad58-bdeb258f96cd","","413","
                <div class=""stimulus-container"">
                    <img src=""images/semantic_sequence/using_technology_semantic/using_technology_semantic_6.png"" class=""exp-image"">
                    <div class=""question-area"">
                        <p style=""font-size: 20px; font-weight: bold; margin: 0;"">Is there a person in this image?</p>
                    </div>
                </div>","0","main_experiment_trial","6","using_technology_semantic","semantic_sequence","chronological","","","","","","",""
"","","","","","html-keyboard-response","134","293582","0.0-134.0","B2B3D8E4DFD14AA997DA4526F6779F8A","019cfa5d-0386-7ee1-91c6-37b3271461a8","019cfa3a-388e-72ab-ad58-bdeb258f96cd","","null","
                <div class=""stimulus-container"">
                    <img src=""images/semantic_sequence/using_technology_semantic/using_technology_semantic_7.png"" class=""exp-image"">
                    <div class=""question-area""></div> 
                </div>","null","","","","","","","","","","","",""
"","","","","","html-button-response","135","294427","0.0-135.0","B2B3D8E4DFD14AA997DA4526F6779F8A","019cfa5d-0386-7ee1-91c6-37b3271461a8","019cfa3a-388e-72ab-ad58-bdeb258f96cd","","843","
                <div class=""stimulus-container"">
                    <img src=""images/semantic_sequence/using_technology_semantic/using_technology_semantic_7.png"" class=""exp-image"">
                    <div class=""question-area"">
                        <p style=""font-size: 20px; font-weight: bold; margin: 0;"">Is there a person in this image?</p>
                    </div>
                </div>","0","main_experiment_trial","7","using_technology_semantic","semantic_sequence","chronological","","","","","","",""
"","","","","","html-keyboard-response","136","295440","0.0-136.0","B2B3D8E4DFD14AA997DA4526F6779F8A","019cfa5d-0386-7ee1-91c6-37b3271461a8","019cfa3a-388e-72ab-ad58-bdeb258f96cd","","null","
                <div class=""stimulus-container"">
                    <img src=""images/semantic_sequence/using_technology_semantic/using_technology_semantic_8.png"" class=""exp-image"">
                    <div class=""question-area""></div> 
                </div>","null","","","","","","","","","","","",""
"","","","","","html-button-response","137","295772","0.0-137.0","B2B3D8E4DFD14AA997DA4526F6779F8A","019cfa5d-0386-7ee1-91c6-37b3271461a8","019cfa3a-388e-72ab-ad58-bdeb258f96cd","","330","
                <div class=""stimulus-container"">
                    <img src=""images/semantic_sequence/using_technology_semantic/using_technology_semantic_8.png"" class=""exp-image"">
                    <div class=""question-area"">
                        <p style=""font-size: 20px; font-weight: bold; margin: 0;"">Is there a person in this image?</p>
                    </div>
                </div>","0","main_experiment_trial","8","using_technology_semantic","semantic_sequence","chronological","","","","","","",""
"","","","","","html-keyboard-response","138","296782","0.0-138.0","B2B3D8E4DFD14AA997DA4526F6779F8A","019cfa5d-0386-7ee1-91c6-37b3271461a8","019cfa3a-388e-72ab-ad58-bdeb258f96cd","","null","
                <div class=""stimulus-container"">
                    <img src=""images/semantic_sequence/using_technology_semantic/using_technology_semantic_9.png"" class=""exp-image"">
                    <div class=""question-area""></div> 
                </div>","null","","","","","","","","","","","",""
"","","","","","html-button-response","139","297253","0.0-139.0","B2B3D8E4DFD14AA997DA4526F6779F8A","019cfa5d-0386-7ee1-91c6-37b3271461a8","019cfa3a-388e-72ab-ad58-bdeb258f96cd","","469","
                <div class=""stimulus-container"">
                    <img src=""images/semantic_sequence/using_technology_semantic/using_technology_semantic_9.png"" class=""exp-image"">
                    <div class=""question-area"">
                        <p style=""font-size: 20px; font-weight: bold; margin: 0;"">Is there a person in this image?</p>
                    </div>
                </div>","0","main_experiment_trial","9","using_technology_semantic","semantic_sequence","chronological","","","","","","",""
"","","","","","html-keyboard-response","140","298263","0.0-140.0","B2B3D8E4DFD14AA997DA4526F6779F8A","019cfa5d-0386-7ee1-91c6-37b3271461a8","019cfa3a-388e-72ab-ad58-bdeb258f96cd","","null","
                <div class=""stimulus-container"">
                    <img src=""images/semantic_sequence/using_technology_semantic/using_technology_semantic_ten.png"" class=""exp-image"">
                    <div class=""question-area""></div> 
                </div>","null","","","","","","","","","","","",""
"","","","","","html-button-response","141","298532","0.0-141.0","B2B3D8E4DFD14AA997DA4526F6779F8A","019cfa5d-0386-7ee1-91c6-37b3271461a8","019cfa3a-388e-72ab-ad58-bdeb258f96cd","","267","
                <div class=""stimulus-container"">
                    <img src=""images/semantic_sequence/using_technology_semantic/using_technology_semantic_ten.png"" class=""exp-image"">
                    <div class=""question-area"">
                        <p style=""font-size: 20px; font-weight: bold; margin: 0;"">Is there a person in this image?</p>
                    </div>
                </div>","0","main_experiment_trial","ten","using_technology_semantic","semantic_sequence","chronological","","","","","","",""
"","","","","","html-keyboard-response","142","303535","0.0-142.0","B2B3D8E4DFD14AA997DA4526F6779F8A","019cfa5d-0386-7ee1-91c6-37b3271461a8","019cfa3a-388e-72ab-ad58-bdeb258f96cd","","null","<div style=""background-color: white; width: 100vw; height: 100vh;""></div>","null","","","","","","","","","","","",""
"","","","","","html-keyboard-response","143","304549","0.0-143.0","B2B3D8E4DFD14AA997DA4526F6779F8A","019cfa5d-0386-7ee1-91c6-37b3271461a8","019cfa3a-388e-72ab-ad58-bdeb258f96cd","","null","
                <div class=""stimulus-container"">
                    <img src=""images/semantic_sequence/creative_activities_semantic/creative_activities_semantic_1.png"" class=""exp-image"">
                    <div class=""question-area""></div> 
                </div>","null","","","","","","","","","","","",""
"","","","","","html-button-response","144","305969","0.0-144.0","B2B3D8E4DFD14AA997DA4526F6779F8A","019cfa5d-0386-7ee1-91c6-37b3271461a8","019cfa3a-388e-72ab-ad58-bdeb258f96cd","","1418","
                <div class=""stimulus-container"">
                    <img src=""images/semantic_sequence/creative_activities_semantic/creative_activities_semantic_1.png"" class=""exp-image"">
                    <div class=""question-area"">
                        <p style=""font-size: 20px; font-weight: bold; margin: 0;"">Is there a person in this image?</p>
                    </div>
                </div>","0","main_experiment_trial","1","creative_activities_semantic","semantic_sequence","chronological","","","","","","",""
"","","","","","html-keyboard-response","145","306976","0.0-145.0","B2B3D8E4DFD14AA997DA4526F6779F8A","019cfa5d-0386-7ee1-91c6-37b3271461a8","019cfa3a-388e-72ab-ad58-bdeb258f96cd","","null","
                <div class=""stimulus-container"">
                    <img src=""images/semantic_sequence/creative_activities_semantic/creative_activities_semantic_2.png"" class=""exp-image"">
                    <div class=""question-area""></div> 
                </div>","null","","","","","","","","","","","",""
"","","","","","html-button-response","146","307627","0.0-146.0","B2B3D8E4DFD14AA997DA4526F6779F8A","019cfa5d-0386-7ee1-91c6-37b3271461a8","019cfa3a-388e-72ab-ad58-bdeb258f96cd","","650","
                <div class=""stimulus-container"">
                    <img src=""images/semantic_sequence/creative_activities_semantic/creative_activities_semantic_2.png"" class=""exp-image"">
                    <div class=""question-area"">
                        <p style=""font-size: 20px; font-weight: bold; margin: 0;"">Is there a person in this image?</p>
                    </div>
                </div>","0","main_experiment_trial","2","creative_activities_semantic","semantic_sequence","chronological","","","","","","",""
"","","","","","html-keyboard-response","147","308630","0.0-147.0","B2B3D8E4DFD14AA997DA4526F6779F8A","019cfa5d-0386-7ee1-91c6-37b3271461a8","019cfa3a-388e-72ab-ad58-bdeb258f96cd","","null","
                <div class=""stimulus-container"">
                    <img src=""images/semantic_sequence/creative_activities_semantic/creative_activities_semantic_3.png"" class=""exp-image"">
                    <div class=""question-area""></div> 
                </div>","null","","","","","","","","","","","",""
"","","","","","html-button-response","148","309019","0.0-148.0","B2B3D8E4DFD14AA997DA4526F6779F8A","019cfa5d-0386-7ee1-91c6-37b3271461a8","019cfa3a-388e-72ab-ad58-bdeb258f96cd","","387","
                <div class=""stimulus-container"">
                    <img src=""images/semantic_sequence/creative_activities_semantic/creative_activities_semantic_3.png"" class=""exp-image"">
                    <div class=""question-area"">
                        <p style=""font-size: 20px; font-weight: bold; margin: 0;"">Is there a person in this image?</p>
                    </div>
                </div>","0","main_experiment_trial","3","creative_activities_semantic","semantic_sequence","chronological","","","","","","",""
"","","","","","html-keyboard-response","149","310035","0.0-149.0","B2B3D8E4DFD14AA997DA4526F6779F8A","019cfa5d-0386-7ee1-91c6-37b3271461a8","019cfa3a-388e-72ab-ad58-bdeb258f96cd","","null","
                <div class=""stimulus-container"">
                    <img src=""images/semantic_sequence/creative_activities_semantic/creative_activities_semantic_4.png"" class=""exp-image"">
                    <div class=""question-area""></div> 
                </div>","null","","","","","","","","","","","",""
"","","","","","html-button-response","150","310351","0.0-150.0","B2B3D8E4DFD14AA997DA4526F6779F8A","019cfa5d-0386-7ee1-91c6-37b3271461a8","019cfa3a-388e-72ab-ad58-bdeb258f96cd","","314","
                <div class=""stimulus-container"">
                    <img src=""images/semantic_sequence/creative_activities_semantic/creative_activities_semantic_4.png"" class=""exp-image"">
                    <div class=""question-area"">
                        <p style=""font-size: 20px; font-weight: bold; margin: 0;"">Is there a person in this image?</p>
                    </div>
                </div>","0","main_experiment_trial","4","creative_activities_semantic","semantic_sequence","chronological","","","","","","",""
"","","","","","html-keyboard-response","151","311367","0.0-151.0","B2B3D8E4DFD14AA997DA4526F6779F8A","019cfa5d-0386-7ee1-91c6-37b3271461a8","019cfa3a-388e-72ab-ad58-bdeb258f96cd","","null","
                <div class=""stimulus-container"">
                    <img src=""images/semantic_sequence/creative_activities_semantic/creative_activities_semantic_5.png"" class=""exp-image"">
                    <div class=""question-area""></div> 
                </div>","null","","","","","","","","","","","",""
"","","","","","html-button-response","152","311827","0.0-152.0","B2B3D8E4DFD14AA997DA4526F6779F8A","019cfa5d-0386-7ee1-91c6-37b3271461a8","019cfa3a-388e-72ab-ad58-bdeb258f96cd","","458","
                <div class=""stimulus-container"">
                    <img src=""images/semantic_sequence/creative_activities_semantic/creative_activities_semantic_5.png"" class=""exp-image"">
                    <div class=""question-area"">
                        <p style=""font-size: 20px; font-weight: bold; margin: 0;"">Is there a person in this image?</p>
                    </div>
                </div>","0","main_experiment_trial","5","creative_activities_semantic","semantic_sequence","chronological","","","","","","",""
"","","","","","html-keyboard-response","153","312828","0.0-153.0","B2B3D8E4DFD14AA997DA4526F6779F8A","019cfa5d-0386-7ee1-91c6-37b3271461a8","019cfa3a-388e-72ab-ad58-bdeb258f96cd","","null","
                <div class=""stimulus-container"">
                    <img src=""images/semantic_sequence/creative_activities_semantic/creative_activities_semantic_6.png"" class=""exp-image"">
                    <div class=""question-area""></div> 
                </div>","null","","","","","","","","","","","",""
"","","","","","html-button-response","154","313179","0.0-154.0","B2B3D8E4DFD14AA997DA4526F6779F8A","019cfa5d-0386-7ee1-91c6-37b3271461a8","019cfa3a-388e-72ab-ad58-bdeb258f96cd","","349","
                <div class=""stimulus-container"">
                    <img src=""images/semantic_sequence/creative_activities_semantic/creative_activities_semantic_6.png"" class=""exp-image"">
                    <div class=""question-area"">
                        <p style=""font-size: 20px; font-weight: bold; margin: 0;"">Is there a person in this image?</p>
                    </div>
                </div>","0","main_experiment_trial","6","creative_activities_semantic","semantic_sequence","chronological","","","","","","",""
"","","","","","html-keyboard-response","155","314187","0.0-155.0","B2B3D8E4DFD14AA997DA4526F6779F8A","019cfa5d-0386-7ee1-91c6-37b3271461a8","019cfa3a-388e-72ab-ad58-bdeb258f96cd","","null","
                <div class=""stimulus-container"">
                    <img src=""images/semantic_sequence/creative_activities_semantic/creative_activities_semantic_7.png"" class=""exp-image"">
                    <div class=""question-area""></div> 
                </div>","null","","","","","","","","","","","",""
"","","","","","html-button-response","156","314590","0.0-156.0","B2B3D8E4DFD14AA997DA4526F6779F8A","019cfa5d-0386-7ee1-91c6-37b3271461a8","019cfa3a-388e-72ab-ad58-bdeb258f96cd","","399","
                <div class=""stimulus-container"">
                    <img src=""images/semantic_sequence/creative_activities_semantic/creative_activities_semantic_7.png"" class=""exp-image"">
                    <div class=""question-area"">
                        <p style=""font-size: 20px; font-weight: bold; margin: 0;"">Is there a person in this image?</p>
                    </div>
                </div>","0","main_experiment_trial","7","creative_activities_semantic","semantic_sequence","chronological","","","","","","",""
"","","","","","html-keyboard-response","157","315592","0.0-157.0","B2B3D8E4DFD14AA997DA4526F6779F8A","019cfa5d-0386-7ee1-91c6-37b3271461a8","019cfa3a-388e-72ab-ad58-bdeb258f96cd","","null","
                <div class=""stimulus-container"">
                    <img src=""images/semantic_sequence/creative_activities_semantic/creative_activities_semantic_8.png"" class=""exp-image"">
                    <div class=""question-area""></div> 
                </div>","null","","","","","","","","","","","",""
"","","","","","html-button-response","158","315930","0.0-158.0","B2B3D8E4DFD14AA997DA4526F6779F8A","019cfa5d-0386-7ee1-91c6-37b3271461a8","019cfa3a-388e-72ab-ad58-bdeb258f96cd","","335","
                <div class=""stimulus-container"">
                    <img src=""images/semantic_sequence/creative_activities_semantic/creative_activities_semantic_8.png"" class=""exp-image"">
                    <div class=""question-area"">
                        <p style=""font-size: 20px; font-weight: bold; margin: 0;"">Is there a person in this image?</p>
                    </div>
                </div>","0","main_experiment_trial","8","creative_activities_semantic","semantic_sequence","chronological","","","","","","",""
"","","","","","html-keyboard-response","159","316937","0.0-159.0","B2B3D8E4DFD14AA997DA4526F6779F8A","019cfa5d-0386-7ee1-91c6-37b3271461a8","019cfa3a-388e-72ab-ad58-bdeb258f96cd","","null","
                <div class=""stimulus-container"">
                    <img src=""images/semantic_sequence/creative_activities_semantic/creative_activities_semantic_9.png"" class=""exp-image"">
                    <div class=""question-area""></div> 
                </div>","null","","","","","","","","","","","",""
"","","","","","html-button-response","160","318079","0.0-160.0","B2B3D8E4DFD14AA997DA4526F6779F8A","019cfa5d-0386-7ee1-91c6-37b3271461a8","019cfa3a-388e-72ab-ad58-bdeb258f96cd","","1140","
                <div class=""stimulus-container"">
                    <img src=""images/semantic_sequence/creative_activities_semantic/creative_activities_semantic_9.png"" class=""exp-image"">
                    <div class=""question-area"">
                        <p style=""font-size: 20px; font-weight: bold; margin: 0;"">Is there a person in this image?</p>
                    </div>
                </div>","0","main_experiment_trial","9","creative_activities_semantic","semantic_sequence","chronological","","","","","","",""
"","","","","","html-keyboard-response","161","319096","0.0-161.0","B2B3D8E4DFD14AA997DA4526F6779F8A","019cfa5d-0386-7ee1-91c6-37b3271461a8","019cfa3a-388e-72ab-ad58-bdeb258f96cd","","null","
                <div class=""stimulus-container"">
                    <img src=""images/semantic_sequence/creative_activities_semantic/creative_activities_semantic_ten.png"" class=""exp-image"">
                    <div class=""question-area""></div> 
                </div>","null","","","","","","","","","","","",""
"","","","","","html-button-response","162","319488","0.0-162.0","B2B3D8E4DFD14AA997DA4526F6779F8A","019cfa5d-0386-7ee1-91c6-37b3271461a8","019cfa3a-388e-72ab-ad58-bdeb258f96cd","","389","
                <div class=""stimulus-container"">
                    <img src=""images/semantic_sequence/creative_activities_semantic/creative_activities_semantic_ten.png"" class=""exp-image"">
                    <div class=""question-area"">
                        <p style=""font-size: 20px; font-weight: bold; margin: 0;"">Is there a person in this image?</p>
                    </div>
                </div>","0","main_experiment_trial","ten","creative_activities_semantic","semantic_sequence","chronological","","","","","","",""
"","","","","","html-keyboard-response","163","324503","0.0-163.0","B2B3D8E4DFD14AA997DA4526F6779F8A","019cfa5d-0386-7ee1-91c6-37b3271461a8","019cfa3a-388e-72ab-ad58-bdeb258f96cd","","null","<div style=""background-color: white; width: 100vw; height: 100vh;""></div>","null","","","","","","","","","","","",""
"","","","","","html-keyboard-response","164","325511","0.0-164.0","B2B3D8E4DFD14AA997DA4526F6779F8A","019cfa5d-0386-7ee1-91c6-37b3271461a8","019cfa3a-388e-72ab-ad58-bdeb258f96cd","","null","
                <div class=""stimulus-container"">
                    <img src=""images/semantic_sequence/cat_care_semantic/cat_care_semantic_1.png"" class=""exp-image"">
                    <div class=""question-area""></div> 
                </div>","null","","","","","","","","","","","",""
"","","","","","html-button-response","165","326267","0.0-165.0","B2B3D8E4DFD14AA997DA4526F6779F8A","019cfa5d-0386-7ee1-91c6-37b3271461a8","019cfa3a-388e-72ab-ad58-bdeb258f96cd","","754","
                <div class=""stimulus-container"">
                    <img src=""images/semantic_sequence/cat_care_semantic/cat_care_semantic_1.png"" class=""exp-image"">
                    <div class=""question-area"">
                        <p style=""font-size: 20px; font-weight: bold; margin: 0;"">Is there a person in this image?</p>
                    </div>
                </div>","0","main_experiment_trial","1","cat_care_semantic","semantic_sequence","chronological","","","","","","",""
"","","","","","html-keyboard-response","166","327279","0.0-166.0","B2B3D8E4DFD14AA997DA4526F6779F8A","019cfa5d-0386-7ee1-91c6-37b3271461a8","019cfa3a-388e-72ab-ad58-bdeb258f96cd","","null","
                <div class=""stimulus-container"">
                    <img src=""images/semantic_sequence/cat_care_semantic/cat_care_semantic_2.png"" class=""exp-image"">
                    <div class=""question-area""></div> 
                </div>","null","","","","","","","","","","","",""
"","","","","","html-button-response","167","328532","0.0-167.0","B2B3D8E4DFD14AA997DA4526F6779F8A","019cfa5d-0386-7ee1-91c6-37b3271461a8","019cfa3a-388e-72ab-ad58-bdeb258f96cd","","1250","
                <div class=""stimulus-container"">
                    <img src=""images/semantic_sequence/cat_care_semantic/cat_care_semantic_2.png"" class=""exp-image"">
                    <div class=""question-area"">
                        <p style=""font-size: 20px; font-weight: bold; margin: 0;"">Is there a person in this image?</p>
                    </div>
                </div>","0","main_experiment_trial","2","cat_care_semantic","semantic_sequence","chronological","","","","","","",""
"","","","","","html-keyboard-response","168","329545","0.0-168.0","B2B3D8E4DFD14AA997DA4526F6779F8A","019cfa5d-0386-7ee1-91c6-37b3271461a8","019cfa3a-388e-72ab-ad58-bdeb258f96cd","","null","
                <div class=""stimulus-container"">
                    <img src=""images/semantic_sequence/cat_care_semantic/cat_care_semantic_3.png"" class=""exp-image"">
                    <div class=""question-area""></div> 
                </div>","null","","","","","","","","","","","",""
"","","","","","html-button-response","169","330182","0.0-169.0","B2B3D8E4DFD14AA997DA4526F6779F8A","019cfa5d-0386-7ee1-91c6-37b3271461a8","019cfa3a-388e-72ab-ad58-bdeb258f96cd","","634","
                <div class=""stimulus-container"">
                    <img src=""images/semantic_sequence/cat_care_semantic/cat_care_semantic_3.png"" class=""exp-image"">
                    <div class=""question-area"">
                        <p style=""font-size: 20px; font-weight: bold; margin: 0;"">Is there a person in this image?</p>
                    </div>
                </div>","0","main_experiment_trial","3","cat_care_semantic","semantic_sequence","chronological","","","","","","",""
"","","","","","html-keyboard-response","170","331185","0.0-170.0","B2B3D8E4DFD14AA997DA4526F6779F8A","019cfa5d-0386-7ee1-91c6-37b3271461a8","019cfa3a-388e-72ab-ad58-bdeb258f96cd","","null","
                <div class=""stimulus-container"">
                    <img src=""images/semantic_sequence/cat_care_semantic/cat_care_semantic_4.png"" class=""exp-image"">
                    <div class=""question-area""></div> 
                </div>","null","","","","","","","","","","","",""
"","","","","","html-button-response","171","331848","0.0-171.0","B2B3D8E4DFD14AA997DA4526F6779F8A","019cfa5d-0386-7ee1-91c6-37b3271461a8","019cfa3a-388e-72ab-ad58-bdeb258f96cd","","660","
                <div class=""stimulus-container"">
                    <img src=""images/semantic_sequence/cat_care_semantic/cat_care_semantic_4.png"" class=""exp-image"">
                    <div class=""question-area"">
                        <p style=""font-size: 20px; font-weight: bold; margin: 0;"">Is there a person in this image?</p>
                    </div>
                </div>","0","main_experiment_trial","4","cat_care_semantic","semantic_sequence","chronological","","","","","","",""
"","","","","","html-keyboard-response","172","332851","0.0-172.0","B2B3D8E4DFD14AA997DA4526F6779F8A","019cfa5d-0386-7ee1-91c6-37b3271461a8","019cfa3a-388e-72ab-ad58-bdeb258f96cd","","null","
                <div class=""stimulus-container"">
                    <img src=""images/semantic_sequence/cat_care_semantic/cat_care_semantic_5.png"" class=""exp-image"">
                    <div class=""question-area""></div> 
                </div>","null","","","","","","","","","","","",""
"","","","","","html-button-response","173","333457","0.0-173.0","B2B3D8E4DFD14AA997DA4526F6779F8A","019cfa5d-0386-7ee1-91c6-37b3271461a8","019cfa3a-388e-72ab-ad58-bdeb258f96cd","","604","
                <div class=""stimulus-container"">
                    <img src=""images/semantic_sequence/cat_care_semantic/cat_care_semantic_5.png"" class=""exp-image"">
                    <div class=""question-area"">
                        <p style=""font-size: 20px; font-weight: bold; margin: 0;"">Is there a person in this image?</p>
                    </div>
                </div>","0","main_experiment_trial","5","cat_care_semantic","semantic_sequence","chronological","","","","","","",""
"","","","","","html-keyboard-response","174","334462","0.0-174.0","B2B3D8E4DFD14AA997DA4526F6779F8A","019cfa5d-0386-7ee1-91c6-37b3271461a8","019cfa3a-388e-72ab-ad58-bdeb258f96cd","","null","
                <div class=""stimulus-container"">
                    <img src=""images/semantic_sequence/cat_care_semantic/cat_care_semantic_6.png"" class=""exp-image"">
                    <div class=""question-area""></div> 
                </div>","null","","","","","","","","","","","",""
"","","","","","html-button-response","175","335049","0.0-175.0","B2B3D8E4DFD14AA997DA4526F6779F8A","019cfa5d-0386-7ee1-91c6-37b3271461a8","019cfa3a-388e-72ab-ad58-bdeb258f96cd","","585","
                <div class=""stimulus-container"">
                    <img src=""images/semantic_sequence/cat_care_semantic/cat_care_semantic_6.png"" class=""exp-image"">
                    <div class=""question-area"">
                        <p style=""font-size: 20px; font-weight: bold; margin: 0;"">Is there a person in this image?</p>
                    </div>
                </div>","0","main_experiment_trial","6","cat_care_semantic","semantic_sequence","chronological","","","","","","",""
"","","","","","html-keyboard-response","176","336062","0.0-176.0","B2B3D8E4DFD14AA997DA4526F6779F8A","019cfa5d-0386-7ee1-91c6-37b3271461a8","019cfa3a-388e-72ab-ad58-bdeb258f96cd","","null","
                <div class=""stimulus-container"">
                    <img src=""images/semantic_sequence/cat_care_semantic/cat_care_semantic_7.png"" class=""exp-image"">
                    <div class=""question-area""></div> 
                </div>","null","","","","","","","","","","","",""
"","","","","","html-button-response","177","336658","0.0-177.0","B2B3D8E4DFD14AA997DA4526F6779F8A","019cfa5d-0386-7ee1-91c6-37b3271461a8","019cfa3a-388e-72ab-ad58-bdeb258f96cd","","594","
                <div class=""stimulus-container"">
                    <img src=""images/semantic_sequence/cat_care_semantic/cat_care_semantic_7.png"" class=""exp-image"">
                    <div class=""question-area"">
