"success","timeout","failed_images","failed_audio","failed_video","trial_type","trial_index","time_elapsed","internal_node_id","subject_id","study_id","session_id","view_history","rt","stimulus","response","task","image_index","folder","sequence_type","valuable_image_index","reward_type","chosen_image_index","target_X","correct_choice"
"true","false","[]","[]","[]","preload","0","1805","0.0-0.0","E57DD25D89CF498BB27B6162FD394EDB","019cf0ad-5d23-7c9c-84ee-cb920c1fc9f9","019cf037-5203-781a-b900-108ccb1cab86","","","","","","","","","","","","",""
"","","","","","instructions","1","10380","0.0-1.0","E57DD25D89CF498BB27B6162FD394EDB","019cf0ad-5d23-7c9c-84ee-cb920c1fc9f9","019cf037-5203-781a-b900-108ccb1cab86","[{""page_index"":0,""viewing_time"":8575}]","8575","","","","","","","","","","",""
"","","","","","instructions","2","34854","0.0-2.0","E57DD25D89CF498BB27B6162FD394EDB","019cf0ad-5d23-7c9c-84ee-cb920c1fc9f9","019cf037-5203-781a-b900-108ccb1cab86","[{""page_index"":0,""viewing_time"":24473}]","24474","","","","","","","","","","",""
"true","","","","","fullscreen","3","38765","0.0-3.0","E57DD25D89CF498BB27B6162FD394EDB","019cf0ad-5d23-7c9c-84ee-cb920c1fc9f9","019cf037-5203-781a-b900-108ccb1cab86","","2909","","","","","","","","","","",""
"","","","","","instructions","4","42374","0.0-4.0","E57DD25D89CF498BB27B6162FD394EDB","019cf0ad-5d23-7c9c-84ee-cb920c1fc9f9","019cf037-5203-781a-b900-108ccb1cab86","[{""page_index"":0,""viewing_time"":3609}]","3609","","","","","","","","","","",""
"","","","","","instructions","5","45979","0.0-5.0","E57DD25D89CF498BB27B6162FD394EDB","019cf0ad-5d23-7c9c-84ee-cb920c1fc9f9","019cf037-5203-781a-b900-108ccb1cab86","[{""page_index"":0,""viewing_time"":3602}]","3602","","","","","","","","","","",""
"","","","","","html-keyboard-response","6","50000","0.0-6.0","E57DD25D89CF498BB27B6162FD394EDB","019cf0ad-5d23-7c9c-84ee-cb920c1fc9f9","019cf037-5203-781a-b900-108ccb1cab86","","null","
                <div class=""stimulus-container"">
                    <img src=""images/instructions/movie_1.png"" class=""exp-image"">
                    <div class=""question-area""></div> 
                </div>","null","","","","","","","","",""
"","","","","","html-button-response","7","53002","0.0-7.0","E57DD25D89CF498BB27B6162FD394EDB","019cf0ad-5d23-7c9c-84ee-cb920c1fc9f9","019cf037-5203-781a-b900-108ccb1cab86","","null","
                <div class=""stimulus-container"">
                    <img src=""images/instructions/movie_1.png"" class=""exp-image"">
                    <div class=""question-area"">
                        <p style=""font-size: 20px; font-weight: bold; margin: 0;"">Was there a person in this image?</p>
                    </div>
                </div>","null","example_question","1","","","","","","",""
"","","","","","html-keyboard-response","8","57017","0.0-8.0","E57DD25D89CF498BB27B6162FD394EDB","019cf0ad-5d23-7c9c-84ee-cb920c1fc9f9","019cf037-5203-781a-b900-108ccb1cab86","","null","
                <div class=""stimulus-container"">
                    <img src=""images/instructions/movie_2.png"" class=""exp-image"">
                    <div class=""question-area""></div> 
                </div>","null","","","","","","","","",""
"","","","","","html-button-response","9","60030","0.0-9.0","E57DD25D89CF498BB27B6162FD394EDB","019cf0ad-5d23-7c9c-84ee-cb920c1fc9f9","019cf037-5203-781a-b900-108ccb1cab86","","null","
                <div class=""stimulus-container"">
                    <img src=""images/instructions/movie_2.png"" class=""exp-image"">
                    <div class=""question-area"">
                        <p style=""font-size: 20px; font-weight: bold; margin: 0;"">Was there a person in this image?</p>
                    </div>
                </div>","null","example_question","2","","","","","","",""
"","","","","","html-keyboard-response","10","64039","0.0-10.0","E57DD25D89CF498BB27B6162FD394EDB","019cf0ad-5d23-7c9c-84ee-cb920c1fc9f9","019cf037-5203-781a-b900-108ccb1cab86","","null","
                <div class=""stimulus-container"">
                    <img src=""images/instructions/movie_3.png"" class=""exp-image"">
                    <div class=""question-area""></div> 
                </div>","null","","","","","","","","",""
"","","","","","html-button-response","11","67039","0.0-11.0","E57DD25D89CF498BB27B6162FD394EDB","019cf0ad-5d23-7c9c-84ee-cb920c1fc9f9","019cf037-5203-781a-b900-108ccb1cab86","","null","
                <div class=""stimulus-container"">
                    <img src=""images/instructions/movie_3.png"" class=""exp-image"">
                    <div class=""question-area"">
                        <p style=""font-size: 20px; font-weight: bold; margin: 0;"">Was there a person in this image?</p>
                    </div>
                </div>","null","example_question","3","","","","","","",""
"","","","","","html-keyboard-response","12","71042","0.0-12.0","E57DD25D89CF498BB27B6162FD394EDB","019cf0ad-5d23-7c9c-84ee-cb920c1fc9f9","019cf037-5203-781a-b900-108ccb1cab86","","null","
                <div class=""stimulus-container"">
                    <img src=""images/instructions/movie_4.png"" class=""exp-image"">
                    <div class=""question-area""></div> 
                </div>","null","","","","","","","","",""
"","","","","","html-button-response","13","73739","0.0-13.0","E57DD25D89CF498BB27B6162FD394EDB","019cf0ad-5d23-7c9c-84ee-cb920c1fc9f9","019cf037-5203-781a-b900-108ccb1cab86","","2696","
                <div class=""stimulus-container"">
                    <img src=""images/instructions/movie_4.png"" class=""exp-image"">
                    <div class=""question-area"">
                        <p style=""font-size: 20px; font-weight: bold; margin: 0;"">Was there a person in this image?</p>
                    </div>
                </div>","0","example_question","4","","","","","","",""
"","","","","","instructions","14","75634","0.0-14.0","E57DD25D89CF498BB27B6162FD394EDB","019cf0ad-5d23-7c9c-84ee-cb920c1fc9f9","019cf037-5203-781a-b900-108ccb1cab86","[{""page_index"":0,""viewing_time"":1894}]","1895","","","","","","","","","","",""
"","","","","","instructions","15","78285","0.0-15.0","E57DD25D89CF498BB27B6162FD394EDB","019cf0ad-5d23-7c9c-84ee-cb920c1fc9f9","019cf037-5203-781a-b900-108ccb1cab86","[{""page_index"":0,""viewing_time"":2650}]","2651","","","","","","","","","","",""
"","","","","","html-keyboard-response","16","79294","0.0-16.0","E57DD25D89CF498BB27B6162FD394EDB","019cf0ad-5d23-7c9c-84ee-cb920c1fc9f9","019cf037-5203-781a-b900-108ccb1cab86","","null","<div style=""background-color: white; width: 100vw; height: 100vh;""></div>","null","","","","","","","","",""
"","","","","","html-keyboard-response","17","84296","0.0-17.0","E57DD25D89CF498BB27B6162FD394EDB","019cf0ad-5d23-7c9c-84ee-cb920c1fc9f9","019cf037-5203-781a-b900-108ccb1cab86","","null","
                <div class=""stimulus-container"">
                    <img src=""images/schematic_sequence/hotel_scheme/hotel_scheme_1.png"" class=""exp-image"">
                    <div class=""question-area""></div> 
                </div>","null","","","","","","","","",""
"","","","","","html-button-response","18","87242","0.0-18.0","E57DD25D89CF498BB27B6162FD394EDB","019cf0ad-5d23-7c9c-84ee-cb920c1fc9f9","019cf037-5203-781a-b900-108ccb1cab86","","2945","
                <div class=""stimulus-container"">
                    <img src=""images/schematic_sequence/hotel_scheme/hotel_scheme_1.png"" class=""exp-image"">
                    <div class=""question-area"">
                        <p style=""font-size: 20px; font-weight: bold; margin: 0;"">Is there a person in this image?</p>
                    </div>
                </div>","1","main_experiment_trial","1","hotel_scheme","schematic_sequence","","","","",""
"","","","","","html-keyboard-response","19","92246","0.0-19.0","E57DD25D89CF498BB27B6162FD394EDB","019cf0ad-5d23-7c9c-84ee-cb920c1fc9f9","019cf037-5203-781a-b900-108ccb1cab86","","null","
                <div class=""stimulus-container"">
                    <img src=""images/schematic_sequence/hotel_scheme/hotel_scheme_2.png"" class=""exp-image"">
                    <div class=""question-area""></div> 
                </div>","null","","","","","","","","",""
"","","","","","html-button-response","20","94803","0.0-20.0","E57DD25D89CF498BB27B6162FD394EDB","019cf0ad-5d23-7c9c-84ee-cb920c1fc9f9","019cf037-5203-781a-b900-108ccb1cab86","","2557","
                <div class=""stimulus-container"">
                    <img src=""images/schematic_sequence/hotel_scheme/hotel_scheme_2.png"" class=""exp-image"">
                    <div class=""question-area"">
                        <p style=""font-size: 20px; font-weight: bold; margin: 0;"">Is there a person in this image?</p>
                    </div>
                </div>","0","main_experiment_trial","2","hotel_scheme","schematic_sequence","","","","",""
"","","","","","html-keyboard-response","21","99805","0.0-21.0","E57DD25D89CF498BB27B6162FD394EDB","019cf0ad-5d23-7c9c-84ee-cb920c1fc9f9","019cf037-5203-781a-b900-108ccb1cab86","","null","
                <div class=""stimulus-container"">
                    <img src=""images/schematic_sequence/hotel_scheme/hotel_scheme_3.png"" class=""exp-image"">
                    <div class=""question-area""></div> 
                </div>","null","","","","","","","","",""
"","","","","","html-button-response","22","102513","0.0-22.0","E57DD25D89CF498BB27B6162FD394EDB","019cf0ad-5d23-7c9c-84ee-cb920c1fc9f9","019cf037-5203-781a-b900-108ccb1cab86","","2707","
                <div class=""stimulus-container"">
                    <img src=""images/schematic_sequence/hotel_scheme/hotel_scheme_3.png"" class=""exp-image"">
                    <div class=""question-area"">
                        <p style=""font-size: 20px; font-weight: bold; margin: 0;"">Is there a person in this image?</p>
                    </div>
                </div>","0","main_experiment_trial","3","hotel_scheme","schematic_sequence","","","","",""
"","","","","","html-keyboard-response","23","107526","0.0-23.0","E57DD25D89CF498BB27B6162FD394EDB","019cf0ad-5d23-7c9c-84ee-cb920c1fc9f9","019cf037-5203-781a-b900-108ccb1cab86","","null","
                <div class=""stimulus-container"">
                    <img src=""images/schematic_sequence/hotel_scheme/hotel_scheme_4.png"" class=""exp-image"">
                    <div class=""question-area""></div> 
                </div>","null","","","","","","","","",""
"","","","","","html-button-response","24","109274","0.0-24.0","E57DD25D89CF498BB27B6162FD394EDB","019cf0ad-5d23-7c9c-84ee-cb920c1fc9f9","019cf037-5203-781a-b900-108ccb1cab86","","1747","
                <div class=""stimulus-container"">
                    <img src=""images/schematic_sequence/hotel_scheme/hotel_scheme_4.png"" class=""exp-image"">
                    <div class=""question-area"">
                        <p style=""font-size: 20px; font-weight: bold; margin: 0;"">Is there a person in this image?</p>
                    </div>
                </div>","1","main_experiment_trial","4","hotel_scheme","schematic_sequence","","","","",""
"","","","","","html-keyboard-response","25","114279","0.0-25.0","E57DD25D89CF498BB27B6162FD394EDB","019cf0ad-5d23-7c9c-84ee-cb920c1fc9f9","019cf037-5203-781a-b900-108ccb1cab86","","null","
                <div class=""stimulus-container"">
                    <img src=""images/schematic_sequence/hotel_scheme/hotel_scheme_5.png"" class=""exp-image"">
                    <div class=""question-area""></div> 
                </div>","null","","","","","","","","",""
"","","","","","html-button-response","26","116520","0.0-26.0","E57DD25D89CF498BB27B6162FD394EDB","019cf0ad-5d23-7c9c-84ee-cb920c1fc9f9","019cf037-5203-781a-b900-108ccb1cab86","","2240","
                <div class=""stimulus-container"">
                    <img src=""images/schematic_sequence/hotel_scheme/hotel_scheme_5.png"" class=""exp-image"">
                    <div class=""question-area"">
                        <p style=""font-size: 20px; font-weight: bold; margin: 0;"">Is there a person in this image?</p>
                    </div>
                </div>","0","main_experiment_trial","5","hotel_scheme","schematic_sequence","","","","",""
"","","","","","html-keyboard-response","27","121525","0.0-27.0","E57DD25D89CF498BB27B6162FD394EDB","019cf0ad-5d23-7c9c-84ee-cb920c1fc9f9","019cf037-5203-781a-b900-108ccb1cab86","","null","
                <div class=""stimulus-container"">
                    <img src=""images/schematic_sequence/hotel_scheme/hotel_scheme_6.png"" class=""exp-image"">
                    <div class=""question-area""></div> 
                </div>","null","","","","","","","","",""
"","","","","","html-button-response","28","123205","0.0-28.0","E57DD25D89CF498BB27B6162FD394EDB","019cf0ad-5d23-7c9c-84ee-cb920c1fc9f9","019cf037-5203-781a-b900-108ccb1cab86","","1679","
                <div class=""stimulus-container"">
                    <img src=""images/schematic_sequence/hotel_scheme/hotel_scheme_6.png"" class=""exp-image"">
                    <div class=""question-area"">
                        <p style=""font-size: 20px; font-weight: bold; margin: 0;"">Is there a person in this image?</p>
                    </div>
                </div>","0","main_experiment_trial","6","hotel_scheme","schematic_sequence","","","","",""
"","","","","","html-keyboard-response","29","128220","0.0-29.0","E57DD25D89CF498BB27B6162FD394EDB","019cf0ad-5d23-7c9c-84ee-cb920c1fc9f9","019cf037-5203-781a-b900-108ccb1cab86","","null","
                <div class=""stimulus-container"">
                    <img src=""images/schematic_sequence/hotel_scheme/hotel_scheme_7.png"" class=""exp-image"">
                    <div class=""question-area""></div> 
                </div>","null","","","","","","","","",""
"","","","","","html-button-response","30","129285","0.0-30.0","E57DD25D89CF498BB27B6162FD394EDB","019cf0ad-5d23-7c9c-84ee-cb920c1fc9f9","019cf037-5203-781a-b900-108ccb1cab86","","1064","
                <div class=""stimulus-container"">
                    <img src=""images/schematic_sequence/hotel_scheme/hotel_scheme_7.png"" class=""exp-image"">
                    <div class=""question-area"">
                        <p style=""font-size: 20px; font-weight: bold; margin: 0;"">Is there a person in this image?</p>
                    </div>
                </div>","0","main_experiment_trial","7","hotel_scheme","schematic_sequence","","","","",""
"","","","","","html-keyboard-response","31","134295","0.0-31.0","E57DD25D89CF498BB27B6162FD394EDB","019cf0ad-5d23-7c9c-84ee-cb920c1fc9f9","019cf037-5203-781a-b900-108ccb1cab86","","null","
                <div class=""stimulus-container"">
                    <img src=""images/schematic_sequence/hotel_scheme/hotel_scheme_8.png"" class=""exp-image"">
                    <div class=""question-area""></div> 
                </div>","null","","","","","","","","",""
"","","","","","html-button-response","32","137297","0.0-32.0","E57DD25D89CF498BB27B6162FD394EDB","019cf0ad-5d23-7c9c-84ee-cb920c1fc9f9","019cf037-5203-781a-b900-108ccb1cab86","","null","
                <div class=""stimulus-container"">
                    <img src=""images/schematic_sequence/hotel_scheme/hotel_scheme_8.png"" class=""exp-image"">
                    <div class=""question-area"">
                        <p style=""font-size: 20px; font-weight: bold; margin: 0;"">Is there a person in this image?</p>
                    </div>
                </div>","null","main_experiment_trial","8","hotel_scheme","schematic_sequence","","","","",""
"","","","","","html-keyboard-response","33","142302","0.0-33.0","E57DD25D89CF498BB27B6162FD394EDB","019cf0ad-5d23-7c9c-84ee-cb920c1fc9f9","019cf037-5203-781a-b900-108ccb1cab86","","null","
                <div class=""stimulus-container"">
                    <img src=""images/schematic_sequence/hotel_scheme/hotel_scheme_9.png"" class=""exp-image"">
                    <div class=""question-area""></div> 
                </div>","null","","","","","","","","",""
"","","","","","html-button-response","34","144884","0.0-34.0","E57DD25D89CF498BB27B6162FD394EDB","019cf0ad-5d23-7c9c-84ee-cb920c1fc9f9","019cf037-5203-781a-b900-108ccb1cab86","","2581","
                <div class=""stimulus-container"">
                    <img src=""images/schematic_sequence/hotel_scheme/hotel_scheme_9.png"" class=""exp-image"">
                    <div class=""question-area"">
                        <p style=""font-size: 20px; font-weight: bold; margin: 0;"">Is there a person in this image?</p>
                    </div>
                </div>","0","main_experiment_trial","9","hotel_scheme","schematic_sequence","","","","",""
"","","","","","html-keyboard-response","35","149886","0.0-35.0","E57DD25D89CF498BB27B6162FD394EDB","019cf0ad-5d23-7c9c-84ee-cb920c1fc9f9","019cf037-5203-781a-b900-108ccb1cab86","","null","
                <div class=""stimulus-container"">
                    <img src=""images/schematic_sequence/hotel_scheme/hotel_scheme_ten.png"" class=""exp-image"">
                    <div class=""question-area""></div> 
                </div>","null","","","","","","","","",""
"","","","","","html-button-response","36","151984","0.0-36.0","E57DD25D89CF498BB27B6162FD394EDB","019cf0ad-5d23-7c9c-84ee-cb920c1fc9f9","019cf037-5203-781a-b900-108ccb1cab86","","2097","
                <div class=""stimulus-container"">
                    <img src=""images/schematic_sequence/hotel_scheme/hotel_scheme_ten.png"" class=""exp-image"">
                    <div class=""question-area"">
                        <p style=""font-size: 20px; font-weight: bold; margin: 0;"">Is there a person in this image?</p>
                    </div>
                </div>","0","main_experiment_trial","ten","hotel_scheme","schematic_sequence","","","","",""
"","","","","","html-keyboard-response","37","152992","0.0-37.0","E57DD25D89CF498BB27B6162FD394EDB","019cf0ad-5d23-7c9c-84ee-cb920c1fc9f9","019cf037-5203-781a-b900-108ccb1cab86","","null","<div style=""background-color: white; width: 100vw; height: 100vh;""></div>","null","","","","","","","","",""
"","","","","","html-keyboard-response","38","158000","0.0-38.0","E57DD25D89CF498BB27B6162FD394EDB","019cf0ad-5d23-7c9c-84ee-cb920c1fc9f9","019cf037-5203-781a-b900-108ccb1cab86","","null","
                <div class=""stimulus-container"">
                    <img src=""images/schematic_sequence/dinner_party_scheme/dinner_party_scheme_1.png"" class=""exp-image"">
                    <div class=""question-area""></div> 
                </div>","null","","","","","","","","",""
"","","","","","html-button-response","39","160544","0.0-39.0","E57DD25D89CF498BB27B6162FD394EDB","019cf0ad-5d23-7c9c-84ee-cb920c1fc9f9","019cf037-5203-781a-b900-108ccb1cab86","","2543","
                <div class=""stimulus-container"">
                    <img src=""images/schematic_sequence/dinner_party_scheme/dinner_party_scheme_1.png"" class=""exp-image"">
                    <div class=""question-area"">
                        <p style=""font-size: 20px; font-weight: bold; margin: 0;"">Is there a person in this image?</p>
                    </div>
                </div>","0","main_experiment_trial","1","dinner_party_scheme","schematic_sequence","","","","",""
"","","","","","html-keyboard-response","40","165549","0.0-40.0","E57DD25D89CF498BB27B6162FD394EDB","019cf0ad-5d23-7c9c-84ee-cb920c1fc9f9","019cf037-5203-781a-b900-108ccb1cab86","","null","
                <div class=""stimulus-container"">
                    <img src=""images/schematic_sequence/dinner_party_scheme/dinner_party_scheme_2.png"" class=""exp-image"">
                    <div class=""question-area""></div> 
                </div>","null","","","","","","","","",""
"","","","","","html-button-response","41","167917","0.0-41.0","E57DD25D89CF498BB27B6162FD394EDB","019cf0ad-5d23-7c9c-84ee-cb920c1fc9f9","019cf037-5203-781a-b900-108ccb1cab86","","2367","
                <div class=""stimulus-container"">
                    <img src=""images/schematic_sequence/dinner_party_scheme/dinner_party_scheme_2.png"" class=""exp-image"">
                    <div class=""question-area"">
                        <p style=""font-size: 20px; font-weight: bold; margin: 0;"">Is there a person in this image?</p>
                    </div>
                </div>","0","main_experiment_trial","2","dinner_party_scheme","schematic_sequence","","","","",""
"","","","","","html-keyboard-response","42","172922","0.0-42.0","E57DD25D89CF498BB27B6162FD394EDB","019cf0ad-5d23-7c9c-84ee-cb920c1fc9f9","019cf037-5203-781a-b900-108ccb1cab86","","null","
                <div class=""stimulus-container"">
                    <img src=""images/schematic_sequence/dinner_party_scheme/dinner_party_scheme_3.png"" class=""exp-image"">
                    <div class=""question-area""></div> 
                </div>","null","","","","","","","","",""
"","","","","","html-button-response","43","175271","0.0-43.0","E57DD25D89CF498BB27B6162FD394EDB","019cf0ad-5d23-7c9c-84ee-cb920c1fc9f9","019cf037-5203-781a-b900-108ccb1cab86","","2348","
                <div class=""stimulus-container"">
                    <img src=""images/schematic_sequence/dinner_party_scheme/dinner_party_scheme_3.png"" class=""exp-image"">
                    <div class=""question-area"">
                        <p style=""font-size: 20px; font-weight: bold; margin: 0;"">Is there a person in this image?</p>
                    </div>
                </div>","0","main_experiment_trial","3","dinner_party_scheme","schematic_sequence","","","","",""
"","","","","","html-keyboard-response","44","180286","0.0-44.0","E57DD25D89CF498BB27B6162FD394EDB","019cf0ad-5d23-7c9c-84ee-cb920c1fc9f9","019cf037-5203-781a-b900-108ccb1cab86","","null","
                <div class=""stimulus-container"">
                    <img src=""images/schematic_sequence/dinner_party_scheme/dinner_party_scheme_4.png"" class=""exp-image"">
                    <div class=""question-area""></div> 
                </div>","null","","","","","","","","",""
"","","","","","html-button-response","45","183296","0.0-45.0","E57DD25D89CF498BB27B6162FD394EDB","019cf0ad-5d23-7c9c-84ee-cb920c1fc9f9","019cf037-5203-781a-b900-108ccb1cab86","","null","
                <div class=""stimulus-container"">
                    <img src=""images/schematic_sequence/dinner_party_scheme/dinner_party_scheme_4.png"" class=""exp-image"">
                    <div class=""question-area"">
                        <p style=""font-size: 20px; font-weight: bold; margin: 0;"">Is there a person in this image?</p>
                    </div>
                </div>","null","main_experiment_trial","4","dinner_party_scheme","schematic_sequence","","","","",""
"","","","","","html-keyboard-response","46","188312","0.0-46.0","E57DD25D89CF498BB27B6162FD394EDB","019cf0ad-5d23-7c9c-84ee-cb920c1fc9f9","019cf037-5203-781a-b900-108ccb1cab86","","null","
                <div class=""stimulus-container"">
                    <img src=""images/schematic_sequence/dinner_party_scheme/dinner_party_scheme_5.png"" class=""exp-image"">
                    <div class=""question-area""></div> 
                </div>","null","","","","","","","","",""
"","","","","","html-button-response","47","191328","0.0-47.0","E57DD25D89CF498BB27B6162FD394EDB","019cf0ad-5d23-7c9c-84ee-cb920c1fc9f9","019cf037-5203-781a-b900-108ccb1cab86","","null","
                <div class=""stimulus-container"">
                    <img src=""images/schematic_sequence/dinner_party_scheme/dinner_party_scheme_5.png"" class=""exp-image"">
                    <div class=""question-area"">
                        <p style=""font-size: 20px; font-weight: bold; margin: 0;"">Is there a person in this image?</p>
                    </div>
                </div>","null","main_experiment_trial","5","dinner_party_scheme","schematic_sequence","","","","",""
"","","","","","html-keyboard-response","48","196341","0.0-48.0","E57DD25D89CF498BB27B6162FD394EDB","019cf0ad-5d23-7c9c-84ee-cb920c1fc9f9","019cf037-5203-781a-b900-108ccb1cab86","","null","
                <div class=""stimulus-container"">
                    <img src=""images/schematic_sequence/dinner_party_scheme/dinner_party_scheme_6.png"" class=""exp-image"">
                    <div class=""question-area""></div> 
                </div>","null","","","","","","","","",""
"","","","","","html-button-response","49","199342","0.0-49.0","E57DD25D89CF498BB27B6162FD394EDB","019cf0ad-5d23-7c9c-84ee-cb920c1fc9f9","019cf037-5203-781a-b900-108ccb1cab86","","null","
                <div class=""stimulus-container"">
                    <img src=""images/schematic_sequence/dinner_party_scheme/dinner_party_scheme_6.png"" class=""exp-image"">
                    <div class=""question-area"">
                        <p style=""font-size: 20px; font-weight: bold; margin: 0;"">Is there a person in this image?</p>
                    </div>
                </div>","null","main_experiment_trial","6","dinner_party_scheme","schematic_sequence","","","","",""
"","","","","","html-keyboard-response","50","204357","0.0-50.0","E57DD25D89CF498BB27B6162FD394EDB","019cf0ad-5d23-7c9c-84ee-cb920c1fc9f9","019cf037-5203-781a-b900-108ccb1cab86","","null","
                <div class=""stimulus-container"">
                    <img src=""images/schematic_sequence/dinner_party_scheme/dinner_party_scheme_7.png"" class=""exp-image"">
                    <div class=""question-area""></div> 
                </div>","null","","","","","","","","",""
"","","","","","html-button-response","51","207366","0.0-51.0","E57DD25D89CF498BB27B6162FD394EDB","019cf0ad-5d23-7c9c-84ee-cb920c1fc9f9","019cf037-5203-781a-b900-108ccb1cab86","","null","
                <div class=""stimulus-container"">
                    <img src=""images/schematic_sequence/dinner_party_scheme/dinner_party_scheme_7.png"" class=""exp-image"">
                    <div class=""question-area"">
                        <p style=""font-size: 20px; font-weight: bold; margin: 0;"">Is there a person in this image?</p>
                    </div>
                </div>","null","main_experiment_trial","7","dinner_party_scheme","schematic_sequence","","","","",""
"","","","","","html-keyboard-response","52","212371","0.0-52.0","E57DD25D89CF498BB27B6162FD394EDB","019cf0ad-5d23-7c9c-84ee-cb920c1fc9f9","019cf037-5203-781a-b900-108ccb1cab86","","null","
                <div class=""stimulus-container"">
                    <img src=""images/schematic_sequence/dinner_party_scheme/dinner_party_scheme_8.png"" class=""exp-image"">
                    <div class=""question-area""></div> 
                </div>","null","","","","","","","","",""
"","","","","","html-button-response","53","214044","0.0-53.0","E57DD25D89CF498BB27B6162FD394EDB","019cf0ad-5d23-7c9c-84ee-cb920c1fc9f9","019cf037-5203-781a-b900-108ccb1cab86","","1673","
                <div class=""stimulus-container"">
                    <img src=""images/schematic_sequence/dinner_party_scheme/dinner_party_scheme_8.png"" class=""exp-image"">
                    <div class=""question-area"">
                        <p style=""font-size: 20px; font-weight: bold; margin: 0;"">Is there a person in this image?</p>
                    </div>
                </div>","0","main_experiment_trial","8","dinner_party_scheme","schematic_sequence","","","","",""
"","","","","","html-keyboard-response","54","219061","0.0-54.0","E57DD25D89CF498BB27B6162FD394EDB","019cf0ad-5d23-7c9c-84ee-cb920c1fc9f9","019cf037-5203-781a-b900-108ccb1cab86","","null","
                <div class=""stimulus-container"">
                    <img src=""images/schematic_sequence/dinner_party_scheme/dinner_party_scheme_9.png"" class=""exp-image"">
                    <div class=""question-area""></div> 
                </div>","null","","","","","","","","",""
"","","","","","html-button-response","55","222067","0.0-55.0","E57DD25D89CF498BB27B6162FD394EDB","019cf0ad-5d23-7c9c-84ee-cb920c1fc9f9","019cf037-5203-781a-b900-108ccb1cab86","","null","
                <div class=""stimulus-container"">
                    <img src=""images/schematic_sequence/dinner_party_scheme/dinner_party_scheme_9.png"" class=""exp-image"">
                    <div class=""question-area"">
                        <p style=""font-size: 20px; font-weight: bold; margin: 0;"">Is there a person in this image?</p>
                    </div>
                </div>","null","main_experiment_trial","9","dinner_party_scheme","schematic_sequence","","","","",""
"","","","","","html-keyboard-response","56","227073","0.0-56.0","E57DD25D89CF498BB27B6162FD394EDB","019cf0ad-5d23-7c9c-84ee-cb920c1fc9f9","019cf037-5203-781a-b900-108ccb1cab86","","null","
                <div class=""stimulus-container"">
                    <img src=""images/schematic_sequence/dinner_party_scheme/dinner_party_scheme_ten.png"" class=""exp-image"">
                    <div class=""question-area""></div> 
                </div>","null","","","","","","","","",""
"","","","","","html-button-response","57","228624","0.0-57.0","E57DD25D89CF498BB27B6162FD394EDB","019cf0ad-5d23-7c9c-84ee-cb920c1fc9f9","019cf037-5203-781a-b900-108ccb1cab86","","1550","
                <div class=""stimulus-container"">
                    <img src=""images/schematic_sequence/dinner_party_scheme/dinner_party_scheme_ten.png"" class=""exp-image"">
                    <div class=""question-area"">
                        <p style=""font-size: 20px; font-weight: bold; margin: 0;"">Is there a person in this image?</p>
                    </div>
                </div>","0","main_experiment_trial","ten","dinner_party_scheme","schematic_sequence","","","","",""
"","","","","","html-keyboard-response","58","229626","0.0-58.0","E57DD25D89CF498BB27B6162FD394EDB","019cf0ad-5d23-7c9c-84ee-cb920c1fc9f9","019cf037-5203-781a-b900-108ccb1cab86","","null","<div style=""background-color: white; width: 100vw; height: 100vh;""></div>","null","","","","","","","","",""
"","","","","","html-keyboard-response","59","234632","0.0-59.0","E57DD25D89CF498BB27B6162FD394EDB","019cf0ad-5d23-7c9c-84ee-cb920c1fc9f9","019cf037-5203-781a-b900-108ccb1cab86","","null","
                <div class=""stimulus-container"">
                    <img src=""images/schematic_sequence/supermarket_scheme/supermarket_scheme_1.png"" class=""exp-image"">
                    <div class=""question-area""></div> 
                </div>","null","","","","","","","","",""
"","","","","","html-button-response","60","236064","0.0-60.0","E57DD25D89CF498BB27B6162FD394EDB","019cf0ad-5d23-7c9c-84ee-cb920c1fc9f9","019cf037-5203-781a-b900-108ccb1cab86","","1432","
                <div class=""stimulus-container"">
                    <img src=""images/schematic_sequence/supermarket_scheme/supermarket_scheme_1.png"" class=""exp-image"">
                    <div class=""question-area"">
                        <p style=""font-size: 20px; font-weight: bold; margin: 0;"">Is there a person in this image?</p>
                    </div>
                </div>","0","main_experiment_trial","1","supermarket_scheme","schematic_sequence","","","","",""
"","","","","","html-keyboard-response","61","241081","0.0-61.0","E57DD25D89CF498BB27B6162FD394EDB","019cf0ad-5d23-7c9c-84ee-cb920c1fc9f9","019cf037-5203-781a-b900-108ccb1cab86","","null","
                <div class=""stimulus-container"">
                    <img src=""images/schematic_sequence/supermarket_scheme/supermarket_scheme_2.png"" class=""exp-image"">
                    <div class=""question-area""></div> 
                </div>","null","","","","","","","","",""
"","","","","","html-button-response","62","243295","0.0-62.0","E57DD25D89CF498BB27B6162FD394EDB","019cf0ad-5d23-7c9c-84ee-cb920c1fc9f9","019cf037-5203-781a-b900-108ccb1cab86","","2214","
                <div class=""stimulus-container"">
                    <img src=""images/schematic_sequence/supermarket_scheme/supermarket_scheme_2.png"" class=""exp-image"">
                    <div class=""question-area"">
                        <p style=""font-size: 20px; font-weight: bold; margin: 0;"">Is there a person in this image?</p>
                    </div>
                </div>","0","main_experiment_trial","2","supermarket_scheme","schematic_sequence","","","","",""
"","","","","","html-keyboard-response","63","248309","0.0-63.0","E57DD25D89CF498BB27B6162FD394EDB","019cf0ad-5d23-7c9c-84ee-cb920c1fc9f9","019cf037-5203-781a-b900-108ccb1cab86","","null","
                <div class=""stimulus-container"">
                    <img src=""images/schematic_sequence/supermarket_scheme/supermarket_scheme_3.png"" class=""exp-image"">
                    <div class=""question-area""></div> 
                </div>","null","","","","","","","","",""
"","","","","","html-button-response","64","249455","0.0-64.0","E57DD25D89CF498BB27B6162FD394EDB","019cf0ad-5d23-7c9c-84ee-cb920c1fc9f9","019cf037-5203-781a-b900-108ccb1cab86","","1146","
                <div class=""stimulus-container"">
                    <img src=""images/schematic_sequence/supermarket_scheme/supermarket_scheme_3.png"" class=""exp-image"">
                    <div class=""question-area"">
                        <p style=""font-size: 20px; font-weight: bold; margin: 0;"">Is there a person in this image?</p>
                    </div>
                </div>","0","main_experiment_trial","3","supermarket_scheme","schematic_sequence","","","","",""
"","","","","","html-keyboard-response","65","254465","0.0-65.0","E57DD25D89CF498BB27B6162FD394EDB","019cf0ad-5d23-7c9c-84ee-cb920c1fc9f9","019cf037-5203-781a-b900-108ccb1cab86","","null","
                <div class=""stimulus-container"">
                    <img src=""images/schematic_sequence/supermarket_scheme/supermarket_scheme_4.png"" class=""exp-image"">
                    <div class=""question-area""></div> 
                </div>","null","","","","","","","","",""
"","","","","","html-button-response","66","257480","0.0-66.0","E57DD25D89CF498BB27B6162FD394EDB","019cf0ad-5d23-7c9c-84ee-cb920c1fc9f9","019cf037-5203-781a-b900-108ccb1cab86","","null","
                <div class=""stimulus-container"">
                    <img src=""images/schematic_sequence/supermarket_scheme/supermarket_scheme_4.png"" class=""exp-image"">
                    <div class=""question-area"">
                        <p style=""font-size: 20px; font-weight: bold; margin: 0;"">Is there a person in this image?</p>
                    </div>
                </div>","null","main_experiment_trial","4","supermarket_scheme","schematic_sequence","","","","",""
"","","","","","html-keyboard-response","67","262495","0.0-67.0","E57DD25D89CF498BB27B6162FD394EDB","019cf0ad-5d23-7c9c-84ee-cb920c1fc9f9","019cf037-5203-781a-b900-108ccb1cab86","","null","
                <div class=""stimulus-container"">
                    <img src=""images/schematic_sequence/supermarket_scheme/supermarket_scheme_5.png"" class=""exp-image"">
                    <div class=""question-area""></div> 
                </div>","null","","","","","","","","",""
"","","","","","html-button-response","68","265496","0.0-68.0","E57DD25D89CF498BB27B6162FD394EDB","019cf0ad-5d23-7c9c-84ee-cb920c1fc9f9","019cf037-5203-781a-b900-108ccb1cab86","","null","
                <div class=""stimulus-container"">
                    <img src=""images/schematic_sequence/supermarket_scheme/supermarket_scheme_5.png"" class=""exp-image"">
                    <div class=""question-area"">
                        <p style=""font-size: 20px; font-weight: bold; margin: 0;"">Is there a person in this image?</p>
                    </div>
                </div>","null","main_experiment_trial","5","supermarket_scheme","schematic_sequence","","","","",""
"","","","","","html-keyboard-response","69","270503","0.0-69.0","E57DD25D89CF498BB27B6162FD394EDB","019cf0ad-5d23-7c9c-84ee-cb920c1fc9f9","019cf037-5203-781a-b900-108ccb1cab86","","null","
                <div class=""stimulus-container"">
                    <img src=""images/schematic_sequence/supermarket_scheme/supermarket_scheme_6.png"" class=""exp-image"">
                    <div class=""question-area""></div> 
                </div>","null","","","","","","","","",""
"","","","","","html-button-response","70","272953","0.0-70.0","E57DD25D89CF498BB27B6162FD394EDB","019cf0ad-5d23-7c9c-84ee-cb920c1fc9f9","019cf037-5203-781a-b900-108ccb1cab86","","2450","
                <div class=""stimulus-container"">
                    <img src=""images/schematic_sequence/supermarket_scheme/supermarket_scheme_6.png"" class=""exp-image"">
                    <div class=""question-area"">
                        <p style=""font-size: 20px; font-weight: bold; margin: 0;"">Is there a person in this image?</p>
                    </div>
                </div>","0","main_experiment_trial","6","supermarket_scheme","schematic_sequence","","","","",""
"","","","","","html-keyboard-response","71","277959","0.0-71.0","E57DD25D89CF498BB27B6162FD394EDB","019cf0ad-5d23-7c9c-84ee-cb920c1fc9f9","019cf037-5203-781a-b900-108ccb1cab86","","null","
                <div class=""stimulus-container"">
                    <img src=""images/schematic_sequence/supermarket_scheme/supermarket_scheme_7.png"" class=""exp-image"">
                    <div class=""question-area""></div> 
                </div>","null","","","","","","","","",""
"","","","","","html-button-response","72","280960","0.0-72.0","E57DD25D89CF498BB27B6162FD394EDB","019cf0ad-5d23-7c9c-84ee-cb920c1fc9f9","019cf037-5203-781a-b900-108ccb1cab86","","null","
                <div class=""stimulus-container"">
                    <img src=""images/schematic_sequence/supermarket_scheme/supermarket_scheme_7.png"" class=""exp-image"">
                    <div class=""question-area"">
                        <p style=""font-size: 20px; font-weight: bold; margin: 0;"">Is there a person in this image?</p>
                    </div>
                </div>","null","main_experiment_trial","7","supermarket_scheme","schematic_sequence","","","","",""
"","","","","","html-keyboard-response","73","285966","0.0-73.0","E57DD25D89CF498BB27B6162FD394EDB","019cf0ad-5d23-7c9c-84ee-cb920c1fc9f9","019cf037-5203-781a-b900-108ccb1cab86","","null","
                <div class=""stimulus-container"">
                    <img src=""images/schematic_sequence/supermarket_scheme/supermarket_scheme_8.png"" class=""exp-image"">
                    <div class=""question-area""></div> 
                </div>","null","","","","","","","","",""
"","","","","","html-button-response","74","288981","0.0-74.0","E57DD25D89CF498BB27B6162FD394EDB","019cf0ad-5d23-7c9c-84ee-cb920c1fc9f9","019cf037-5203-781a-b900-108ccb1cab86","","null","
                <div class=""stimulus-container"">
                    <img src=""images/schematic_sequence/supermarket_scheme/supermarket_scheme_8.png"" class=""exp-image"">
                    <div class=""question-area"">
                        <p style=""font-size: 20px; font-weight: bold; margin: 0;"">Is there a person in this image?</p>
                    </div>
                </div>","null","main_experiment_trial","8","supermarket_scheme","schematic_sequence","","","","",""
"","","","","","html-keyboard-response","75","293986","0.0-75.0","E57DD25D89CF498BB27B6162FD394EDB","019cf0ad-5d23-7c9c-84ee-cb920c1fc9f9","019cf037-5203-781a-b900-108ccb1cab86","","null","
                <div class=""stimulus-container"">
                    <img src=""images/schematic_sequence/supermarket_scheme/supermarket_scheme_9.png"" class=""exp-image"">
                    <div class=""question-area""></div> 
                </div>","null","","","","","","","","",""
"","","","","","html-button-response","76","295533","0.0-76.0","E57DD25D89CF498BB27B6162FD394EDB","019cf0ad-5d23-7c9c-84ee-cb920c1fc9f9","019cf037-5203-781a-b900-108ccb1cab86","","1546","
                <div class=""stimulus-container"">
                    <img src=""images/schematic_sequence/supermarket_scheme/supermarket_scheme_9.png"" class=""exp-image"">
                    <div class=""question-area"">
                        <p style=""font-size: 20px; font-weight: bold; margin: 0;"">Is there a person in this image?</p>
                    </div>
                </div>","0","main_experiment_trial","9","supermarket_scheme","schematic_sequence","","","","",""
"","","","","","html-keyboard-response","77","300538","0.0-77.0","E57DD25D89CF498BB27B6162FD394EDB","019cf0ad-5d23-7c9c-84ee-cb920c1fc9f9","019cf037-5203-781a-b900-108ccb1cab86","","null","
                <div class=""stimulus-container"">
                    <img src=""images/schematic_sequence/supermarket_scheme/supermarket_scheme_ten.png"" class=""exp-image"">
                    <div class=""question-area""></div> 
                </div>","null","","","","","","","","",""
"","","","","","html-button-response","78","302233","0.0-78.0","E57DD25D89CF498BB27B6162FD394EDB","019cf0ad-5d23-7c9c-84ee-cb920c1fc9f9","019cf037-5203-781a-b900-108ccb1cab86","","1695","
                <div class=""stimulus-container"">
                    <img src=""images/schematic_sequence/supermarket_scheme/supermarket_scheme_ten.png"" class=""exp-image"">
                    <div class=""question-area"">
                        <p style=""font-size: 20px; font-weight: bold; margin: 0;"">Is there a person in this image?</p>
                    </div>
                </div>","0","main_experiment_trial","ten","supermarket_scheme","schematic_sequence","","","","",""
"","","","","","html-keyboard-response","79","303245","0.0-79.0","E57DD25D89CF498BB27B6162FD394EDB","019cf0ad-5d23-7c9c-84ee-cb920c1fc9f9","019cf037-5203-781a-b900-108ccb1cab86","","null","<div style=""background-color: white; width: 100vw; height: 100vh;""></div>","null","","","","","","","","",""
"","","","","","html-keyboard-response","80","308251","0.0-80.0","E57DD25D89CF498BB27B6162FD394EDB","019cf0ad-5d23-7c9c-84ee-cb920c1fc9f9","019cf037-5203-781a-b900-108ccb1cab86","","null","
                <div class=""stimulus-container"">
                    <img src=""images/causal_sequence/museum_causal/museum_causal_1.png"" class=""exp-image"">
                    <div class=""question-area""></div> 
                </div>","null","","","","","","","","",""
"","","","","","html-button-response","81","309304","0.0-81.0","E57DD25D89CF498BB27B6162FD394EDB","019cf0ad-5d23-7c9c-84ee-cb920c1fc9f9","019cf037-5203-781a-b900-108ccb1cab86","","1052","
                <div class=""stimulus-container"">
                    <img src=""images/causal_sequence/museum_causal/museum_causal_1.png"" class=""exp-image"">
                    <div class=""question-area"">
                        <p style=""font-size: 20px; font-weight: bold; margin: 0;"">Is there a person in this image?</p>
                    </div>
                </div>","0","main_experiment_trial","1","museum_causal","causal_sequence","","","","",""
"","","","","","html-keyboard-response","82","314314","0.0-82.0","E57DD25D89CF498BB27B6162FD394EDB","019cf0ad-5d23-7c9c-84ee-cb920c1fc9f9","019cf037-5203-781a-b900-108ccb1cab86","","null","
                <div class=""stimulus-container"">
                    <img src=""images/causal_sequence/museum_causal/museum_causal_2.png"" class=""exp-image"">
                    <div class=""question-area""></div> 
                </div>","null","","","","","","","","",""
"","","","","","html-button-response","83","316004","0.0-83.0","E57DD25D89CF498BB27B6162FD394EDB","019cf0ad-5d23-7c9c-84ee-cb920c1fc9f9","019cf037-5203-781a-b900-108ccb1cab86","","1689","
                <div class=""stimulus-container"">
                    <img src=""images/causal_sequence/museum_causal/museum_causal_2.png"" class=""exp-image"">
                    <div class=""question-area"">
                        <p style=""font-size: 20px; font-weight: bold; margin: 0;"">Is there a person in this image?</p>
                    </div>
                </div>","1","main_experiment_trial","2","museum_causal","causal_sequence","","","","",""
"","","","","","html-keyboard-response","84","321017","0.0-84.0","E57DD25D89CF498BB27B6162FD394EDB","019cf0ad-5d23-7c9c-84ee-cb920c1fc9f9","019cf037-5203-781a-b900-108ccb1cab86","","null","
                <div class=""stimulus-container"">
                    <img src=""images/causal_sequence/museum_causal/museum_causal_3.png"" class=""exp-image"">
                    <div class=""question-area""></div> 
                </div>","null","","","","","","","","",""
"","","","","","html-button-response","85","323147","0.0-85.0","E57DD25D89CF498BB27B6162FD394EDB","019cf0ad-5d23-7c9c-84ee-cb920c1fc9f9","019cf037-5203-781a-b900-108ccb1cab86","","2129","
                <div class=""stimulus-container"">
                    <img src=""images/causal_sequence/museum_causal/museum_causal_3.png"" class=""exp-image"">
                    <div class=""question-area"">
                        <p style=""font-size: 20px; font-weight: bold; margin: 0;"">Is there a person in this image?</p>
                    </div>
                </div>","1","main_experiment_trial","3","museum_causal","causal_sequence","","","","",""
"","","","","","html-keyboard-response","86","328157","0.0-86.0","E57DD25D89CF498BB27B6162FD394EDB","019cf0ad-5d23-7c9c-84ee-cb920c1fc9f9","019cf037-5203-781a-b900-108ccb1cab86","","null","
                <div class=""stimulus-container"">
                    <img src=""images/causal_sequence/museum_causal/museum_causal_4.png"" class=""exp-image"">
                    <div class=""question-area""></div> 
                </div>","null","","","","","","","","",""
"","","","","","html-button-response","87","330496","0.0-87.0","E57DD25D89CF498BB27B6162FD394EDB","019cf0ad-5d23-7c9c-84ee-cb920c1fc9f9","019cf037-5203-781a-b900-108ccb1cab86","","2338","
                <div class=""stimulus-container"">
                    <img src=""images/causal_sequence/museum_causal/museum_causal_4.png"" class=""exp-image"">
                    <div class=""question-area"">
                        <p style=""font-size: 20px; font-weight: bold; margin: 0;"">Is there a person in this image?</p>
                    </div>
                </div>","1","main_experiment_trial","4","museum_causal","causal_sequence","","","","",""
"","","","","","html-keyboard-response","88","335502","0.0-88.0","E57DD25D89CF498BB27B6162FD394EDB","019cf0ad-5d23-7c9c-84ee-cb920c1fc9f9","019cf037-5203-781a-b900-108ccb1cab86","","null","
                <div class=""stimulus-container"">
                    <img src=""images/causal_sequence/museum_causal/museum_causal_5.png"" class=""exp-image"">
                    <div class=""question-area""></div> 
                </div>","null","","","","","","","","",""
"","","","","","html-button-response","89","337669","0.0-89.0","E57DD25D89CF498BB27B6162FD394EDB","019cf0ad-5d23-7c9c-84ee-cb920c1fc9f9","019cf037-5203-781a-b900-108ccb1cab86","","2167","
                <div class=""stimulus-container"">
                    <img src=""images/causal_sequence/museum_causal/museum_causal_5.png"" class=""exp-image"">
                    <div class=""question-area"">
                        <p style=""font-size: 20px; font-weight: bold; margin: 0;"">Is there a person in this image?</p>
                    </div>
                </div>","1","main_experiment_trial","5","museum_causal","causal_sequence","","","","",""
"","","","","","html-keyboard-response","90","342681","0.0-90.0","E57DD25D89CF498BB27B6162FD394EDB","019cf0ad-5d23-7c9c-84ee-cb920c1fc9f9","019cf037-5203-781a-b900-108ccb1cab86","","null","
                <div class=""stimulus-container"">
                    <img src=""images/causal_sequence/museum_causal/museum_causal_6.png"" class=""exp-image"">
                    <div class=""question-area""></div> 
                </div>","null","","","","","","","","",""
"","","","","","html-button-response","91","345681","0.0-91.0","E57DD25D89CF498BB27B6162FD394EDB","019cf0ad-5d23-7c9c-84ee-cb920c1fc9f9","019cf037-5203-781a-b900-108ccb1cab86","","null","
                <div class=""stimulus-container"">
                    <img src=""images/causal_sequence/museum_causal/museum_causal_6.png"" class=""exp-image"">
                    <div class=""question-area"">
                        <p style=""font-size: 20px; font-weight: bold; margin: 0;"">Is there a person in this image?</p>
                    </div>
                </div>","null","main_experiment_trial","6","museum_causal","causal_sequence","","","","",""
"","","","","","html-keyboard-response","92","350695","0.0-92.0","E57DD25D89CF498BB27B6162FD394EDB","019cf0ad-5d23-7c9c-84ee-cb920c1fc9f9","019cf037-5203-781a-b900-108ccb1cab86","","null","
                <div class=""stimulus-container"">
                    <img src=""images/causal_sequence/museum_causal/museum_causal_7.png"" class=""exp-image"">
                    <div class=""question-area""></div> 
                </div>","null","","","","","","","","",""
"","","","","","html-button-response","93","353696","0.0-93.0","E57DD25D89CF498BB27B6162FD394EDB","019cf0ad-5d23-7c9c-84ee-cb920c1fc9f9","019cf037-5203-781a-b900-108ccb1cab86","","null","
                <div class=""stimulus-container"">
                    <img src=""images/causal_sequence/museum_causal/museum_causal_7.png"" class=""exp-image"">
                    <div class=""question-area"">
                        <p style=""font-size: 20px; font-weight: bold; margin: 0;"">Is there a person in this image?</p>
                    </div>
                </div>","null","main_experiment_trial","7","museum_causal","causal_sequence","","","","",""
"","","","","","html-keyboard-response","94","358705","0.0-94.0","E57DD25D89CF498BB27B6162FD394EDB","019cf0ad-5d23-7c9c-84ee-cb920c1fc9f9","019cf037-5203-781a-b900-108ccb1cab86","","null","
                <div class=""stimulus-container"">
                    <img src=""images/causal_sequence/museum_causal/museum_causal_8.png"" class=""exp-image"">
                    <div class=""question-area""></div> 
                </div>","null","","","","","","","","",""
"","","","","","html-button-response","95","361714","0.0-95.0","E57DD25D89CF498BB27B6162FD394EDB","019cf0ad-5d23-7c9c-84ee-cb920c1fc9f9","019cf037-5203-781a-b900-108ccb1cab86","","null","
                <div class=""stimulus-container"">
                    <img src=""images/causal_sequence/museum_causal/museum_causal_8.png"" class=""exp-image"">
                    <div class=""question-area"">
                        <p style=""font-size: 20px; font-weight: bold; margin: 0;"">Is there a person in this image?</p>
                    </div>
                </div>","null","main_experiment_trial","8","museum_causal","causal_sequence","","","","",""
"","","","","","html-keyboard-response","96","366719","0.0-96.0","E57DD25D89CF498BB27B6162FD394EDB","019cf0ad-5d23-7c9c-84ee-cb920c1fc9f9","019cf037-5203-781a-b900-108ccb1cab86","","null","
                <div class=""stimulus-container"">
                    <img src=""images/causal_sequence/museum_causal/museum_causal_9.png"" class=""exp-image"">
                    <div class=""question-area""></div> 
                </div>","null","","","","","","","","",""
"","","","","","html-button-response","97","369002","0.0-97.0","E57DD25D89CF498BB27B6162FD394EDB","019cf0ad-5d23-7c9c-84ee-cb920c1fc9f9","019cf037-5203-781a-b900-108ccb1cab86","","2281","
                <div class=""stimulus-container"">
                    <img src=""images/causal_sequence/museum_causal/museum_causal_9.png"" class=""exp-image"">
                    <div class=""question-area"">
                        <p style=""font-size: 20px; font-weight: bold; margin: 0;"">Is there a person in this image?</p>
                    </div>
                </div>","1","main_experiment_trial","9","museum_causal","causal_sequence","","","","",""
"","","","","","html-keyboard-response","98","374014","0.0-98.0","E57DD25D89CF498BB27B6162FD394EDB","019cf0ad-5d23-7c9c-84ee-cb920c1fc9f9","019cf037-5203-781a-b900-108ccb1cab86","","null","
                <div class=""stimulus-container"">
                    <img src=""images/causal_sequence/museum_causal/museum_causal_ten.png"" class=""exp-image"">
                    <div class=""question-area""></div> 
                </div>","null","","","","","","","","",""
"","","","","","html-button-response","99","375046","0.0-99.0","E57DD25D89CF498BB27B6162FD394EDB","019cf0ad-5d23-7c9c-84ee-cb920c1fc9f9","019cf037-5203-781a-b900-108ccb1cab86","","1031","
                <div class=""stimulus-container"">
                    <img src=""images/causal_sequence/museum_causal/museum_causal_ten.png"" class=""exp-image"">
                    <div class=""question-area"">
                        <p style=""font-size: 20px; font-weight: bold; margin: 0;"">Is there a person in this image?</p>
                    </div>
                </div>","0","main_experiment_trial","ten","museum_causal","causal_sequence","","","","",""
"","","","","","html-keyboard-response","100","376060","0.0-100.0","E57DD25D89CF498BB27B6162FD394EDB","019cf0ad-5d23-7c9c-84ee-cb920c1fc9f9","019cf037-5203-781a-b900-108ccb1cab86","","null","<div style=""background-color: white; width: 100vw; height: 100vh;""></div>","null","","","","","","","","",""
"","","","","","html-keyboard-response","101","381072","0.0-101.0","E57DD25D89CF498BB27B6162FD394EDB","019cf0ad-5d23-7c9c-84ee-cb920c1fc9f9","019cf037-5203-781a-b900-108ccb1cab86","","null","
                <div class=""stimulus-container"">
                    <img src=""images/schematic_sequence/restaurant_scheme/restaurant_scheme_1.png"" class=""exp-image"">
                    <div class=""question-area""></div> 
                </div>","null","","","","","","","","",""
"","","","","","html-button-response","102","382024","0.0-102.0","E57DD25D89CF498BB27B6162FD394EDB","019cf0ad-5d23-7c9c-84ee-cb920c1fc9f9","019cf037-5203-781a-b900-108ccb1cab86","","951","
                <div class=""stimulus-container"">
                    <img src=""images/schematic_sequence/restaurant_scheme/restaurant_scheme_1.png"" class=""exp-image"">
                    <div class=""question-area"">
                        <p style=""font-size: 20px; font-weight: bold; margin: 0;"">Is there a person in this image?</p>
                    </div>
                </div>","0","main_experiment_trial","1","restaurant_scheme","schematic_sequence","","","","",""
"","","","","","html-keyboard-response","103","387027","0.0-103.0","E57DD25D89CF498BB27B6162FD394EDB","019cf0ad-5d23-7c9c-84ee-cb920c1fc9f9","019cf037-5203-781a-b900-108ccb1cab86","","null","
                <div class=""stimulus-container"">
                    <img src=""images/schematic_sequence/restaurant_scheme/restaurant_scheme_2.png"" class=""exp-image"">
                    <div class=""question-area""></div> 
                </div>","null","","","","","","","","",""
"","","","","","html-button-response","104","388594","0.0-104.0","E57DD25D89CF498BB27B6162FD394EDB","019cf0ad-5d23-7c9c-84ee-cb920c1fc9f9","019cf037-5203-781a-b900-108ccb1cab86","","1566","
                <div class=""stimulus-container"">
                    <img src=""images/schematic_sequence/restaurant_scheme/restaurant_scheme_2.png"" class=""exp-image"">
                    <div class=""question-area"">
                        <p style=""font-size: 20px; font-weight: bold; margin: 0;"">Is there a person in this image?</p>
                    </div>
                </div>","1","main_experiment_trial","2","restaurant_scheme","schematic_sequence","","","","",""
"","","","","","html-keyboard-response","105","393596","0.0-105.0","E57DD25D89CF498BB27B6162FD394EDB","019cf0ad-5d23-7c9c-84ee-cb920c1fc9f9","019cf037-5203-781a-b900-108ccb1cab86","","null","
                <div class=""stimulus-container"">
                    <img src=""images/schematic_sequence/restaurant_scheme/restaurant_scheme_3.png"" class=""exp-image"">
                    <div class=""question-area""></div> 
                </div>","null","","","","","","","","",""
"","","","","","html-button-response","106","394606","0.0-106.0","E57DD25D89CF498BB27B6162FD394EDB","019cf0ad-5d23-7c9c-84ee-cb920c1fc9f9","019cf037-5203-781a-b900-108ccb1cab86","","1009","
                <div class=""stimulus-container"">
                    <img src=""images/schematic_sequence/restaurant_scheme/restaurant_scheme_3.png"" class=""exp-image"">
                    <div class=""question-area"">
                        <p style=""font-size: 20px; font-weight: bold; margin: 0;"">Is there a person in this image?</p>
                    </div>
                </div>","1","main_experiment_trial","3","restaurant_scheme","schematic_sequence","","","","",""
"","","","","","html-keyboard-response","107","399611","0.0-107.0","E57DD25D89CF498BB27B6162FD394EDB","019cf0ad-5d23-7c9c-84ee-cb920c1fc9f9","019cf037-5203-781a-b900-108ccb1cab86","","null","
                <div class=""stimulus-container"">
                    <img src=""images/schematic_sequence/restaurant_scheme/restaurant_scheme_4.png"" class=""exp-image"">
                    <div class=""question-area""></div> 
                </div>","null","","","","","","","","",""
"","","","","","html-button-response","108","400965","0.0-108.0","E57DD25D89CF498BB27B6162FD394EDB","019cf0ad-5d23-7c9c-84ee-cb920c1fc9f9","019cf037-5203-781a-b900-108ccb1cab86","","1353","
                <div class=""stimulus-container"">
                    <img src=""images/schematic_sequence/restaurant_scheme/restaurant_scheme_4.png"" class=""exp-image"">
                    <div class=""question-area"">
                        <p style=""font-size: 20px; font-weight: bold; margin: 0;"">Is there a person in this image?</p>
                    </div>
                </div>","0","main_experiment_trial","4","restaurant_scheme","schematic_sequence","","","","",""
"","","","","","html-keyboard-response","109","405971","0.0-109.0","E57DD25D89CF498BB27B6162FD394EDB","019cf0ad-5d23-7c9c-84ee-cb920c1fc9f9","019cf037-5203-781a-b900-108ccb1cab86","","null","
                <div class=""stimulus-container"">
                    <img src=""images/schematic_sequence/restaurant_scheme/restaurant_scheme_5.png"" class=""exp-image"">
                    <div class=""question-area""></div> 
                </div>","null","","","","","","","","",""
"","","","","","html-button-response","110","407614","0.0-110.0","E57DD25D89CF498BB27B6162FD394EDB","019cf0ad-5d23-7c9c-84ee-cb920c1fc9f9","019cf037-5203-781a-b900-108ccb1cab86","","1643","
                <div class=""stimulus-container"">
                    <img src=""images/schematic_sequence/restaurant_scheme/restaurant_scheme_5.png"" class=""exp-image"">
                    <div class=""question-area"">
                        <p style=""font-size: 20px; font-weight: bold; margin: 0;"">Is there a person in this image?</p>
                    </div>
                </div>","0","main_experiment_trial","5","restaurant_scheme","schematic_sequence","","","","",""
"","","","","","html-keyboard-response","111","412624","0.0-111.0","E57DD25D89CF498BB27B6162FD394EDB","019cf0ad-5d23-7c9c-84ee-cb920c1fc9f9","019cf037-5203-781a-b900-108ccb1cab86","","null","
                <div class=""stimulus-container"">
                    <img src=""images/schematic_sequence/restaurant_scheme/restaurant_scheme_6.png"" class=""exp-image"">
                    <div class=""question-area""></div> 
                </div>","null","","","","","","","","",""
"","","","","","html-button-response","112","415640","0.0-112.0","E57DD25D89CF498BB27B6162FD394EDB","019cf0ad-5d23-7c9c-84ee-cb920c1fc9f9","019cf037-5203-781a-b900-108ccb1cab86","","null","
                <div class=""stimulus-container"">
                    <img src=""images/schematic_sequence/restaurant_scheme/restaurant_scheme_6.png"" class=""exp-image"">
                    <div class=""question-area"">
                        <p style=""font-size: 20px; font-weight: bold; margin: 0;"">Is there a person in this image?</p>
                    </div>
                </div>","null","main_experiment_trial","6","restaurant_scheme","schematic_sequence","","","","",""
"","","","","","html-keyboard-response","113","420646","0.0-113.0","E57DD25D89CF498BB27B6162FD394EDB","019cf0ad-5d23-7c9c-84ee-cb920c1fc9f9","019cf037-5203-781a-b900-108ccb1cab86","","null","
                <div class=""stimulus-container"">
                    <img src=""images/schematic_sequence/restaurant_scheme/restaurant_scheme_7.png"" class=""exp-image"">
                    <div class=""question-area""></div> 
                </div>","null","","","","","","","","",""
"","","","","","html-button-response","114","422184","0.0-114.0","E57DD25D89CF498BB27B6162FD394EDB","019cf0ad-5d23-7c9c-84ee-cb920c1fc9f9","019cf037-5203-781a-b900-108ccb1cab86","","1537","
                <div class=""stimulus-container"">
                    <img src=""images/schematic_sequence/restaurant_scheme/restaurant_scheme_7.png"" class=""exp-image"">
                    <div class=""question-area"">
                        <p style=""font-size: 20px; font-weight: bold; margin: 0;"">Is there a person in this image?</p>
                    </div>
                </div>","1","main_experiment_trial","7","restaurant_scheme","schematic_sequence","","","","",""
"","","","","","html-keyboard-response","115","427193","0.0-115.0","E57DD25D89CF498BB27B6162FD394EDB","019cf0ad-5d23-7c9c-84ee-cb920c1fc9f9","019cf037-5203-781a-b900-108ccb1cab86","","null","
                <div class=""stimulus-container"">
                    <img src=""images/schematic_sequence/restaurant_scheme/restaurant_scheme_8.png"" class=""exp-image"">
                    <div class=""question-area""></div> 
                </div>","null","","","","","","","","",""
"","","","","","html-button-response","116","430200","0.0-116.0","E57DD25D89CF498BB27B6162FD394EDB","019cf0ad-5d23-7c9c-84ee-cb920c1fc9f9","019cf037-5203-781a-b900-108ccb1cab86","","null","
                <div class=""stimulus-container"">
                    <img src=""images/schematic_sequence/restaurant_scheme/restaurant_scheme_8.png"" class=""exp-image"">
                    <div class=""question-area"">
                        <p style=""font-size: 20px; font-weight: bold; margin: 0;"">Is there a person in this image?</p>
                    </div>
                </div>","null","main_experiment_trial","8","restaurant_scheme","schematic_sequence","","","","",""
"","","","","","html-keyboard-response","117","435208","0.0-117.0","E57DD25D89CF498BB27B6162FD394EDB","019cf0ad-5d23-7c9c-84ee-cb920c1fc9f9","019cf037-5203-781a-b900-108ccb1cab86","","null","
                <div class=""stimulus-container"">
                    <img src=""images/schematic_sequence/restaurant_scheme/restaurant_scheme_9.png"" class=""exp-image"">
                    <div class=""question-area""></div> 
                </div>","null","","","","","","","","",""
"","","","","","html-button-response","118","438213","0.0-118.0","E57DD25D89CF498BB27B6162FD394EDB","019cf0ad-5d23-7c9c-84ee-cb920c1fc9f9","019cf037-5203-781a-b900-108ccb1cab86","","null","
                <div class=""stimulus-container"">
                    <img src=""images/schematic_sequence/restaurant_scheme/restaurant_scheme_9.png"" class=""exp-image"">
                    <div class=""question-area"">
                        <p style=""font-size: 20px; font-weight: bold; margin: 0;"">Is there a person in this image?</p>
                    </div>
                </div>","null","main_experiment_trial","9","restaurant_scheme","schematic_sequence","","","","",""
"","","","","","html-keyboard-response","119","443231","0.0-119.0","E57DD25D89CF498BB27B6162FD394EDB","019cf0ad-5d23-7c9c-84ee-cb920c1fc9f9","019cf037-5203-781a-b900-108ccb1cab86","","null","
                <div class=""stimulus-container"">
                    <img src=""images/schematic_sequence/restaurant_scheme/restaurant_scheme_ten.png"" class=""exp-image"">
                    <div class=""question-area""></div> 
                </div>","null","","","","","","","","",""
"","","","","","html-button-response","120","446234","0.0-120.0","E57DD25D89CF498BB27B6162FD394EDB","019cf0ad-5d23-7c9c-84ee-cb920c1fc9f9","019cf037-5203-781a-b900-108ccb1cab86","","null","
                <div class=""stimulus-container"">
                    <img src=""images/schematic_sequence/restaurant_scheme/restaurant_scheme_ten.png"" class=""exp-image"">
                    <div class=""question-area"">
                        <p style=""font-size: 20px; font-weight: bold; margin: 0;"">Is there a person in this image?</p>
                    </div>
                </div>","null","main_experiment_trial","ten","restaurant_scheme","schematic_sequence","","","","",""
"","","","","","html-keyboard-response","121","447241","0.0-121.0","E57DD25D89CF498BB27B6162FD394EDB","019cf0ad-5d23-7c9c-84ee-cb920c1fc9f9","019cf037-5203-781a-b900-108ccb1cab86","","null","<div style=""background-color: white; width: 100vw; height: 100vh;""></div>","null","","","","","","","","",""
"","","","","","html-keyboard-response","122","452254","0.0-122.0","E57DD25D89CF498BB27B6162FD394EDB","019cf0ad-5d23-7c9c-84ee-cb920c1fc9f9","019cf037-5203-781a-b900-108ccb1cab86","","null","
                <div class=""stimulus-container"">
                    <img src=""images/causal_sequence/saving_a_cat_causal/saving_a_cat_causal_1.png"" class=""exp-image"">
                    <div class=""question-area""></div> 
                </div>","null","","","","","","","","",""
"","","","","","html-button-response","123","455267","0.0-123.0","E57DD25D89CF498BB27B6162FD394EDB","019cf0ad-5d23-7c9c-84ee-cb920c1fc9f9","019cf037-5203-781a-b900-108ccb1cab86","","null","
                <div class=""stimulus-container"">
                    <img src=""images/causal_sequence/saving_a_cat_causal/saving_a_cat_causal_1.png"" class=""exp-image"">
                    <div class=""question-area"">
                        <p style=""font-size: 20px; font-weight: bold; margin: 0;"">Is there a person in this image?</p>
                    </div>
                </div>","null","main_experiment_trial","1","saving_a_cat_causal","causal_sequence","","","","",""
"","","","","","html-keyboard-response","124","460277","0.0-124.0","E57DD25D89CF498BB27B6162FD394EDB","019cf0ad-5d23-7c9c-84ee-cb920c1fc9f9","019cf037-5203-781a-b900-108ccb1cab86","","null","
                <div class=""stimulus-container"">
                    <img src=""images/causal_sequence/saving_a_cat_causal/saving_a_cat_causal_2.png"" class=""exp-image"">
                    <div class=""question-area""></div> 
                </div>","null","","","","","","","","",""
"","","","","","html-button-response","125","463278","0.0-125.0","E57DD25D89CF498BB27B6162FD394EDB","019cf0ad-5d23-7c9c-84ee-cb920c1fc9f9","019cf037-5203-781a-b900-108ccb1cab86","","null","
                <div class=""stimulus-container"">
                    <img src=""images/causal_sequence/saving_a_cat_causal/saving_a_cat_causal_2.png"" class=""exp-image"">
                    <div class=""question-area"">
                        <p style=""font-size: 20px; font-weight: bold; margin: 0;"">Is there a person in this image?</p>
                    </div>
                </div>","null","main_experiment_trial","2","saving_a_cat_causal","causal_sequence","","","","",""
"","","","","","html-keyboard-response","126","468280","0.0-126.0","E57DD25D89CF498BB27B6162FD394EDB","019cf0ad-5d23-7c9c-84ee-cb920c1fc9f9","019cf037-5203-781a-b900-108ccb1cab86","","null","
                <div class=""stimulus-container"">
                    <img src=""images/causal_sequence/saving_a_cat_causal/saving_a_cat_causal_3.png"" class=""exp-image"">
                    <div class=""question-area""></div> 
                </div>","null","","","","","","","","",""
"","","","","","html-button-response","127","471293","0.0-127.0","E57DD25D89CF498BB27B6162FD394EDB","019cf0ad-5d23-7c9c-84ee-cb920c1fc9f9","019cf037-5203-781a-b900-108ccb1cab86","","null","
                <div class=""stimulus-container"">
                    <img src=""images/causal_sequence/saving_a_cat_causal/saving_a_cat_causal_3.png"" class=""exp-image"">
                    <div class=""question-area"">
                        <p style=""font-size: 20px; font-weight: bold; margin: 0;"">Is there a person in this image?</p>
                    </div>
                </div>","null","main_experiment_trial","3","saving_a_cat_causal","causal_sequence","","","","",""
"","","","","","html-keyboard-response","128","476300","0.0-128.0","E57DD25D89CF498BB27B6162FD394EDB","019cf0ad-5d23-7c9c-84ee-cb920c1fc9f9","019cf037-5203-781a-b900-108ccb1cab86","","null","
                <div class=""stimulus-container"">
                    <img src=""images/causal_sequence/saving_a_cat_causal/saving_a_cat_causal_4.png"" class=""exp-image"">
                    <div class=""question-area""></div> 
                </div>","null","","","","","","","","",""
"","","","","","html-button-response","129","479312","0.0-129.0","E57DD25D89CF498BB27B6162FD394EDB","019cf0ad-5d23-7c9c-84ee-cb920c1fc9f9","019cf037-5203-781a-b900-108ccb1cab86","","null","
                <div class=""stimulus-container"">
                    <img src=""images/causal_sequence/saving_a_cat_causal/saving_a_cat_causal_4.png"" class=""exp-image"">
                    <div class=""question-area"">
                        <p style=""font-size: 20px; font-weight: bold; margin: 0;"">Is there a person in this image?</p>
                    </div>
                </div>","null","main_experiment_trial","4","saving_a_cat_causal","causal_sequence","","","","",""
"","","","","","html-keyboard-response","130","484313","0.0-130.0","E57DD25D89CF498BB27B6162FD394EDB","019cf0ad-5d23-7c9c-84ee-cb920c1fc9f9","019cf037-5203-781a-b900-108ccb1cab86","","null","
                <div class=""stimulus-container"">
                    <img src=""images/causal_sequence/saving_a_cat_causal/saving_a_cat_causal_5.png"" class=""exp-image"">
                    <div class=""question-area""></div> 
                </div>","null","","","","","","","","",""
"","","","","","html-button-response","131","487327","0.0-131.0","E57DD25D89CF498BB27B6162FD394EDB","019cf0ad-5d23-7c9c-84ee-cb920c1fc9f9","019cf037-5203-781a-b900-108ccb1cab86","","null","
                <div class=""stimulus-container"">
                    <img src=""images/causal_sequence/saving_a_cat_causal/saving_a_cat_causal_5.png"" class=""exp-image"">
                    <div class=""question-area"">
                        <p style=""font-size: 20px; font-weight: bold; margin: 0;"">Is there a person in this image?</p>
                    </div>
                </div>","null","main_experiment_trial","5","saving_a_cat_causal","causal_sequence","","","","",""
"","","","","","html-keyboard-response","132","492332","0.0-132.0","E57DD25D89CF498BB27B6162FD394EDB","019cf0ad-5d23-7c9c-84ee-cb920c1fc9f9","019cf037-5203-781a-b900-108ccb1cab86","","null","
                <div class=""stimulus-container"">
                    <img src=""images/causal_sequence/saving_a_cat_causal/saving_a_cat_causal_6.png"" class=""exp-image"">
                    <div class=""question-area""></div> 
                </div>","null","","","","","","","","",""
"","","","","","html-button-response","133","495342","0.0-133.0","E57DD25D89CF498BB27B6162FD394EDB","019cf0ad-5d23-7c9c-84ee-cb920c1fc9f9","019cf037-5203-781a-b900-108ccb1cab86","","null","
                <div class=""stimulus-container"">
                    <img src=""images/causal_sequence/saving_a_cat_causal/saving_a_cat_causal_6.png"" class=""exp-image"">
                    <div class=""question-area"">
                        <p style=""font-size: 20px; font-weight: bold; margin: 0;"">Is there a person in this image?</p>
                    </div>
                </div>","null","main_experiment_trial","6","saving_a_cat_causal","causal_sequence","","","","",""
"","","","","","html-keyboard-response","134","500346","0.0-134.0","E57DD25D89CF498BB27B6162FD394EDB","019cf0ad-5d23-7c9c-84ee-cb920c1fc9f9","019cf037-5203-781a-b900-108ccb1cab86","","null","
                <div class=""stimulus-container"">
                    <img src=""images/causal_sequence/saving_a_cat_causal/saving_a_cat_causal_7.png"" class=""exp-image"">
                    <div class=""question-area""></div> 
                </div>","null","","","","","","","","",""
"","","","","","html-button-response","135","503353","0.0-135.0","E57DD25D89CF498BB27B6162FD394EDB","019cf0ad-5d23-7c9c-84ee-cb920c1fc9f9","019cf037-5203-781a-b900-108ccb1cab86","","null","
                <div class=""stimulus-container"">
                    <img src=""images/causal_sequence/saving_a_cat_causal/saving_a_cat_causal_7.png"" class=""exp-image"">
                    <div class=""question-area"">
                        <p style=""font-size: 20px; font-weight: bold; margin: 0;"">Is there a person in this image?</p>
                    </div>
                </div>","null","main_experiment_trial","7","saving_a_cat_causal","causal_sequence","","","","",""
"","","","","","html-keyboard-response","136","508355","0.0-136.0","E57DD25D89CF498BB27B6162FD394EDB","019cf0ad-5d23-7c9c-84ee-cb920c1fc9f9","019cf037-5203-781a-b900-108ccb1cab86","","null","
                <div class=""stimulus-container"">
                    <img src=""images/causal_sequence/saving_a_cat_causal/saving_a_cat_causal_8.png"" class=""exp-image"">
                    <div class=""question-area""></div> 
                </div>","null","","","","","","","","",""
"","","","","","html-button-response","137","511360","0.0-137.0","E57DD25D89CF498BB27B6162FD394EDB","019cf0ad-5d23-7c9c-84ee-cb920c1fc9f9","019cf037-5203-781a-b900-108ccb1cab86","","null","
                <div class=""stimulus-container"">
                    <img src=""images/causal_sequence/saving_a_cat_causal/saving_a_cat_causal_8.png"" class=""exp-image"">
                    <div class=""question-area"">
                        <p style=""font-size: 20px; font-weight: bold; margin: 0;"">Is there a person in this image?</p>
                    </div>
                </div>","null","main_experiment_trial","8","saving_a_cat_causal","causal_sequence","","","","",""
"","","","","","html-keyboard-response","138","516373","0.0-138.0","E57DD25D89CF498BB27B6162FD394EDB","019cf0ad-5d23-7c9c-84ee-cb920c1fc9f9","019cf037-5203-781a-b900-108ccb1cab86","","null","
                <div class=""stimulus-container"">
                    <img src=""images/causal_sequence/saving_a_cat_causal/saving_a_cat_causal_9.png"" class=""exp-image"">
                    <div class=""question-area""></div> 
                </div>","null","","","","","","","","",""
"","","","","","html-button-response","139","519386","0.0-139.0","E57DD25D89CF498BB27B6162FD394EDB","019cf0ad-5d23-7c9c-84ee-cb920c1fc9f9","019cf037-5203-781a-b900-108ccb1cab86","","null","
                <div class=""stimulus-container"">
                    <img src=""images/causal_sequence/saving_a_cat_causal/saving_a_cat_causal_9.png"" class=""exp-image"">
                    <div class=""question-area"">
                        <p style=""font-size: 20px; font-weight: bold; margin: 0;"">Is there a person in this image?</p>
                    </div>
                </div>","null","main_experiment_trial","9","saving_a_cat_causal","causal_sequence","","","","",""
"","","","","","html-keyboard-response","140","524401","0.0-140.0","E57DD25D89CF498BB27B6162FD394EDB","019cf0ad-5d23-7c9c-84ee-cb920c1fc9f9","019cf037-5203-781a-b900-108ccb1cab86","","null","
                <div class=""stimulus-container"">
                    <img src=""images/causal_sequence/saving_a_cat_causal/saving_a_cat_causal_ten.png"" class=""exp-image"">
                    <div class=""question-area""></div> 
                </div>","null","","","","","","","","",""
"","","","","","html-button-response","141","526918","0.0-141.0","E57DD25D89CF498BB27B6162FD394EDB","019cf0ad-5d23-7c9c-84ee-cb920c1fc9f9","019cf037-5203-781a-b900-108ccb1cab86","","2516","
                <div class=""stimulus-container"">
                    <img src=""images/causal_sequence/saving_a_cat_causal/saving_a_cat_causal_ten.png"" class=""exp-image"">
                    <div class=""question-area"">
                        <p style=""font-size: 20px; font-weight: bold; margin: 0;"">Is there a person in this image?</p>
                    </div>
                </div>","1","main_experiment_trial","ten","saving_a_cat_causal","causal_sequence","","","","",""
"","","","","","html-keyboard-response","142","527920","0.0-142.0","E57DD25D89CF498BB27B6162FD394EDB","019cf0ad-5d23-7c9c-84ee-cb920c1fc9f9","019cf037-5203-781a-b900-108ccb1cab86","","null","<div style=""background-color: white; width: 100vw; height: 100vh;""></div>","null","","","","","","","","",""
"","","","","","html-keyboard-response","143","532924","0.0-143.0","E57DD25D89CF498BB27B6162FD394EDB","019cf0ad-5d23-7c9c-84ee-cb920c1fc9f9","019cf037-5203-781a-b900-108ccb1cab86","","null","
                <div class=""stimulus-container"">
                    <img src=""images/schematic_sequence/flight_scheme/flight_scheme_1.png"" class=""exp-image"">
                    <div class=""question-area""></div> 
                </div>","null","","","","","","","","",""
"","","","","","html-button-response","144","535940","0.0-144.0","E57DD25D89CF498BB27B6162FD394EDB","019cf0ad-5d23-7c9c-84ee-cb920c1fc9f9","019cf037-5203-781a-b900-108ccb1cab86","","null","
                <div class=""stimulus-container"">
                    <img src=""images/schematic_sequence/flight_scheme/flight_scheme_1.png"" class=""exp-image"">
                    <div class=""question-area"">
                        <p style=""font-size: 20px; font-weight: bold; margin: 0;"">Is there a person in this image?</p>
                    </div>
                </div>","null","main_experiment_trial","1","flight_scheme","schematic_sequence","","","","",""
"","","","","","html-keyboard-response","145","540947","0.0-145.0","E57DD25D89CF498BB27B6162FD394EDB","019cf0ad-5d23-7c9c-84ee-cb920c1fc9f9","019cf037-5203-781a-b900-108ccb1cab86","","null","
                <div class=""stimulus-container"">
                    <img src=""images/schematic_sequence/flight_scheme/flight_scheme_2.png"" class=""exp-image"">
                    <div class=""question-area""></div> 
                </div>","null","","","","","","","","",""
"","","","","","html-button-response","146","543963","0.0-146.0","E57DD25D89CF498BB27B6162FD394EDB","019cf0ad-5d23-7c9c-84ee-cb920c1fc9f9","019cf037-5203-781a-b900-108ccb1cab86","","null","
                <div class=""stimulus-container"">
                    <img src=""images/schematic_sequence/flight_scheme/flight_scheme_2.png"" class=""exp-image"">
                    <div class=""question-area"">
                        <p style=""font-size: 20px; font-weight: bold; margin: 0;"">Is there a person in this image?</p>
                    </div>
                </div>","null","main_experiment_trial","2","flight_scheme","schematic_sequence","","","","",""
"","","","","","html-keyboard-response","147","548972","0.0-147.0","E57DD25D89CF498BB27B6162FD394EDB","019cf0ad-5d23-7c9c-84ee-cb920c1fc9f9","019cf037-5203-781a-b900-108ccb1cab86","","null","
                <div class=""stimulus-container"">
                    <img src=""images/schematic_sequence/flight_scheme/flight_scheme_3.png"" class=""exp-image"">
                    <div class=""question-area""></div> 
                </div>","null","","","","","","","","",""
"","","","","","html-button-response","148","551983","0.0-148.0","E57DD25D89CF498BB27B6162FD394EDB","019cf0ad-5d23-7c9c-84ee-cb920c1fc9f9","019cf037-5203-781a-b900-108ccb1cab86","","null","
                <div class=""stimulus-container"">
                    <img src=""images/schematic_sequence/flight_scheme/flight_scheme_3.png"" class=""exp-image"">
                    <div class=""question-area"">
                        <p style=""font-size: 20px; font-weight: bold; margin: 0;"">Is there a person in this image?</p>
                    </div>
                </div>","null","main_experiment_trial","3","flight_scheme","schematic_sequence","","","","",""
"","","","","","html-keyboard-response","149","556986","0.0-149.0","E57DD25D89CF498BB27B6162FD394EDB","019cf0ad-5d23-7c9c-84ee-cb920c1fc9f9","019cf037-5203-781a-b900-108ccb1cab86","","null","
                <div class=""stimulus-container"">
                    <img src=""images/schematic_sequence/flight_scheme/flight_scheme_4.png"" class=""exp-image"">
                    <div class=""question-area""></div> 
                </div>","null","","","","","","","","",""
"","","","","","html-button-response","150","559987","0.0-150.0","E57DD25D89CF498BB27B6162FD394EDB","019cf0ad-5d23-7c9c-84ee-cb920c1fc9f9","019cf037-5203-781a-b900-108ccb1cab86","","null","
                <div class=""stimulus-container"">
                    <img src=""images/schematic_sequence/flight_scheme/flight_scheme_4.png"" class=""exp-image"">
                    <div class=""question-area"">
                        <p style=""font-size: 20px; font-weight: bold; margin: 0;"">Is there a person in this image?</p>
                    </div>
                </div>","null","main_experiment_trial","4","flight_scheme","schematic_sequence","","","","",""
"","","","","","html-keyboard-response","151","565003","0.0-151.0","E57DD25D89CF498BB27B6162FD394EDB","019cf0ad-5d23-7c9c-84ee-cb920c1fc9f9","019cf037-5203-781a-b900-108ccb1cab86","","null","
                <div class=""stimulus-container"">
                    <img src=""images/schematic_sequence/flight_scheme/flight_scheme_5.png"" class=""exp-image"">
                    <div class=""question-area""></div> 
                </div>","null","","","","","","","","",""
"","","","","","html-button-response","152","568013","0.0-152.0","E57DD25D89CF498BB27B6162FD394EDB","019cf0ad-5d23-7c9c-84ee-cb920c1fc9f9","019cf037-5203-781a-b900-108ccb1cab86","","null","
                <div class=""stimulus-container"">
                    <img src=""images/schematic_sequence/flight_scheme/flight_scheme_5.png"" class=""exp-image"">
                    <div class=""question-area"">
                        <p style=""font-size: 20px; font-weight: bold; margin: 0;"">Is there a person in this image?</p>
                    </div>
                </div>","null","main_experiment_trial","5","flight_scheme","schematic_sequence","","","","",""
"","","","","","html-keyboard-response","153","573023","0.0-153.0","E57DD25D89CF498BB27B6162FD394EDB","019cf0ad-5d23-7c9c-84ee-cb920c1fc9f9","019cf037-5203-781a-b900-108ccb1cab86","","null","
                <div class=""stimulus-container"">
                    <img src=""images/schematic_sequence/flight_scheme/flight_scheme_6.png"" class=""exp-image"">
                    <div class=""question-area""></div> 
                </div>","null","","","","","","","","",""
"","","","","","html-button-response","154","576038","0.0-154.0","E57DD25D89CF498BB27B6162FD394EDB","019cf0ad-5d23-7c9c-84ee-cb920c1fc9f9","019cf037-5203-781a-b900-108ccb1cab86","","null","
                <div class=""stimulus-container"">
                    <img src=""images/schematic_sequence/flight_scheme/flight_scheme_6.png"" class=""exp-image"">
                    <div class=""question-area"">
                        <p style=""font-size: 20px; font-weight: bold; margin: 0;"">Is there a person in this image?</p>
                    </div>
                </div>","null","main_experiment_trial","6","flight_scheme","schematic_sequence","","","","",""
"","","","","","html-keyboard-response","155","581039","0.0-155.0","E57DD25D89CF498BB27B6162FD394EDB","019cf0ad-5d23-7c9c-84ee-cb920c1fc9f9","019cf037-5203-781a-b900-108ccb1cab86","","null","
                <div class=""stimulus-container"">
                    <img src=""images/schematic_sequence/flight_scheme/flight_scheme_7.png"" class=""exp-image"">
                    <div class=""question-area""></div> 
                </div>","null","","","","","","","","",""
"","","","","","html-button-response","156","584055","0.0-156.0","E57DD25D89CF498BB27B6162FD394EDB","019cf0ad-5d23-7c9c-84ee-cb920c1fc9f9","019cf037-5203-781a-b900-108ccb1cab86","","null","
                <div class=""stimulus-container"">
                    <img src=""images/schematic_sequence/flight_scheme/flight_scheme_7.png"" class=""exp-image"">
                    <div class=""question-area"">
                        <p style=""font-size: 20px; font-weight: bold; margin: 0;"">Is there a person in this image?</p>
                    </div>
                </div>","null","main_experiment_trial","7","flight_scheme","schematic_sequence","","","","",""
"","","","","","html-keyboard-response","157","589062","0.0-157.0","E57DD25D89CF498BB27B6162FD394EDB","019cf0ad-5d23-7c9c-84ee-cb920c1fc9f9","019cf037-5203-781a-b900-108ccb1cab86","","null","
                <div class=""stimulus-container"">
                    <img src=""images/schematic_sequence/flight_scheme/flight_scheme_8.png"" class=""exp-image"">
                    <div class=""question-area""></div> 
                </div>","null","","","","","","","","",""
"","","","","","html-button-response","158","592078","0.0-158.0","E57DD25D89CF498BB27B6162FD394EDB","019cf0ad-5d23-7c9c-84ee-cb920c1fc9f9","019cf037-5203-781a-b900-108ccb1cab86","","null","
                <div class=""stimulus-container"">
                    <img src=""images/schematic_sequence/flight_scheme/flight_scheme_8.png"" class=""exp-image"">
                    <div class=""question-area"">
                        <p style=""font-size: 20px; font-weight: bold; margin: 0;"">Is there a person in this image?</p>
                    </div>
                </div>","null","main_experiment_trial","8","flight_scheme","schematic_sequence","","","","",""
"","","","","","html-keyboard-response","159","597087","0.0-159.0","E57DD25D89CF498BB27B6162FD394EDB","019cf0ad-5d23-7c9c-84ee-cb920c1fc9f9","019cf037-5203-781a-b900-108ccb1cab86","","null","
                <div class=""stimulus-container"">
                    <img src=""images/schematic_sequence/flight_scheme/flight_scheme_9.png"" class=""exp-image"">
                    <div class=""question-area""></div> 
                </div>","null","","","","","","","","",""
"","","","","","html-button-response","160","600100","0.0-160.0","E57DD25D89CF498BB27B6162FD394EDB","019cf0ad-5d23-7c9c-84ee-cb920c1fc9f9","019cf037-5203-781a-b900-108ccb1cab86","","null","
                <div class=""stimulus-container"">
                    <img src=""images/schematic_sequence/flight_scheme/flight_scheme_9.png"" class=""exp-image"">
                    <div class=""question-area"">
                        <p style=""font-size: 20px; font-weight: bold; margin: 0;"">Is there a person in this image?</p>
                    </div>
                </div>","null","main_experiment_trial","9","flight_scheme","schematic_sequence","","","","",""
"","","","","","html-keyboard-response","161","605101","0.0-161.0","E57DD25D89CF498BB27B6162FD394EDB","019cf0ad-5d23-7c9c-84ee-cb920c1fc9f9","019cf037-5203-781a-b900-108ccb1cab86","","null","
                <div class=""stimulus-container"">
                    <img src=""images/schematic_sequence/flight_scheme/flight_scheme_ten.png"" class=""exp-image"">
                    <div class=""question-area""></div> 
                </div>","null","","","","","","","","",""
"","","","","","html-button-response","162","608116","0.0-162.0","E57DD25D89CF498BB27B6162FD394EDB","019cf0ad-5d23-7c9c-84ee-cb920c1fc9f9","019cf037-5203-781a-b900-108ccb1cab86","","null","
                <div class=""stimulus-container"">
                    <img src=""images/schematic_sequence/flight_scheme/flight_scheme_ten.png"" class=""exp-image"">
                    <div class=""question-area"">
                        <p style=""font-size: 20px; font-weight: bold; margin: 0;"">Is there a person in this image?</p>
                    </div>
                </div>","null","main_experiment_trial","ten","flight_scheme","schematic_sequence","","","","",""
"","","","","","html-keyboard-response","163","609127","0.0-163.0","E57DD25D89CF498BB27B6162FD394EDB","019cf0ad-5d23-7c9c-84ee-cb920c1fc9f9","019cf037-5203-781a-b900-108ccb1cab86","","null","<div style=""background-color: white; width: 100vw; height: 100vh;""></div>","null","","","","","","","","",""
"","","","","","html-keyboard-response","164","614144","0.0-164.0","E57DD25D89CF498BB27B6162FD394EDB","019cf0ad-5d23-7c9c-84ee-cb920c1fc9f9","019cf037-5203-781a-b900-108ccb1cab86","","null","
                <div class=""stimulus-container"">
                    <img src=""images/causal_sequence/package_causal/package_causal_1.png"" class=""exp-image"">
                    <div class=""question-area""></div> 
                </div>","null","","","","","","","","",""
"","","","","","html-button-response","165","617167","0.0-165.0","E57DD25D89CF498BB27B6162FD394EDB","019cf0ad-5d23-7c9c-84ee-cb920c1fc9f9","019cf037-5203-781a-b900-108ccb1cab86","","null","
                <div class=""stimulus-container"">
                    <img src=""images/causal_sequence/package_causal/package_causal_1.png"" class=""exp-image"">
                    <div class=""question-area"">
                        <p style=""font-size: 20px; font-weight: bold; margin: 0;"">Is there a person in this image?</p>
                    </div>
                </div>","null","main_experiment_trial","1","package_causal","causal_sequence","","","","",""
"","","","","","html-keyboard-response","166","622181","0.0-166.0","E57DD25D89CF498BB27B6162FD394EDB","019cf0ad-5d23-7c9c-84ee-cb920c1fc9f9","019cf037-5203-781a-b900-108ccb1cab86","","null","
                <div class=""stimulus-container"">
                    <img src=""images/causal_sequence/package_causal/package_causal_2.png"" class=""exp-image"">
                    <div class=""question-area""></div> 
                </div>","null","","","","","","","","",""
"","","","","","html-button-response","167","625187","0.0-167.0","E57DD25D89CF498BB27B6162FD394EDB","019cf0ad-5d23-7c9c-84ee-cb920c1fc9f9","019cf037-5203-781a-b900-108ccb1cab86","","null","
                <div class=""stimulus-container"">
                    <img src=""images/causal_sequence/package_causal/package_causal_2.png"" class=""exp-image"">
                    <div class=""question-area"">
                        <p style=""font-size: 20px; font-weight: bold; margin: 0;"">Is there a person in this image?</p>
                    </div>
                </div>","null","main_experiment_trial","2","package_causal","causal_sequence","","","","",""
"","","","","","html-keyboard-response","168","630192","0.0-168.0","E57DD25D89CF498BB27B6162FD394EDB","019cf0ad-5d23-7c9c-84ee-cb920c1fc9f9","019cf037-5203-781a-b900-108ccb1cab86","","null","
                <div class=""stimulus-container"">
                    <img src=""images/causal_sequence/package_causal/package_causal_3.png"" class=""exp-image"">
                    <div class=""question-area""></div> 
                </div>","null","","","","","","","","",""
"","","","","","html-button-response","169","633201","0.0-169.0","E57DD25D89CF498BB27B6162FD394EDB","019cf0ad-5d23-7c9c-84ee-cb920c1fc9f9","019cf037-5203-781a-b900-108ccb1cab86","","null","
                <div class=""stimulus-container"">
                    <img src=""images/causal_sequence/package_causal/package_causal_3.png"" class=""exp-image"">
                    <div class=""question-area"">
                        <p style=""font-size: 20px; font-weight: bold; margin: 0;"">Is there a person in this image?</p>
                    </div>
                </div>","null","main_experiment_trial","3","package_causal","causal_sequence","","","","",""
"","","","","","html-keyboard-response","170","638215","0.0-170.0","E57DD25D89CF498BB27B6162FD394EDB","019cf0ad-5d23-7c9c-84ee-cb920c1fc9f9","019cf037-5203-781a-b900-108ccb1cab86","","null","
                <div class=""stimulus-container"">
                    <img src=""images/causal_sequence/package_causal/package_causal_4.png"" class=""exp-image"">
                    <div class=""question-area""></div> 
                </div>","null","","","","","","","","",""
"","","","","","html-button-response","171","641218","0.0-171.0","E57DD25D89CF498BB27B6162FD394EDB","019cf0ad-5d23-7c9c-84ee-cb920c1fc9f9","019cf037-5203-781a-b900-108ccb1cab86","","null","
                <div class=""stimulus-container"">
                    <img src=""images/causal_sequence/package_causal/package_causal_4.png"" class=""exp-image"">
                    <div class=""question-area"">
                        <p style=""font-size: 20px; font-weight: bold; margin: 0;"">Is there a person in this image?</p>
                    </div>
                </div>","null","main_experiment_trial","4","package_causal","causal_sequence","","","","",""
"","","","","","html-keyboard-response","172","646219","0.0-172.0","E57DD25D89CF498BB27B6162FD394EDB","019cf0ad-5d23-7c9c-84ee-cb920c1fc9f9","019cf037-5203-781a-b900-108ccb1cab86","","null","
                <div class=""stimulus-container"">
                    <img src=""images/causal_sequence/package_causal/package_causal_5.png"" class=""exp-image"">
                    <div class=""question-area""></div> 
                </div>","null","","","","","","","","",""
"","","","","","html-button-response","173","649226","0.0-173.0","E57DD25D89CF498BB27B6162FD394EDB","019cf0ad-5d23-7c9c-84ee-cb920c1fc9f9","019cf037-5203-781a-b900-108ccb1cab86","","null","
                <div class=""stimulus-container"">
                    <img src=""images/causal_sequence/package_causal/package_causal_5.png"" class=""exp-image"">
                    <div class=""question-area"">
                        <p style=""font-size: 20px; font-weight: bold; margin: 0;"">Is there a person in this image?</p>
                    </div>
                </div>","null","main_experiment_trial","5","package_causal","causal_sequence","","","","",""
"","","","","","html-keyboard-response","174","654241","0.0-174.0","E57DD25D89CF498BB27B6162FD394EDB","019cf0ad-5d23-7c9c-84ee-cb920c1fc9f9","019cf037-5203-781a-b900-108ccb1cab86","","null","
                <div class=""stimulus-container"">
                    <img src=""images/causal_sequence/package_causal/package_causal_6.png"" class=""exp-image"">
                    <div class=""question-area""></div> 
                </div>","null","","","","","","","","",""
"","","","","","html-button-response","175","657245","0.0-175.0","E57DD25D89CF498BB27B6162FD394EDB","019cf0ad-5d23-7c9c-84ee-cb920c1fc9f9","019cf037-5203-781a-b900-108ccb1cab86","","null","
                <div class=""stimulus-container"">
                    <img src=""images/causal_sequence/package_causal/package_causal_6.png"" class=""exp-image"">
                    <div class=""question-area"">
                        <p style=""font-size: 20px; font-weight: bold; margin: 0;"">Is there a person in this image?</p>
                    </div>
                </div>","null","main_experiment_trial","6","package_causal","causal_sequence","","","","",""
"","","","","","html-keyboard-response","176","662255","0.0-176.0","E57DD25D89CF498BB27B6162FD394EDB","019cf0ad-5d23-7c9c-84ee-cb920c1fc9f9","019cf037-5203-781a-b900-108ccb1cab86","","null","
                <div class=""stimulus-container"">
                    <img src=""images/causal_sequence/package_causal/package_causal_7.png"" class=""exp-image"">
                    <div class=""question-area""></div> 
                </div>","null","","","","","","","","",""
"","","","","","html-button-response","177","665271","0.0-177.0","E57DD25D89CF498BB27B6162FD394EDB","019cf0ad-5d23-7c9c-84ee-cb920c1fc9f9","019cf037-5203-781a-b900-108ccb1cab86","","null","
                <div class=""stimulus-container"">
                    <img src=""images/causal_sequence/package_causal/package_causal_7.png"" class=""exp-image"">
                    <div class=""question-area"">
                        <p style=""font-size: 20px; font-weight: bold; margin: 0;"">Is there a person in this image?</p>
                    </div>
                </div>","null","main_experiment_trial","7","package_causal","causal_sequence","","","","",""
"","","","","","html-keyboard-response","178","670277","0.0-178.0","E57DD25D89CF498BB27B6162FD394EDB","019cf0ad-5d23-7c9c-84ee-cb920c1fc9f9","019cf037-5203-781a-b900-108ccb1cab86","","null","
                <div class=""stimulus-container"">
                    <img src=""images/causal_sequence/package_causal/package_causal_8.png"" class=""exp-image"">
                    <div class=""question-area""></div> 
                </div>","null","","","","","","","","",""
"","","","","","html-button-response","179","673290","0.0-179.0","E57DD25D89CF498BB27B6162FD394EDB","019cf0ad-5d23-7c9c-84ee-cb920c1fc9f9","019cf037-5203-781a-b900-108ccb1cab86","","null","
                <div class=""stimulus-container"">
                    <img src=""images/causal_sequence/package_causal/package_causal_8.png"" class=""exp-image"">
                    <div class=""question-area"">
                        <p style=""font-size: 20px; font-weight: bold; margin: 0;"">Is there a person in this image?</p>
                    </div>
                </div>","null","main_experiment_trial","8","package_causal","causal_sequence","","","","",""
"","","","","","html-keyboard-response","180","678293","0.0-180.0","E57DD25D89CF498BB27B6162FD394EDB","019cf0ad-5d23-7c9c-84ee-cb920c1fc9f9","019cf037-5203-781a-b900-108ccb1cab86","","null","
                <div class=""stimulus-container"">
                    <img src=""images/causal_sequence/package_causal/package_causal_9.png"" class=""exp-image"">
                    <div class=""question-area""></div> 
                </div>","null","","","","","","","","",""
"","","","","","html-button-response","181","681297","0.0-181.0","E57DD25D89CF498BB27B6162FD394EDB","019cf0ad-5d23-7c9c-84ee-cb920c1fc9f9","019cf037-5203-781a-b900-108ccb1cab86","","null","
                <div class=""stimulus-container"">
                    <img src=""images/causal_sequence/package_causal/package_causal_9.png"" class=""exp-image"">
                    <div class=""question-area"">
                        <p style=""font-size: 20px; font-weight: bold; margin: 0;"">Is there a person in this image?</p>
                    </div>
                </div>","null","main_experiment_trial","9","package_causal","causal_sequence","","","","",""
"","","","","","html-keyboard-response","182","686305","0.0-182.0","E57DD25D89CF498BB27B6162FD394EDB","019cf0ad-5d23-7c9c-84ee-cb920c1fc9f9","019cf037-5203-781a-b900-108ccb1cab86","","null","
                <div class=""stimulus-container"">
                    <img src=""images/causal_sequence/package_causal/package_causal_ten.png"" class=""exp-image"">
                    <div class=""question-area""></div> 
                </div>","null","","","","","","","","",""
"","","","","","html-button-response","183","689308","0.0-183.0","E57DD25D89CF498BB27B6162FD394EDB","019cf0ad-5d23-7c9c-84ee-cb920c1fc9f9","019cf037-5203-781a-b900-108ccb1cab86","","null","
