"success","timeout","failed_images","failed_audio","failed_video","trial_type","trial_index","time_elapsed","internal_node_id","subject_id","study_id","session_id","view_history","rt","stimulus","response","task","image_index","folder","sequence_type","valuable_image_index","reward_type","chosen_image_index","target_X","correct_choice"
"true","false","[]","[]","[]","preload","0","14912","0.0-0.0","21FECDFF909C41CBA8B80536DBB22052","019cf09f-d1d8-7f5e-a6a5-d99a1c5d458f","019cf037-5203-781a-b900-108ccb1cab86","","","","","","","","","","","","",""
"","","","","","instructions","1","18499","0.0-1.0","21FECDFF909C41CBA8B80536DBB22052","019cf09f-d1d8-7f5e-a6a5-d99a1c5d458f","019cf037-5203-781a-b900-108ccb1cab86","[{""page_index"":0,""viewing_time"":3585}]","3586","","","","","","","","","","",""
"","","","","","instructions","2","63165","0.0-2.0","21FECDFF909C41CBA8B80536DBB22052","019cf09f-d1d8-7f5e-a6a5-d99a1c5d458f","019cf037-5203-781a-b900-108ccb1cab86","[{""page_index"":0,""viewing_time"":44667}]","44667","","","","","","","","","","",""
"true","","","","","fullscreen","3","66782","0.0-3.0","21FECDFF909C41CBA8B80536DBB22052","019cf09f-d1d8-7f5e-a6a5-d99a1c5d458f","019cf037-5203-781a-b900-108ccb1cab86","","2614","","","","","","","","","","",""
"","","","","","instructions","4","76762","0.0-4.0","21FECDFF909C41CBA8B80536DBB22052","019cf09f-d1d8-7f5e-a6a5-d99a1c5d458f","019cf037-5203-781a-b900-108ccb1cab86","[{""page_index"":0,""viewing_time"":9980}]","9980","","","","","","","","","","",""
"","","","","","instructions","5","81980","0.0-5.0","21FECDFF909C41CBA8B80536DBB22052","019cf09f-d1d8-7f5e-a6a5-d99a1c5d458f","019cf037-5203-781a-b900-108ccb1cab86","[{""page_index"":0,""viewing_time"":5217}]","5217","","","","","","","","","","",""
"","","","","","html-keyboard-response","6","85983","0.0-6.0","21FECDFF909C41CBA8B80536DBB22052","019cf09f-d1d8-7f5e-a6a5-d99a1c5d458f","019cf037-5203-781a-b900-108ccb1cab86","","null","
                <div class=""stimulus-container"">
                    <img src=""images/instructions/movie_1.png"" class=""exp-image"">
                    <div class=""question-area""></div> 
                </div>","null","","","","","","","","",""
"","","","","","html-button-response","7","87527","0.0-7.0","21FECDFF909C41CBA8B80536DBB22052","019cf09f-d1d8-7f5e-a6a5-d99a1c5d458f","019cf037-5203-781a-b900-108ccb1cab86","","1542","
                <div class=""stimulus-container"">
                    <img src=""images/instructions/movie_1.png"" class=""exp-image"">
                    <div class=""question-area"">
                        <p style=""font-size: 20px; font-weight: bold; margin: 0;"">Was there a person in this image?</p>
                    </div>
                </div>","0","example_question","1","","","","","","",""
"","","","","","html-keyboard-response","8","91529","0.0-8.0","21FECDFF909C41CBA8B80536DBB22052","019cf09f-d1d8-7f5e-a6a5-d99a1c5d458f","019cf037-5203-781a-b900-108ccb1cab86","","null","
                <div class=""stimulus-container"">
                    <img src=""images/instructions/movie_2.png"" class=""exp-image"">
                    <div class=""question-area""></div> 
                </div>","null","","","","","","","","",""
"","","","","","html-button-response","9","92630","0.0-9.0","21FECDFF909C41CBA8B80536DBB22052","019cf09f-d1d8-7f5e-a6a5-d99a1c5d458f","019cf037-5203-781a-b900-108ccb1cab86","","1100","
                <div class=""stimulus-container"">
                    <img src=""images/instructions/movie_2.png"" class=""exp-image"">
                    <div class=""question-area"">
                        <p style=""font-size: 20px; font-weight: bold; margin: 0;"">Was there a person in this image?</p>
                    </div>
                </div>","1","example_question","2","","","","","","",""
"","","","","","html-keyboard-response","10","96632","0.0-10.0","21FECDFF909C41CBA8B80536DBB22052","019cf09f-d1d8-7f5e-a6a5-d99a1c5d458f","019cf037-5203-781a-b900-108ccb1cab86","","null","
                <div class=""stimulus-container"">
                    <img src=""images/instructions/movie_3.png"" class=""exp-image"">
                    <div class=""question-area""></div> 
                </div>","null","","","","","","","","",""
"","","","","","html-button-response","11","97379","0.0-11.0","21FECDFF909C41CBA8B80536DBB22052","019cf09f-d1d8-7f5e-a6a5-d99a1c5d458f","019cf037-5203-781a-b900-108ccb1cab86","","746","
                <div class=""stimulus-container"">
                    <img src=""images/instructions/movie_3.png"" class=""exp-image"">
                    <div class=""question-area"">
                        <p style=""font-size: 20px; font-weight: bold; margin: 0;"">Was there a person in this image?</p>
                    </div>
                </div>","0","example_question","3","","","","","","",""
"","","","","","html-keyboard-response","12","101381","0.0-12.0","21FECDFF909C41CBA8B80536DBB22052","019cf09f-d1d8-7f5e-a6a5-d99a1c5d458f","019cf037-5203-781a-b900-108ccb1cab86","","null","
                <div class=""stimulus-container"">
                    <img src=""images/instructions/movie_4.png"" class=""exp-image"">
                    <div class=""question-area""></div> 
                </div>","null","","","","","","","","",""
"","","","","","html-button-response","13","102212","0.0-13.0","21FECDFF909C41CBA8B80536DBB22052","019cf09f-d1d8-7f5e-a6a5-d99a1c5d458f","019cf037-5203-781a-b900-108ccb1cab86","","829","
                <div class=""stimulus-container"">
                    <img src=""images/instructions/movie_4.png"" class=""exp-image"">
                    <div class=""question-area"">
                        <p style=""font-size: 20px; font-weight: bold; margin: 0;"">Was there a person in this image?</p>
                    </div>
                </div>","0","example_question","4","","","","","","",""
"","","","","","instructions","14","1102573","0.0-14.0","21FECDFF909C41CBA8B80536DBB22052","019cf09f-d1d8-7f5e-a6a5-d99a1c5d458f","019cf037-5203-781a-b900-108ccb1cab86","[{""page_index"":0,""viewing_time"":1000407}]","1000407","","","","","","","","","","",""
"","","","","","instructions","15","1105656","0.0-15.0","21FECDFF909C41CBA8B80536DBB22052","019cf09f-d1d8-7f5e-a6a5-d99a1c5d458f","019cf037-5203-781a-b900-108ccb1cab86","[{""page_index"":0,""viewing_time"":3082}]","3083","","","","","","","","","","",""
"","","","","","html-keyboard-response","16","1106657","0.0-16.0","21FECDFF909C41CBA8B80536DBB22052","019cf09f-d1d8-7f5e-a6a5-d99a1c5d458f","019cf037-5203-781a-b900-108ccb1cab86","","null","<div style=""background-color: white; width: 100vw; height: 100vh;""></div>","null","","","","","","","","",""
"","","","","","html-keyboard-response","17","1111660","0.0-17.0","21FECDFF909C41CBA8B80536DBB22052","019cf09f-d1d8-7f5e-a6a5-d99a1c5d458f","019cf037-5203-781a-b900-108ccb1cab86","","null","
                <div class=""stimulus-container"">
                    <img src=""images/causal_sequence/coin_causal/coin_causal_1.png"" class=""exp-image"">
                    <div class=""question-area""></div> 
                </div>","null","","","","","","","","",""
"","","","","","html-button-response","18","1112488","0.0-18.0","21FECDFF909C41CBA8B80536DBB22052","019cf09f-d1d8-7f5e-a6a5-d99a1c5d458f","019cf037-5203-781a-b900-108ccb1cab86","","827","
                <div class=""stimulus-container"">
                    <img src=""images/causal_sequence/coin_causal/coin_causal_1.png"" class=""exp-image"">
                    <div class=""question-area"">
                        <p style=""font-size: 20px; font-weight: bold; margin: 0;"">Is there a person in this image?</p>
                    </div>
                </div>","0","main_experiment_trial","1","coin_causal","causal_sequence","","","","",""
"","","","","","html-keyboard-response","19","1117490","0.0-19.0","21FECDFF909C41CBA8B80536DBB22052","019cf09f-d1d8-7f5e-a6a5-d99a1c5d458f","019cf037-5203-781a-b900-108ccb1cab86","","null","
                <div class=""stimulus-container"">
                    <img src=""images/causal_sequence/coin_causal/coin_causal_2.png"" class=""exp-image"">
                    <div class=""question-area""></div> 
                </div>","null","","","","","","","","",""
"","","","","","html-button-response","20","1118206","0.0-20.0","21FECDFF909C41CBA8B80536DBB22052","019cf09f-d1d8-7f5e-a6a5-d99a1c5d458f","019cf037-5203-781a-b900-108ccb1cab86","","714","
                <div class=""stimulus-container"">
                    <img src=""images/causal_sequence/coin_causal/coin_causal_2.png"" class=""exp-image"">
                    <div class=""question-area"">
                        <p style=""font-size: 20px; font-weight: bold; margin: 0;"">Is there a person in this image?</p>
                    </div>
                </div>","0","main_experiment_trial","2","coin_causal","causal_sequence","","","","",""
"","","","","","html-keyboard-response","21","1123209","0.0-21.0","21FECDFF909C41CBA8B80536DBB22052","019cf09f-d1d8-7f5e-a6a5-d99a1c5d458f","019cf037-5203-781a-b900-108ccb1cab86","","null","
                <div class=""stimulus-container"">
                    <img src=""images/causal_sequence/coin_causal/coin_causal_3.png"" class=""exp-image"">
                    <div class=""question-area""></div> 
                </div>","null","","","","","","","","",""
"","","","","","html-button-response","22","1124240","0.0-22.0","21FECDFF909C41CBA8B80536DBB22052","019cf09f-d1d8-7f5e-a6a5-d99a1c5d458f","019cf037-5203-781a-b900-108ccb1cab86","","1030","
                <div class=""stimulus-container"">
                    <img src=""images/causal_sequence/coin_causal/coin_causal_3.png"" class=""exp-image"">
                    <div class=""question-area"">
                        <p style=""font-size: 20px; font-weight: bold; margin: 0;"">Is there a person in this image?</p>
                    </div>
                </div>","0","main_experiment_trial","3","coin_causal","causal_sequence","","","","",""
"","","","","","html-keyboard-response","23","1129243","0.0-23.0","21FECDFF909C41CBA8B80536DBB22052","019cf09f-d1d8-7f5e-a6a5-d99a1c5d458f","019cf037-5203-781a-b900-108ccb1cab86","","null","
                <div class=""stimulus-container"">
                    <img src=""images/causal_sequence/coin_causal/coin_causal_4.png"" class=""exp-image"">
                    <div class=""question-area""></div> 
                </div>","null","","","","","","","","",""
"","","","","","html-button-response","24","1130240","0.0-24.0","21FECDFF909C41CBA8B80536DBB22052","019cf09f-d1d8-7f5e-a6a5-d99a1c5d458f","019cf037-5203-781a-b900-108ccb1cab86","","995","
                <div class=""stimulus-container"">
                    <img src=""images/causal_sequence/coin_causal/coin_causal_4.png"" class=""exp-image"">
                    <div class=""question-area"">
                        <p style=""font-size: 20px; font-weight: bold; margin: 0;"">Is there a person in this image?</p>
                    </div>
                </div>","0","main_experiment_trial","4","coin_causal","causal_sequence","","","","",""
"","","","","","html-keyboard-response","25","1135243","0.0-25.0","21FECDFF909C41CBA8B80536DBB22052","019cf09f-d1d8-7f5e-a6a5-d99a1c5d458f","019cf037-5203-781a-b900-108ccb1cab86","","null","
                <div class=""stimulus-container"">
                    <img src=""images/causal_sequence/coin_causal/coin_causal_5.png"" class=""exp-image"">
                    <div class=""question-area""></div> 
                </div>","null","","","","","","","","",""
"","","","","","html-button-response","26","1135856","0.0-26.0","21FECDFF909C41CBA8B80536DBB22052","019cf09f-d1d8-7f5e-a6a5-d99a1c5d458f","019cf037-5203-781a-b900-108ccb1cab86","","612","
                <div class=""stimulus-container"">
                    <img src=""images/causal_sequence/coin_causal/coin_causal_5.png"" class=""exp-image"">
                    <div class=""question-area"">
                        <p style=""font-size: 20px; font-weight: bold; margin: 0;"">Is there a person in this image?</p>
                    </div>
                </div>","0","main_experiment_trial","5","coin_causal","causal_sequence","","","","",""
"","","","","","html-keyboard-response","27","1140859","0.0-27.0","21FECDFF909C41CBA8B80536DBB22052","019cf09f-d1d8-7f5e-a6a5-d99a1c5d458f","019cf037-5203-781a-b900-108ccb1cab86","","null","
                <div class=""stimulus-container"">
                    <img src=""images/causal_sequence/coin_causal/coin_causal_6.png"" class=""exp-image"">
                    <div class=""question-area""></div> 
                </div>","null","","","","","","","","",""
"","","","","","html-button-response","28","1141456","0.0-28.0","21FECDFF909C41CBA8B80536DBB22052","019cf09f-d1d8-7f5e-a6a5-d99a1c5d458f","019cf037-5203-781a-b900-108ccb1cab86","","596","
                <div class=""stimulus-container"">
                    <img src=""images/causal_sequence/coin_causal/coin_causal_6.png"" class=""exp-image"">
                    <div class=""question-area"">
                        <p style=""font-size: 20px; font-weight: bold; margin: 0;"">Is there a person in this image?</p>
                    </div>
                </div>","0","main_experiment_trial","6","coin_causal","causal_sequence","","","","",""
"","","","","","html-keyboard-response","29","1146459","0.0-29.0","21FECDFF909C41CBA8B80536DBB22052","019cf09f-d1d8-7f5e-a6a5-d99a1c5d458f","019cf037-5203-781a-b900-108ccb1cab86","","null","
                <div class=""stimulus-container"">
                    <img src=""images/causal_sequence/coin_causal/coin_causal_7.png"" class=""exp-image"">
                    <div class=""question-area""></div> 
                </div>","null","","","","","","","","",""
"","","","","","html-button-response","30","1147171","0.0-30.0","21FECDFF909C41CBA8B80536DBB22052","019cf09f-d1d8-7f5e-a6a5-d99a1c5d458f","019cf037-5203-781a-b900-108ccb1cab86","","711","
                <div class=""stimulus-container"">
                    <img src=""images/causal_sequence/coin_causal/coin_causal_7.png"" class=""exp-image"">
                    <div class=""question-area"">
                        <p style=""font-size: 20px; font-weight: bold; margin: 0;"">Is there a person in this image?</p>
                    </div>
                </div>","1","main_experiment_trial","7","coin_causal","causal_sequence","","","","",""
"","","","","","html-keyboard-response","31","1152173","0.0-31.0","21FECDFF909C41CBA8B80536DBB22052","019cf09f-d1d8-7f5e-a6a5-d99a1c5d458f","019cf037-5203-781a-b900-108ccb1cab86","","null","
                <div class=""stimulus-container"">
                    <img src=""images/causal_sequence/coin_causal/coin_causal_8.png"" class=""exp-image"">
                    <div class=""question-area""></div> 
                </div>","null","","","","","","","","",""
"","","","","","html-button-response","32","1152656","0.0-32.0","21FECDFF909C41CBA8B80536DBB22052","019cf09f-d1d8-7f5e-a6a5-d99a1c5d458f","019cf037-5203-781a-b900-108ccb1cab86","","482","
                <div class=""stimulus-container"">
                    <img src=""images/causal_sequence/coin_causal/coin_causal_8.png"" class=""exp-image"">
                    <div class=""question-area"">
                        <p style=""font-size: 20px; font-weight: bold; margin: 0;"">Is there a person in this image?</p>
                    </div>
                </div>","0","main_experiment_trial","8","coin_causal","causal_sequence","","","","",""
"","","","","","html-keyboard-response","33","1157659","0.0-33.0","21FECDFF909C41CBA8B80536DBB22052","019cf09f-d1d8-7f5e-a6a5-d99a1c5d458f","019cf037-5203-781a-b900-108ccb1cab86","","null","
                <div class=""stimulus-container"">
                    <img src=""images/causal_sequence/coin_causal/coin_causal_9.png"" class=""exp-image"">
                    <div class=""question-area""></div> 
                </div>","null","","","","","","","","",""
"","","","","","html-button-response","34","1158273","0.0-34.0","21FECDFF909C41CBA8B80536DBB22052","019cf09f-d1d8-7f5e-a6a5-d99a1c5d458f","019cf037-5203-781a-b900-108ccb1cab86","","613","
                <div class=""stimulus-container"">
                    <img src=""images/causal_sequence/coin_causal/coin_causal_9.png"" class=""exp-image"">
                    <div class=""question-area"">
                        <p style=""font-size: 20px; font-weight: bold; margin: 0;"">Is there a person in this image?</p>
                    </div>
                </div>","0","main_experiment_trial","9","coin_causal","causal_sequence","","","","",""
"","","","","","html-keyboard-response","35","1163275","0.0-35.0","21FECDFF909C41CBA8B80536DBB22052","019cf09f-d1d8-7f5e-a6a5-d99a1c5d458f","019cf037-5203-781a-b900-108ccb1cab86","","null","
                <div class=""stimulus-container"">
                    <img src=""images/causal_sequence/coin_causal/coin_causal_ten.png"" class=""exp-image"">
                    <div class=""question-area""></div> 
                </div>","null","","","","","","","","",""
"","","","","","html-button-response","36","1163756","0.0-36.0","21FECDFF909C41CBA8B80536DBB22052","019cf09f-d1d8-7f5e-a6a5-d99a1c5d458f","019cf037-5203-781a-b900-108ccb1cab86","","479","
                <div class=""stimulus-container"">
                    <img src=""images/causal_sequence/coin_causal/coin_causal_ten.png"" class=""exp-image"">
                    <div class=""question-area"">
                        <p style=""font-size: 20px; font-weight: bold; margin: 0;"">Is there a person in this image?</p>
                    </div>
                </div>","0","main_experiment_trial","ten","coin_causal","causal_sequence","","","","",""
"","","","","","html-keyboard-response","37","1164758","0.0-37.0","21FECDFF909C41CBA8B80536DBB22052","019cf09f-d1d8-7f5e-a6a5-d99a1c5d458f","019cf037-5203-781a-b900-108ccb1cab86","","null","<div style=""background-color: white; width: 100vw; height: 100vh;""></div>","null","","","","","","","","",""
"","","","","","html-keyboard-response","38","1169760","0.0-38.0","21FECDFF909C41CBA8B80536DBB22052","019cf09f-d1d8-7f5e-a6a5-d99a1c5d458f","019cf037-5203-781a-b900-108ccb1cab86","","null","
                <div class=""stimulus-container"">
                    <img src=""images/schematic_sequence/flight_scheme/flight_scheme_1.png"" class=""exp-image"">
                    <div class=""question-area""></div> 
                </div>","null","","","","","","","","",""
"","","","","","html-button-response","39","1170223","0.0-39.0","21FECDFF909C41CBA8B80536DBB22052","019cf09f-d1d8-7f5e-a6a5-d99a1c5d458f","019cf037-5203-781a-b900-108ccb1cab86","","461","
                <div class=""stimulus-container"">
                    <img src=""images/schematic_sequence/flight_scheme/flight_scheme_1.png"" class=""exp-image"">
                    <div class=""question-area"">
                        <p style=""font-size: 20px; font-weight: bold; margin: 0;"">Is there a person in this image?</p>
                    </div>
                </div>","1","main_experiment_trial","1","flight_scheme","schematic_sequence","","","","",""
"","","","","","html-keyboard-response","40","1175225","0.0-40.0","21FECDFF909C41CBA8B80536DBB22052","019cf09f-d1d8-7f5e-a6a5-d99a1c5d458f","019cf037-5203-781a-b900-108ccb1cab86","","null","
                <div class=""stimulus-container"">
                    <img src=""images/schematic_sequence/flight_scheme/flight_scheme_2.png"" class=""exp-image"">
                    <div class=""question-area""></div> 
                </div>","null","","","","","","","","",""
"","","","","","html-button-response","41","1175655","0.0-41.0","21FECDFF909C41CBA8B80536DBB22052","019cf09f-d1d8-7f5e-a6a5-d99a1c5d458f","019cf037-5203-781a-b900-108ccb1cab86","","428","
                <div class=""stimulus-container"">
                    <img src=""images/schematic_sequence/flight_scheme/flight_scheme_2.png"" class=""exp-image"">
                    <div class=""question-area"">
                        <p style=""font-size: 20px; font-weight: bold; margin: 0;"">Is there a person in this image?</p>
                    </div>
                </div>","1","main_experiment_trial","2","flight_scheme","schematic_sequence","","","","",""
"","","","","","html-keyboard-response","42","1180657","0.0-42.0","21FECDFF909C41CBA8B80536DBB22052","019cf09f-d1d8-7f5e-a6a5-d99a1c5d458f","019cf037-5203-781a-b900-108ccb1cab86","","null","
                <div class=""stimulus-container"">
                    <img src=""images/schematic_sequence/flight_scheme/flight_scheme_3.png"" class=""exp-image"">
                    <div class=""question-area""></div> 
                </div>","null","","","","","","","","",""
"","","","","","html-button-response","43","1181056","0.0-43.0","21FECDFF909C41CBA8B80536DBB22052","019cf09f-d1d8-7f5e-a6a5-d99a1c5d458f","019cf037-5203-781a-b900-108ccb1cab86","","397","
                <div class=""stimulus-container"">
                    <img src=""images/schematic_sequence/flight_scheme/flight_scheme_3.png"" class=""exp-image"">
                    <div class=""question-area"">
                        <p style=""font-size: 20px; font-weight: bold; margin: 0;"">Is there a person in this image?</p>
                    </div>
                </div>","0","main_experiment_trial","3","flight_scheme","schematic_sequence","","","","",""
"","","","","","html-keyboard-response","44","1186058","0.0-44.0","21FECDFF909C41CBA8B80536DBB22052","019cf09f-d1d8-7f5e-a6a5-d99a1c5d458f","019cf037-5203-781a-b900-108ccb1cab86","","null","
                <div class=""stimulus-container"">
                    <img src=""images/schematic_sequence/flight_scheme/flight_scheme_4.png"" class=""exp-image"">
                    <div class=""question-area""></div> 
                </div>","null","","","","","","","","",""
"","","","","","html-button-response","45","1186389","0.0-45.0","21FECDFF909C41CBA8B80536DBB22052","019cf09f-d1d8-7f5e-a6a5-d99a1c5d458f","019cf037-5203-781a-b900-108ccb1cab86","","330","
                <div class=""stimulus-container"">
                    <img src=""images/schematic_sequence/flight_scheme/flight_scheme_4.png"" class=""exp-image"">
                    <div class=""question-area"">
                        <p style=""font-size: 20px; font-weight: bold; margin: 0;"">Is there a person in this image?</p>
                    </div>
                </div>","0","main_experiment_trial","4","flight_scheme","schematic_sequence","","","","",""
"","","","","","html-keyboard-response","46","1191391","0.0-46.0","21FECDFF909C41CBA8B80536DBB22052","019cf09f-d1d8-7f5e-a6a5-d99a1c5d458f","019cf037-5203-781a-b900-108ccb1cab86","","null","
                <div class=""stimulus-container"">
                    <img src=""images/schematic_sequence/flight_scheme/flight_scheme_5.png"" class=""exp-image"">
                    <div class=""question-area""></div> 
                </div>","null","","","","","","","","",""
"","","","","","html-button-response","47","1191738","0.0-47.0","21FECDFF909C41CBA8B80536DBB22052","019cf09f-d1d8-7f5e-a6a5-d99a1c5d458f","019cf037-5203-781a-b900-108ccb1cab86","","345","
                <div class=""stimulus-container"">
                    <img src=""images/schematic_sequence/flight_scheme/flight_scheme_5.png"" class=""exp-image"">
                    <div class=""question-area"">
                        <p style=""font-size: 20px; font-weight: bold; margin: 0;"">Is there a person in this image?</p>
                    </div>
                </div>","0","main_experiment_trial","5","flight_scheme","schematic_sequence","","","","",""
"","","","","","html-keyboard-response","48","1196740","0.0-48.0","21FECDFF909C41CBA8B80536DBB22052","019cf09f-d1d8-7f5e-a6a5-d99a1c5d458f","019cf037-5203-781a-b900-108ccb1cab86","","null","
                <div class=""stimulus-container"">
                    <img src=""images/schematic_sequence/flight_scheme/flight_scheme_6.png"" class=""exp-image"">
                    <div class=""question-area""></div> 
                </div>","null","","","","","","","","",""
"","","","","","html-button-response","49","1197154","0.0-49.0","21FECDFF909C41CBA8B80536DBB22052","019cf09f-d1d8-7f5e-a6a5-d99a1c5d458f","019cf037-5203-781a-b900-108ccb1cab86","","412","
                <div class=""stimulus-container"">
                    <img src=""images/schematic_sequence/flight_scheme/flight_scheme_6.png"" class=""exp-image"">
                    <div class=""question-area"">
                        <p style=""font-size: 20px; font-weight: bold; margin: 0;"">Is there a person in this image?</p>
                    </div>
                </div>","1","main_experiment_trial","6","flight_scheme","schematic_sequence","","","","",""
"","","","","","html-keyboard-response","50","1202157","0.0-50.0","21FECDFF909C41CBA8B80536DBB22052","019cf09f-d1d8-7f5e-a6a5-d99a1c5d458f","019cf037-5203-781a-b900-108ccb1cab86","","null","
                <div class=""stimulus-container"">
                    <img src=""images/schematic_sequence/flight_scheme/flight_scheme_7.png"" class=""exp-image"">
                    <div class=""question-area""></div> 
                </div>","null","","","","","","","","",""
"","","","","","html-button-response","51","1202587","0.0-51.0","21FECDFF909C41CBA8B80536DBB22052","019cf09f-d1d8-7f5e-a6a5-d99a1c5d458f","019cf037-5203-781a-b900-108ccb1cab86","","429","
                <div class=""stimulus-container"">
                    <img src=""images/schematic_sequence/flight_scheme/flight_scheme_7.png"" class=""exp-image"">
                    <div class=""question-area"">
                        <p style=""font-size: 20px; font-weight: bold; margin: 0;"">Is there a person in this image?</p>
                    </div>
                </div>","1","main_experiment_trial","7","flight_scheme","schematic_sequence","","","","",""
"","","","","","html-keyboard-response","52","1207590","0.0-52.0","21FECDFF909C41CBA8B80536DBB22052","019cf09f-d1d8-7f5e-a6a5-d99a1c5d458f","019cf037-5203-781a-b900-108ccb1cab86","","null","
                <div class=""stimulus-container"">
                    <img src=""images/schematic_sequence/flight_scheme/flight_scheme_8.png"" class=""exp-image"">
                    <div class=""question-area""></div> 
                </div>","null","","","","","","","","",""
"","","","","","html-button-response","53","1207988","0.0-53.0","21FECDFF909C41CBA8B80536DBB22052","019cf09f-d1d8-7f5e-a6a5-d99a1c5d458f","019cf037-5203-781a-b900-108ccb1cab86","","397","
                <div class=""stimulus-container"">
                    <img src=""images/schematic_sequence/flight_scheme/flight_scheme_8.png"" class=""exp-image"">
                    <div class=""question-area"">
                        <p style=""font-size: 20px; font-weight: bold; margin: 0;"">Is there a person in this image?</p>
                    </div>
                </div>","1","main_experiment_trial","8","flight_scheme","schematic_sequence","","","","",""
"","","","","","html-keyboard-response","54","1212990","0.0-54.0","21FECDFF909C41CBA8B80536DBB22052","019cf09f-d1d8-7f5e-a6a5-d99a1c5d458f","019cf037-5203-781a-b900-108ccb1cab86","","null","
                <div class=""stimulus-container"">
                    <img src=""images/schematic_sequence/flight_scheme/flight_scheme_9.png"" class=""exp-image"">
                    <div class=""question-area""></div> 
                </div>","null","","","","","","","","",""
"","","","","","html-button-response","55","1213704","0.0-55.0","21FECDFF909C41CBA8B80536DBB22052","019cf09f-d1d8-7f5e-a6a5-d99a1c5d458f","019cf037-5203-781a-b900-108ccb1cab86","","711","
                <div class=""stimulus-container"">
                    <img src=""images/schematic_sequence/flight_scheme/flight_scheme_9.png"" class=""exp-image"">
                    <div class=""question-area"">
                        <p style=""font-size: 20px; font-weight: bold; margin: 0;"">Is there a person in this image?</p>
                    </div>
                </div>","0","main_experiment_trial","9","flight_scheme","schematic_sequence","","","","",""
"","","","","","html-keyboard-response","56","1218706","0.0-56.0","21FECDFF909C41CBA8B80536DBB22052","019cf09f-d1d8-7f5e-a6a5-d99a1c5d458f","019cf037-5203-781a-b900-108ccb1cab86","","null","
                <div class=""stimulus-container"">
                    <img src=""images/schematic_sequence/flight_scheme/flight_scheme_ten.png"" class=""exp-image"">
                    <div class=""question-area""></div> 
                </div>","null","","","","","","","","",""
"","","","","","html-button-response","57","1219205","0.0-57.0","21FECDFF909C41CBA8B80536DBB22052","019cf09f-d1d8-7f5e-a6a5-d99a1c5d458f","019cf037-5203-781a-b900-108ccb1cab86","","497","
                <div class=""stimulus-container"">
                    <img src=""images/schematic_sequence/flight_scheme/flight_scheme_ten.png"" class=""exp-image"">
                    <div class=""question-area"">
                        <p style=""font-size: 20px; font-weight: bold; margin: 0;"">Is there a person in this image?</p>
                    </div>
                </div>","0","main_experiment_trial","ten","flight_scheme","schematic_sequence","","","","",""
"","","","","","html-keyboard-response","58","1220206","0.0-58.0","21FECDFF909C41CBA8B80536DBB22052","019cf09f-d1d8-7f5e-a6a5-d99a1c5d458f","019cf037-5203-781a-b900-108ccb1cab86","","null","<div style=""background-color: white; width: 100vw; height: 100vh;""></div>","null","","","","","","","","",""
"","","","","","html-keyboard-response","59","1225209","0.0-59.0","21FECDFF909C41CBA8B80536DBB22052","019cf09f-d1d8-7f5e-a6a5-d99a1c5d458f","019cf037-5203-781a-b900-108ccb1cab86","","null","
                <div class=""stimulus-container"">
                    <img src=""images/causal_sequence/the_performance_causal/the_performance_causal_1.png"" class=""exp-image"">
                    <div class=""question-area""></div> 
                </div>","null","","","","","","","","",""
"","","","","","html-button-response","60","1225785","0.0-60.0","21FECDFF909C41CBA8B80536DBB22052","019cf09f-d1d8-7f5e-a6a5-d99a1c5d458f","019cf037-5203-781a-b900-108ccb1cab86","","575","
                <div class=""stimulus-container"">
                    <img src=""images/causal_sequence/the_performance_causal/the_performance_causal_1.png"" class=""exp-image"">
                    <div class=""question-area"">
                        <p style=""font-size: 20px; font-weight: bold; margin: 0;"">Is there a person in this image?</p>
                    </div>
                </div>","0","main_experiment_trial","1","the_performance_causal","causal_sequence","","","","",""
"","","","","","html-keyboard-response","61","1230787","0.0-61.0","21FECDFF909C41CBA8B80536DBB22052","019cf09f-d1d8-7f5e-a6a5-d99a1c5d458f","019cf037-5203-781a-b900-108ccb1cab86","","null","
                <div class=""stimulus-container"">
                    <img src=""images/causal_sequence/the_performance_causal/the_performance_causal_2.png"" class=""exp-image"">
                    <div class=""question-area""></div> 
                </div>","null","","","","","","","","",""
"","","","","","html-button-response","62","1231237","0.0-62.0","21FECDFF909C41CBA8B80536DBB22052","019cf09f-d1d8-7f5e-a6a5-d99a1c5d458f","019cf037-5203-781a-b900-108ccb1cab86","","449","
                <div class=""stimulus-container"">
                    <img src=""images/causal_sequence/the_performance_causal/the_performance_causal_2.png"" class=""exp-image"">
                    <div class=""question-area"">
                        <p style=""font-size: 20px; font-weight: bold; margin: 0;"">Is there a person in this image?</p>
                    </div>
                </div>","0","main_experiment_trial","2","the_performance_causal","causal_sequence","","","","",""
"","","","","","html-keyboard-response","63","1236240","0.0-63.0","21FECDFF909C41CBA8B80536DBB22052","019cf09f-d1d8-7f5e-a6a5-d99a1c5d458f","019cf037-5203-781a-b900-108ccb1cab86","","null","
                <div class=""stimulus-container"">
                    <img src=""images/causal_sequence/the_performance_causal/the_performance_causal_3.png"" class=""exp-image"">
                    <div class=""question-area""></div> 
                </div>","null","","","","","","","","",""
"","","","","","html-button-response","64","1236671","0.0-64.0","21FECDFF909C41CBA8B80536DBB22052","019cf09f-d1d8-7f5e-a6a5-d99a1c5d458f","019cf037-5203-781a-b900-108ccb1cab86","","429","
                <div class=""stimulus-container"">
                    <img src=""images/causal_sequence/the_performance_causal/the_performance_causal_3.png"" class=""exp-image"">
                    <div class=""question-area"">
                        <p style=""font-size: 20px; font-weight: bold; margin: 0;"">Is there a person in this image?</p>
                    </div>
                </div>","0","main_experiment_trial","3","the_performance_causal","causal_sequence","","","","",""
"","","","","","html-keyboard-response","65","1241674","0.0-65.0","21FECDFF909C41CBA8B80536DBB22052","019cf09f-d1d8-7f5e-a6a5-d99a1c5d458f","019cf037-5203-781a-b900-108ccb1cab86","","null","
                <div class=""stimulus-container"">
                    <img src=""images/causal_sequence/the_performance_causal/the_performance_causal_4.png"" class=""exp-image"">
                    <div class=""question-area""></div> 
                </div>","null","","","","","","","","",""
"","","","","","html-button-response","66","1242437","0.0-66.0","21FECDFF909C41CBA8B80536DBB22052","019cf09f-d1d8-7f5e-a6a5-d99a1c5d458f","019cf037-5203-781a-b900-108ccb1cab86","","761","
                <div class=""stimulus-container"">
                    <img src=""images/causal_sequence/the_performance_causal/the_performance_causal_4.png"" class=""exp-image"">
                    <div class=""question-area"">
                        <p style=""font-size: 20px; font-weight: bold; margin: 0;"">Is there a person in this image?</p>
                    </div>
                </div>","0","main_experiment_trial","4","the_performance_causal","causal_sequence","","","","",""
"","","","","","html-keyboard-response","67","1247440","0.0-67.0","21FECDFF909C41CBA8B80536DBB22052","019cf09f-d1d8-7f5e-a6a5-d99a1c5d458f","019cf037-5203-781a-b900-108ccb1cab86","","null","
                <div class=""stimulus-container"">
                    <img src=""images/causal_sequence/the_performance_causal/the_performance_causal_5.png"" class=""exp-image"">
                    <div class=""question-area""></div> 
                </div>","null","","","","","","","","",""
"","","","","","html-button-response","68","1248188","0.0-68.0","21FECDFF909C41CBA8B80536DBB22052","019cf09f-d1d8-7f5e-a6a5-d99a1c5d458f","019cf037-5203-781a-b900-108ccb1cab86","","746","
                <div class=""stimulus-container"">
                    <img src=""images/causal_sequence/the_performance_causal/the_performance_causal_5.png"" class=""exp-image"">
                    <div class=""question-area"">
                        <p style=""font-size: 20px; font-weight: bold; margin: 0;"">Is there a person in this image?</p>
                    </div>
                </div>","0","main_experiment_trial","5","the_performance_causal","causal_sequence","","","","",""
"","","","","","html-keyboard-response","69","1253190","0.0-69.0","21FECDFF909C41CBA8B80536DBB22052","019cf09f-d1d8-7f5e-a6a5-d99a1c5d458f","019cf037-5203-781a-b900-108ccb1cab86","","null","
                <div class=""stimulus-container"">
                    <img src=""images/causal_sequence/the_performance_causal/the_performance_causal_6.png"" class=""exp-image"">
                    <div class=""question-area""></div> 
                </div>","null","","","","","","","","",""
"","","","","","html-button-response","70","1253771","0.0-70.0","21FECDFF909C41CBA8B80536DBB22052","019cf09f-d1d8-7f5e-a6a5-d99a1c5d458f","019cf037-5203-781a-b900-108ccb1cab86","","579","
                <div class=""stimulus-container"">
                    <img src=""images/causal_sequence/the_performance_causal/the_performance_causal_6.png"" class=""exp-image"">
                    <div class=""question-area"">
                        <p style=""font-size: 20px; font-weight: bold; margin: 0;"">Is there a person in this image?</p>
                    </div>
                </div>","0","main_experiment_trial","6","the_performance_causal","causal_sequence","","","","",""
"","","","","","html-keyboard-response","71","1258773","0.0-71.0","21FECDFF909C41CBA8B80536DBB22052","019cf09f-d1d8-7f5e-a6a5-d99a1c5d458f","019cf037-5203-781a-b900-108ccb1cab86","","null","
                <div class=""stimulus-container"">
                    <img src=""images/causal_sequence/the_performance_causal/the_performance_causal_7.png"" class=""exp-image"">
                    <div class=""question-area""></div> 
                </div>","null","","","","","","","","",""
"","","","","","html-button-response","72","1259587","0.0-72.0","21FECDFF909C41CBA8B80536DBB22052","019cf09f-d1d8-7f5e-a6a5-d99a1c5d458f","019cf037-5203-781a-b900-108ccb1cab86","","812","
                <div class=""stimulus-container"">
                    <img src=""images/causal_sequence/the_performance_causal/the_performance_causal_7.png"" class=""exp-image"">
                    <div class=""question-area"">
                        <p style=""font-size: 20px; font-weight: bold; margin: 0;"">Is there a person in this image?</p>
                    </div>
                </div>","0","main_experiment_trial","7","the_performance_causal","causal_sequence","","","","",""
"","","","","","html-keyboard-response","73","1264590","0.0-73.0","21FECDFF909C41CBA8B80536DBB22052","019cf09f-d1d8-7f5e-a6a5-d99a1c5d458f","019cf037-5203-781a-b900-108ccb1cab86","","null","
                <div class=""stimulus-container"">
                    <img src=""images/causal_sequence/the_performance_causal/the_performance_causal_8.png"" class=""exp-image"">
                    <div class=""question-area""></div> 
                </div>","null","","","","","","","","",""
"","","","","","html-button-response","74","1265688","0.0-74.0","21FECDFF909C41CBA8B80536DBB22052","019cf09f-d1d8-7f5e-a6a5-d99a1c5d458f","019cf037-5203-781a-b900-108ccb1cab86","","1096","
                <div class=""stimulus-container"">
                    <img src=""images/causal_sequence/the_performance_causal/the_performance_causal_8.png"" class=""exp-image"">
                    <div class=""question-area"">
                        <p style=""font-size: 20px; font-weight: bold; margin: 0;"">Is there a person in this image?</p>
                    </div>
                </div>","0","main_experiment_trial","8","the_performance_causal","causal_sequence","","","","",""
"","","","","","html-keyboard-response","75","1270691","0.0-75.0","21FECDFF909C41CBA8B80536DBB22052","019cf09f-d1d8-7f5e-a6a5-d99a1c5d458f","019cf037-5203-781a-b900-108ccb1cab86","","null","
                <div class=""stimulus-container"">
                    <img src=""images/causal_sequence/the_performance_causal/the_performance_causal_9.png"" class=""exp-image"">
                    <div class=""question-area""></div> 
                </div>","null","","","","","","","","",""
"","","","","","html-button-response","76","1272004","0.0-76.0","21FECDFF909C41CBA8B80536DBB22052","019cf09f-d1d8-7f5e-a6a5-d99a1c5d458f","019cf037-5203-781a-b900-108ccb1cab86","","1312","
                <div class=""stimulus-container"">
                    <img src=""images/causal_sequence/the_performance_causal/the_performance_causal_9.png"" class=""exp-image"">
                    <div class=""question-area"">
                        <p style=""font-size: 20px; font-weight: bold; margin: 0;"">Is there a person in this image?</p>
                    </div>
                </div>","0","main_experiment_trial","9","the_performance_causal","causal_sequence","","","","",""
"","","","","","html-keyboard-response","77","1277007","0.0-77.0","21FECDFF909C41CBA8B80536DBB22052","019cf09f-d1d8-7f5e-a6a5-d99a1c5d458f","019cf037-5203-781a-b900-108ccb1cab86","","null","
                <div class=""stimulus-container"">
                    <img src=""images/causal_sequence/the_performance_causal/the_performance_causal_ten.png"" class=""exp-image"">
                    <div class=""question-area""></div> 
                </div>","null","","","","","","","","",""
"","","","","","html-button-response","78","1277520","0.0-78.0","21FECDFF909C41CBA8B80536DBB22052","019cf09f-d1d8-7f5e-a6a5-d99a1c5d458f","019cf037-5203-781a-b900-108ccb1cab86","","512","
                <div class=""stimulus-container"">
                    <img src=""images/causal_sequence/the_performance_causal/the_performance_causal_ten.png"" class=""exp-image"">
                    <div class=""question-area"">
                        <p style=""font-size: 20px; font-weight: bold; margin: 0;"">Is there a person in this image?</p>
                    </div>
                </div>","0","main_experiment_trial","ten","the_performance_causal","causal_sequence","","","","",""
"","","","","","html-keyboard-response","79","1278521","0.0-79.0","21FECDFF909C41CBA8B80536DBB22052","019cf09f-d1d8-7f5e-a6a5-d99a1c5d458f","019cf037-5203-781a-b900-108ccb1cab86","","null","<div style=""background-color: white; width: 100vw; height: 100vh;""></div>","null","","","","","","","","",""
"","","","","","html-keyboard-response","80","1283523","0.0-80.0","21FECDFF909C41CBA8B80536DBB22052","019cf09f-d1d8-7f5e-a6a5-d99a1c5d458f","019cf037-5203-781a-b900-108ccb1cab86","","null","
                <div class=""stimulus-container"">
                    <img src=""images/schematic_sequence/supermarket_scheme/supermarket_scheme_1.png"" class=""exp-image"">
                    <div class=""question-area""></div> 
                </div>","null","","","","","","","","",""
"","","","","","html-button-response","81","1283919","0.0-81.0","21FECDFF909C41CBA8B80536DBB22052","019cf09f-d1d8-7f5e-a6a5-d99a1c5d458f","019cf037-5203-781a-b900-108ccb1cab86","","394","
                <div class=""stimulus-container"">
                    <img src=""images/schematic_sequence/supermarket_scheme/supermarket_scheme_1.png"" class=""exp-image"">
                    <div class=""question-area"">
                        <p style=""font-size: 20px; font-weight: bold; margin: 0;"">Is there a person in this image?</p>
                    </div>
                </div>","1","main_experiment_trial","1","supermarket_scheme","schematic_sequence","","","","",""
"","","","","","html-keyboard-response","82","1288922","0.0-82.0","21FECDFF909C41CBA8B80536DBB22052","019cf09f-d1d8-7f5e-a6a5-d99a1c5d458f","019cf037-5203-781a-b900-108ccb1cab86","","null","
                <div class=""stimulus-container"">
                    <img src=""images/schematic_sequence/supermarket_scheme/supermarket_scheme_2.png"" class=""exp-image"">
                    <div class=""question-area""></div> 
                </div>","null","","","","","","","","",""
"","","","","","html-button-response","83","1289453","0.0-83.0","21FECDFF909C41CBA8B80536DBB22052","019cf09f-d1d8-7f5e-a6a5-d99a1c5d458f","019cf037-5203-781a-b900-108ccb1cab86","","530","
                <div class=""stimulus-container"">
                    <img src=""images/schematic_sequence/supermarket_scheme/supermarket_scheme_2.png"" class=""exp-image"">
                    <div class=""question-area"">
                        <p style=""font-size: 20px; font-weight: bold; margin: 0;"">Is there a person in this image?</p>
                    </div>
                </div>","1","main_experiment_trial","2","supermarket_scheme","schematic_sequence","","","","",""
"","","","","","html-keyboard-response","84","1294455","0.0-84.0","21FECDFF909C41CBA8B80536DBB22052","019cf09f-d1d8-7f5e-a6a5-d99a1c5d458f","019cf037-5203-781a-b900-108ccb1cab86","","null","
                <div class=""stimulus-container"">
                    <img src=""images/schematic_sequence/supermarket_scheme/supermarket_scheme_3.png"" class=""exp-image"">
                    <div class=""question-area""></div> 
                </div>","null","","","","","","","","",""
"","","","","","html-button-response","85","1294887","0.0-85.0","21FECDFF909C41CBA8B80536DBB22052","019cf09f-d1d8-7f5e-a6a5-d99a1c5d458f","019cf037-5203-781a-b900-108ccb1cab86","","430","
                <div class=""stimulus-container"">
                    <img src=""images/schematic_sequence/supermarket_scheme/supermarket_scheme_3.png"" class=""exp-image"">
                    <div class=""question-area"">
                        <p style=""font-size: 20px; font-weight: bold; margin: 0;"">Is there a person in this image?</p>
                    </div>
                </div>","1","main_experiment_trial","3","supermarket_scheme","schematic_sequence","","","","",""
"","","","","","html-keyboard-response","86","1299889","0.0-86.0","21FECDFF909C41CBA8B80536DBB22052","019cf09f-d1d8-7f5e-a6a5-d99a1c5d458f","019cf037-5203-781a-b900-108ccb1cab86","","null","
                <div class=""stimulus-container"">
                    <img src=""images/schematic_sequence/supermarket_scheme/supermarket_scheme_4.png"" class=""exp-image"">
                    <div class=""question-area""></div> 
                </div>","null","","","","","","","","",""
"","","","","","html-button-response","87","1300302","0.0-87.0","21FECDFF909C41CBA8B80536DBB22052","019cf09f-d1d8-7f5e-a6a5-d99a1c5d458f","019cf037-5203-781a-b900-108ccb1cab86","","411","
                <div class=""stimulus-container"">
                    <img src=""images/schematic_sequence/supermarket_scheme/supermarket_scheme_4.png"" class=""exp-image"">
                    <div class=""question-area"">
                        <p style=""font-size: 20px; font-weight: bold; margin: 0;"">Is there a person in this image?</p>
                    </div>
                </div>","0","main_experiment_trial","4","supermarket_scheme","schematic_sequence","","","","",""
"","","","","","html-keyboard-response","88","1305304","0.0-88.0","21FECDFF909C41CBA8B80536DBB22052","019cf09f-d1d8-7f5e-a6a5-d99a1c5d458f","019cf037-5203-781a-b900-108ccb1cab86","","null","
                <div class=""stimulus-container"">
                    <img src=""images/schematic_sequence/supermarket_scheme/supermarket_scheme_5.png"" class=""exp-image"">
                    <div class=""question-area""></div> 
                </div>","null","","","","","","","","",""
"","","","","","html-button-response","89","1305736","0.0-89.0","21FECDFF909C41CBA8B80536DBB22052","019cf09f-d1d8-7f5e-a6a5-d99a1c5d458f","019cf037-5203-781a-b900-108ccb1cab86","","429","
                <div class=""stimulus-container"">
                    <img src=""images/schematic_sequence/supermarket_scheme/supermarket_scheme_5.png"" class=""exp-image"">
                    <div class=""question-area"">
                        <p style=""font-size: 20px; font-weight: bold; margin: 0;"">Is there a person in this image?</p>
                    </div>
                </div>","1","main_experiment_trial","5","supermarket_scheme","schematic_sequence","","","","",""
"","","","","","html-keyboard-response","90","1310738","0.0-90.0","21FECDFF909C41CBA8B80536DBB22052","019cf09f-d1d8-7f5e-a6a5-d99a1c5d458f","019cf037-5203-781a-b900-108ccb1cab86","","null","
                <div class=""stimulus-container"">
                    <img src=""images/schematic_sequence/supermarket_scheme/supermarket_scheme_6.png"" class=""exp-image"">
                    <div class=""question-area""></div> 
                </div>","null","","","","","","","","",""
"","","","","","html-button-response","91","1311667","0.0-91.0","21FECDFF909C41CBA8B80536DBB22052","019cf09f-d1d8-7f5e-a6a5-d99a1c5d458f","019cf037-5203-781a-b900-108ccb1cab86","","927","
                <div class=""stimulus-container"">
                    <img src=""images/schematic_sequence/supermarket_scheme/supermarket_scheme_6.png"" class=""exp-image"">
                    <div class=""question-area"">
                        <p style=""font-size: 20px; font-weight: bold; margin: 0;"">Is there a person in this image?</p>
                    </div>
                </div>","0","main_experiment_trial","6","supermarket_scheme","schematic_sequence","","","","",""
"","","","","","html-keyboard-response","92","1316669","0.0-92.0","21FECDFF909C41CBA8B80536DBB22052","019cf09f-d1d8-7f5e-a6a5-d99a1c5d458f","019cf037-5203-781a-b900-108ccb1cab86","","null","
                <div class=""stimulus-container"">
                    <img src=""images/schematic_sequence/supermarket_scheme/supermarket_scheme_7.png"" class=""exp-image"">
                    <div class=""question-area""></div> 
                </div>","null","","","","","","","","",""
"","","","","","html-button-response","93","1317085","0.0-93.0","21FECDFF909C41CBA8B80536DBB22052","019cf09f-d1d8-7f5e-a6a5-d99a1c5d458f","019cf037-5203-781a-b900-108ccb1cab86","","414","
                <div class=""stimulus-container"">
                    <img src=""images/schematic_sequence/supermarket_scheme/supermarket_scheme_7.png"" class=""exp-image"">
                    <div class=""question-area"">
                        <p style=""font-size: 20px; font-weight: bold; margin: 0;"">Is there a person in this image?</p>
                    </div>
                </div>","0","main_experiment_trial","7","supermarket_scheme","schematic_sequence","","","","",""
"","","","","","html-keyboard-response","94","1322088","0.0-94.0","21FECDFF909C41CBA8B80536DBB22052","019cf09f-d1d8-7f5e-a6a5-d99a1c5d458f","019cf037-5203-781a-b900-108ccb1cab86","","null","
                <div class=""stimulus-container"">
                    <img src=""images/schematic_sequence/supermarket_scheme/supermarket_scheme_8.png"" class=""exp-image"">
                    <div class=""question-area""></div> 
                </div>","null","","","","","","","","",""
"","","","","","html-button-response","95","1322552","0.0-95.0","21FECDFF909C41CBA8B80536DBB22052","019cf09f-d1d8-7f5e-a6a5-d99a1c5d458f","019cf037-5203-781a-b900-108ccb1cab86","","462","
                <div class=""stimulus-container"">
                    <img src=""images/schematic_sequence/supermarket_scheme/supermarket_scheme_8.png"" class=""exp-image"">
                    <div class=""question-area"">
                        <p style=""font-size: 20px; font-weight: bold; margin: 0;"">Is there a person in this image?</p>
                    </div>
                </div>","0","main_experiment_trial","8","supermarket_scheme","schematic_sequence","","","","",""
"","","","","","html-keyboard-response","96","1327555","0.0-96.0","21FECDFF909C41CBA8B80536DBB22052","019cf09f-d1d8-7f5e-a6a5-d99a1c5d458f","019cf037-5203-781a-b900-108ccb1cab86","","null","
                <div class=""stimulus-container"">
                    <img src=""images/schematic_sequence/supermarket_scheme/supermarket_scheme_9.png"" class=""exp-image"">
                    <div class=""question-area""></div> 
                </div>","null","","","","","","","","",""
"","","","","","html-button-response","97","1328002","0.0-97.0","21FECDFF909C41CBA8B80536DBB22052","019cf09f-d1d8-7f5e-a6a5-d99a1c5d458f","019cf037-5203-781a-b900-108ccb1cab86","","446","
                <div class=""stimulus-container"">
                    <img src=""images/schematic_sequence/supermarket_scheme/supermarket_scheme_9.png"" class=""exp-image"">
                    <div class=""question-area"">
                        <p style=""font-size: 20px; font-weight: bold; margin: 0;"">Is there a person in this image?</p>
                    </div>
                </div>","0","main_experiment_trial","9","supermarket_scheme","schematic_sequence","","","","",""
"","","","","","html-keyboard-response","98","1333004","0.0-98.0","21FECDFF909C41CBA8B80536DBB22052","019cf09f-d1d8-7f5e-a6a5-d99a1c5d458f","019cf037-5203-781a-b900-108ccb1cab86","","null","
                <div class=""stimulus-container"">
                    <img src=""images/schematic_sequence/supermarket_scheme/supermarket_scheme_ten.png"" class=""exp-image"">
                    <div class=""question-area""></div> 
                </div>","null","","","","","","","","",""
"","","","","","html-button-response","99","1333469","0.0-99.0","21FECDFF909C41CBA8B80536DBB22052","019cf09f-d1d8-7f5e-a6a5-d99a1c5d458f","019cf037-5203-781a-b900-108ccb1cab86","","462","
                <div class=""stimulus-container"">
                    <img src=""images/schematic_sequence/supermarket_scheme/supermarket_scheme_ten.png"" class=""exp-image"">
                    <div class=""question-area"">
                        <p style=""font-size: 20px; font-weight: bold; margin: 0;"">Is there a person in this image?</p>
                    </div>
                </div>","1","main_experiment_trial","ten","supermarket_scheme","schematic_sequence","","","","",""
"","","","","","html-keyboard-response","100","1334470","0.0-100.0","21FECDFF909C41CBA8B80536DBB22052","019cf09f-d1d8-7f5e-a6a5-d99a1c5d458f","019cf037-5203-781a-b900-108ccb1cab86","","null","<div style=""background-color: white; width: 100vw; height: 100vh;""></div>","null","","","","","","","","",""
"","","","","","html-keyboard-response","101","1339471","0.0-101.0","21FECDFF909C41CBA8B80536DBB22052","019cf09f-d1d8-7f5e-a6a5-d99a1c5d458f","019cf037-5203-781a-b900-108ccb1cab86","","null","
                <div class=""stimulus-container"">
                    <img src=""images/causal_sequence/package_causal/package_causal_1.png"" class=""exp-image"">
                    <div class=""question-area""></div> 
                </div>","null","","","","","","","","",""
"","","","","","html-button-response","102","1339884","0.0-102.0","21FECDFF909C41CBA8B80536DBB22052","019cf09f-d1d8-7f5e-a6a5-d99a1c5d458f","019cf037-5203-781a-b900-108ccb1cab86","","412","
                <div class=""stimulus-container"">
                    <img src=""images/causal_sequence/package_causal/package_causal_1.png"" class=""exp-image"">
                    <div class=""question-area"">
                        <p style=""font-size: 20px; font-weight: bold; margin: 0;"">Is there a person in this image?</p>
                    </div>
                </div>","0","main_experiment_trial","1","package_causal","causal_sequence","","","","",""
"","","","","","html-keyboard-response","103","1344887","0.0-103.0","21FECDFF909C41CBA8B80536DBB22052","019cf09f-d1d8-7f5e-a6a5-d99a1c5d458f","019cf037-5203-781a-b900-108ccb1cab86","","null","
                <div class=""stimulus-container"">
                    <img src=""images/causal_sequence/package_causal/package_causal_2.png"" class=""exp-image"">
                    <div class=""question-area""></div> 
                </div>","null","","","","","","","","",""
"","","","","","html-button-response","104","1345368","0.0-104.0","21FECDFF909C41CBA8B80536DBB22052","019cf09f-d1d8-7f5e-a6a5-d99a1c5d458f","019cf037-5203-781a-b900-108ccb1cab86","","480","
                <div class=""stimulus-container"">
                    <img src=""images/causal_sequence/package_causal/package_causal_2.png"" class=""exp-image"">
                    <div class=""question-area"">
                        <p style=""font-size: 20px; font-weight: bold; margin: 0;"">Is there a person in this image?</p>
                    </div>
                </div>","0","main_experiment_trial","2","package_causal","causal_sequence","","","","",""
"","","","","","html-keyboard-response","105","1350371","0.0-105.0","21FECDFF909C41CBA8B80536DBB22052","019cf09f-d1d8-7f5e-a6a5-d99a1c5d458f","019cf037-5203-781a-b900-108ccb1cab86","","null","
                <div class=""stimulus-container"">
                    <img src=""images/causal_sequence/package_causal/package_causal_3.png"" class=""exp-image"">
                    <div class=""question-area""></div> 
                </div>","null","","","","","","","","",""
"","","","","","html-button-response","106","1351086","0.0-106.0","21FECDFF909C41CBA8B80536DBB22052","019cf09f-d1d8-7f5e-a6a5-d99a1c5d458f","019cf037-5203-781a-b900-108ccb1cab86","","713","
                <div class=""stimulus-container"">
                    <img src=""images/causal_sequence/package_causal/package_causal_3.png"" class=""exp-image"">
                    <div class=""question-area"">
                        <p style=""font-size: 20px; font-weight: bold; margin: 0;"">Is there a person in this image?</p>
                    </div>
                </div>","0","main_experiment_trial","3","package_causal","causal_sequence","","","","",""
"","","","","","html-keyboard-response","107","1356088","0.0-107.0","21FECDFF909C41CBA8B80536DBB22052","019cf09f-d1d8-7f5e-a6a5-d99a1c5d458f","019cf037-5203-781a-b900-108ccb1cab86","","null","
                <div class=""stimulus-container"">
                    <img src=""images/causal_sequence/package_causal/package_causal_4.png"" class=""exp-image"">
                    <div class=""question-area""></div> 
                </div>","null","","","","","","","","",""
"","","","","","html-button-response","108","1356500","0.0-108.0","21FECDFF909C41CBA8B80536DBB22052","019cf09f-d1d8-7f5e-a6a5-d99a1c5d458f","019cf037-5203-781a-b900-108ccb1cab86","","411","
                <div class=""stimulus-container"">
                    <img src=""images/causal_sequence/package_causal/package_causal_4.png"" class=""exp-image"">
                    <div class=""question-area"">
                        <p style=""font-size: 20px; font-weight: bold; margin: 0;"">Is there a person in this image?</p>
                    </div>
                </div>","1","main_experiment_trial","4","package_causal","causal_sequence","","","","",""
"","","","","","html-keyboard-response","109","1361502","0.0-109.0","21FECDFF909C41CBA8B80536DBB22052","019cf09f-d1d8-7f5e-a6a5-d99a1c5d458f","019cf037-5203-781a-b900-108ccb1cab86","","null","
                <div class=""stimulus-container"">
                    <img src=""images/causal_sequence/package_causal/package_causal_5.png"" class=""exp-image"">
                    <div class=""question-area""></div> 
                </div>","null","","","","","","","","",""
"","","","","","html-button-response","110","1362332","0.0-110.0","21FECDFF909C41CBA8B80536DBB22052","019cf09f-d1d8-7f5e-a6a5-d99a1c5d458f","019cf037-5203-781a-b900-108ccb1cab86","","828","
                <div class=""stimulus-container"">
                    <img src=""images/causal_sequence/package_causal/package_causal_5.png"" class=""exp-image"">
                    <div class=""question-area"">
                        <p style=""font-size: 20px; font-weight: bold; margin: 0;"">Is there a person in this image?</p>
                    </div>
                </div>","0","main_experiment_trial","5","package_causal","causal_sequence","","","","",""
"","","","","","html-keyboard-response","111","1367335","0.0-111.0","21FECDFF909C41CBA8B80536DBB22052","019cf09f-d1d8-7f5e-a6a5-d99a1c5d458f","019cf037-5203-781a-b900-108ccb1cab86","","null","
                <div class=""stimulus-container"">
                    <img src=""images/causal_sequence/package_causal/package_causal_6.png"" class=""exp-image"">
                    <div class=""question-area""></div> 
                </div>","null","","","","","","","","",""
"","","","","","html-button-response","112","1367868","0.0-112.0","21FECDFF909C41CBA8B80536DBB22052","019cf09f-d1d8-7f5e-a6a5-d99a1c5d458f","019cf037-5203-781a-b900-108ccb1cab86","","531","
                <div class=""stimulus-container"">
                    <img src=""images/causal_sequence/package_causal/package_causal_6.png"" class=""exp-image"">
                    <div class=""question-area"">
                        <p style=""font-size: 20px; font-weight: bold; margin: 0;"">Is there a person in this image?</p>
                    </div>
                </div>","0","main_experiment_trial","6","package_causal","causal_sequence","","","","",""
"","","","","","html-keyboard-response","113","1372870","0.0-113.0","21FECDFF909C41CBA8B80536DBB22052","019cf09f-d1d8-7f5e-a6a5-d99a1c5d458f","019cf037-5203-781a-b900-108ccb1cab86","","null","
                <div class=""stimulus-container"">
                    <img src=""images/causal_sequence/package_causal/package_causal_7.png"" class=""exp-image"">
                    <div class=""question-area""></div> 
                </div>","null","","","","","","","","",""
"","","","","","html-button-response","114","1373401","0.0-114.0","21FECDFF909C41CBA8B80536DBB22052","019cf09f-d1d8-7f5e-a6a5-d99a1c5d458f","019cf037-5203-781a-b900-108ccb1cab86","","529","
                <div class=""stimulus-container"">
                    <img src=""images/causal_sequence/package_causal/package_causal_7.png"" class=""exp-image"">
                    <div class=""question-area"">
                        <p style=""font-size: 20px; font-weight: bold; margin: 0;"">Is there a person in this image?</p>
                    </div>
                </div>","0","main_experiment_trial","7","package_causal","causal_sequence","","","","",""
"","","","","","html-keyboard-response","115","1378404","0.0-115.0","21FECDFF909C41CBA8B80536DBB22052","019cf09f-d1d8-7f5e-a6a5-d99a1c5d458f","019cf037-5203-781a-b900-108ccb1cab86","","null","
                <div class=""stimulus-container"">
                    <img src=""images/causal_sequence/package_causal/package_causal_8.png"" class=""exp-image"">
                    <div class=""question-area""></div> 
                </div>","null","","","","","","","","",""
"","","","","","html-button-response","116","1379101","0.0-116.0","21FECDFF909C41CBA8B80536DBB22052","019cf09f-d1d8-7f5e-a6a5-d99a1c5d458f","019cf037-5203-781a-b900-108ccb1cab86","","696","
                <div class=""stimulus-container"">
                    <img src=""images/causal_sequence/package_causal/package_causal_8.png"" class=""exp-image"">
                    <div class=""question-area"">
                        <p style=""font-size: 20px; font-weight: bold; margin: 0;"">Is there a person in this image?</p>
                    </div>
                </div>","0","main_experiment_trial","8","package_causal","causal_sequence","","","","",""
"","","","","","html-keyboard-response","117","1384104","0.0-117.0","21FECDFF909C41CBA8B80536DBB22052","019cf09f-d1d8-7f5e-a6a5-d99a1c5d458f","019cf037-5203-781a-b900-108ccb1cab86","","null","
                <div class=""stimulus-container"">
                    <img src=""images/causal_sequence/package_causal/package_causal_9.png"" class=""exp-image"">
                    <div class=""question-area""></div> 
                </div>","null","","","","","","","","",""
"","","","","","html-button-response","118","1384801","0.0-118.0","21FECDFF909C41CBA8B80536DBB22052","019cf09f-d1d8-7f5e-a6a5-d99a1c5d458f","019cf037-5203-781a-b900-108ccb1cab86","","696","
                <div class=""stimulus-container"">
                    <img src=""images/causal_sequence/package_causal/package_causal_9.png"" class=""exp-image"">
                    <div class=""question-area"">
                        <p style=""font-size: 20px; font-weight: bold; margin: 0;"">Is there a person in this image?</p>
                    </div>
                </div>","0","main_experiment_trial","9","package_causal","causal_sequence","","","","",""
"","","","","","html-keyboard-response","119","1389804","0.0-119.0","21FECDFF909C41CBA8B80536DBB22052","019cf09f-d1d8-7f5e-a6a5-d99a1c5d458f","019cf037-5203-781a-b900-108ccb1cab86","","null","
                <div class=""stimulus-container"">
                    <img src=""images/causal_sequence/package_causal/package_causal_ten.png"" class=""exp-image"">
                    <div class=""question-area""></div> 
                </div>","null","","","","","","","","",""
"","","","","","html-button-response","120","1390401","0.0-120.0","21FECDFF909C41CBA8B80536DBB22052","019cf09f-d1d8-7f5e-a6a5-d99a1c5d458f","019cf037-5203-781a-b900-108ccb1cab86","","596","
                <div class=""stimulus-container"">
                    <img src=""images/causal_sequence/package_causal/package_causal_ten.png"" class=""exp-image"">
                    <div class=""question-area"">
                        <p style=""font-size: 20px; font-weight: bold; margin: 0;"">Is there a person in this image?</p>
                    </div>
                </div>","0","main_experiment_trial","ten","package_causal","causal_sequence","","","","",""
"","","","","","html-keyboard-response","121","1391402","0.0-121.0","21FECDFF909C41CBA8B80536DBB22052","019cf09f-d1d8-7f5e-a6a5-d99a1c5d458f","019cf037-5203-781a-b900-108ccb1cab86","","null","<div style=""background-color: white; width: 100vw; height: 100vh;""></div>","null","","","","","","","","",""
"","","","","","html-keyboard-response","122","1396405","0.0-122.0","21FECDFF909C41CBA8B80536DBB22052","019cf09f-d1d8-7f5e-a6a5-d99a1c5d458f","019cf037-5203-781a-b900-108ccb1cab86","","null","
                <div class=""stimulus-container"">
                    <img src=""images/schematic_sequence/hotel_scheme/hotel_scheme_1.png"" class=""exp-image"">
                    <div class=""question-area""></div> 
                </div>","null","","","","","","","","",""
"","","","","","html-button-response","123","1396817","0.0-123.0","21FECDFF909C41CBA8B80536DBB22052","019cf09f-d1d8-7f5e-a6a5-d99a1c5d458f","019cf037-5203-781a-b900-108ccb1cab86","","411","
                <div class=""stimulus-container"">
                    <img src=""images/schematic_sequence/hotel_scheme/hotel_scheme_1.png"" class=""exp-image"">
                    <div class=""question-area"">
                        <p style=""font-size: 20px; font-weight: bold; margin: 0;"">Is there a person in this image?</p>
                    </div>
                </div>","1","main_experiment_trial","1","hotel_scheme","schematic_sequence","","","","",""
"","","","","","html-keyboard-response","124","1401819","0.0-124.0","21FECDFF909C41CBA8B80536DBB22052","019cf09f-d1d8-7f5e-a6a5-d99a1c5d458f","019cf037-5203-781a-b900-108ccb1cab86","","null","
                <div class=""stimulus-container"">
                    <img src=""images/schematic_sequence/hotel_scheme/hotel_scheme_2.png"" class=""exp-image"">
                    <div class=""question-area""></div> 
                </div>","null","","","","","","","","",""
"","","","","","html-button-response","125","1402384","0.0-125.0","21FECDFF909C41CBA8B80536DBB22052","019cf09f-d1d8-7f5e-a6a5-d99a1c5d458f","019cf037-5203-781a-b900-108ccb1cab86","","563","
                <div class=""stimulus-container"">
                    <img src=""images/schematic_sequence/hotel_scheme/hotel_scheme_2.png"" class=""exp-image"">
                    <div class=""question-area"">
                        <p style=""font-size: 20px; font-weight: bold; margin: 0;"">Is there a person in this image?</p>
                    </div>
                </div>","0","main_experiment_trial","2","hotel_scheme","schematic_sequence","","","","",""
"","","","","","html-keyboard-response","126","1407386","0.0-126.0","21FECDFF909C41CBA8B80536DBB22052","019cf09f-d1d8-7f5e-a6a5-d99a1c5d458f","019cf037-5203-781a-b900-108ccb1cab86","","null","
                <div class=""stimulus-container"">
                    <img src=""images/schematic_sequence/hotel_scheme/hotel_scheme_3.png"" class=""exp-image"">
                    <div class=""question-area""></div> 
                </div>","null","","","","","","","","",""
"","","","","","html-button-response","127","1407900","0.0-127.0","21FECDFF909C41CBA8B80536DBB22052","019cf09f-d1d8-7f5e-a6a5-d99a1c5d458f","019cf037-5203-781a-b900-108ccb1cab86","","513","
                <div class=""stimulus-container"">
                    <img src=""images/schematic_sequence/hotel_scheme/hotel_scheme_3.png"" class=""exp-image"">
                    <div class=""question-area"">
                        <p style=""font-size: 20px; font-weight: bold; margin: 0;"">Is there a person in this image?</p>
                    </div>
                </div>","0","main_experiment_trial","3","hotel_scheme","schematic_sequence","","","","",""
"","","","","","html-keyboard-response","128","1412903","0.0-128.0","21FECDFF909C41CBA8B80536DBB22052","019cf09f-d1d8-7f5e-a6a5-d99a1c5d458f","019cf037-5203-781a-b900-108ccb1cab86","","null","
                <div class=""stimulus-container"">
                    <img src=""images/schematic_sequence/hotel_scheme/hotel_scheme_4.png"" class=""exp-image"">
                    <div class=""question-area""></div> 
                </div>","null","","","","","","","","",""
"","","","","","html-button-response","129","1413267","0.0-129.0","21FECDFF909C41CBA8B80536DBB22052","019cf09f-d1d8-7f5e-a6a5-d99a1c5d458f","019cf037-5203-781a-b900-108ccb1cab86","","362","
                <div class=""stimulus-container"">
                    <img src=""images/schematic_sequence/hotel_scheme/hotel_scheme_4.png"" class=""exp-image"">
                    <div class=""question-area"">
                        <p style=""font-size: 20px; font-weight: bold; margin: 0;"">Is there a person in this image?</p>
                    </div>
                </div>","1","main_experiment_trial","4","hotel_scheme","schematic_sequence","","","","",""
"","","","","","html-keyboard-response","130","1418270","0.0-130.0","21FECDFF909C41CBA8B80536DBB22052","019cf09f-d1d8-7f5e-a6a5-d99a1c5d458f","019cf037-5203-781a-b900-108ccb1cab86","","null","
                <div class=""stimulus-container"">
                    <img src=""images/schematic_sequence/hotel_scheme/hotel_scheme_5.png"" class=""exp-image"">
                    <div class=""question-area""></div> 
                </div>","null","","","","","","","","",""
"","","","","","html-button-response","131","1418684","0.0-131.0","21FECDFF909C41CBA8B80536DBB22052","019cf09f-d1d8-7f5e-a6a5-d99a1c5d458f","019cf037-5203-781a-b900-108ccb1cab86","","412","
                <div class=""stimulus-container"">
                    <img src=""images/schematic_sequence/hotel_scheme/hotel_scheme_5.png"" class=""exp-image"">
                    <div class=""question-area"">
                        <p style=""font-size: 20px; font-weight: bold; margin: 0;"">Is there a person in this image?</p>
                    </div>
                </div>","0","main_experiment_trial","5","hotel_scheme","schematic_sequence","","","","",""
"","","","","","html-keyboard-response","132","1423685","0.0-132.0","21FECDFF909C41CBA8B80536DBB22052","019cf09f-d1d8-7f5e-a6a5-d99a1c5d458f","019cf037-5203-781a-b900-108ccb1cab86","","null","
                <div class=""stimulus-container"">
                    <img src=""images/schematic_sequence/hotel_scheme/hotel_scheme_6.png"" class=""exp-image"">
                    <div class=""question-area""></div> 
                </div>","null","","","","","","","","",""
"","","","","","html-button-response","133","1424465","0.0-133.0","21FECDFF909C41CBA8B80536DBB22052","019cf09f-d1d8-7f5e-a6a5-d99a1c5d458f","019cf037-5203-781a-b900-108ccb1cab86","","778","
                <div class=""stimulus-container"">
                    <img src=""images/schematic_sequence/hotel_scheme/hotel_scheme_6.png"" class=""exp-image"">
                    <div class=""question-area"">
                        <p style=""font-size: 20px; font-weight: bold; margin: 0;"">Is there a person in this image?</p>
                    </div>
                </div>","0","main_experiment_trial","6","hotel_scheme","schematic_sequence","","","","",""
"","","","","","html-keyboard-response","134","1429467","0.0-134.0","21FECDFF909C41CBA8B80536DBB22052","019cf09f-d1d8-7f5e-a6a5-d99a1c5d458f","019cf037-5203-781a-b900-108ccb1cab86","","null","
                <div class=""stimulus-container"">
                    <img src=""images/schematic_sequence/hotel_scheme/hotel_scheme_7.png"" class=""exp-image"">
                    <div class=""question-area""></div> 
                </div>","null","","","","","","","","",""
"","","","","","html-button-response","135","1429866","0.0-135.0","21FECDFF909C41CBA8B80536DBB22052","019cf09f-d1d8-7f5e-a6a5-d99a1c5d458f","019cf037-5203-781a-b900-108ccb1cab86","","397","
                <div class=""stimulus-container"">
                    <img src=""images/schematic_sequence/hotel_scheme/hotel_scheme_7.png"" class=""exp-image"">
                    <div class=""question-area"">
                        <p style=""font-size: 20px; font-weight: bold; margin: 0;"">Is there a person in this image?</p>
                    </div>
                </div>","0","main_experiment_trial","7","hotel_scheme","schematic_sequence","","","","",""
"","","","","","html-keyboard-response","136","1434867","0.0-136.0","21FECDFF909C41CBA8B80536DBB22052","019cf09f-d1d8-7f5e-a6a5-d99a1c5d458f","019cf037-5203-781a-b900-108ccb1cab86","","null","
                <div class=""stimulus-container"">
                    <img src=""images/schematic_sequence/hotel_scheme/hotel_scheme_8.png"" class=""exp-image"">
                    <div class=""question-area""></div> 
                </div>","null","","","","","","","","",""
"","","","","","html-button-response","137","1435433","0.0-137.0","21FECDFF909C41CBA8B80536DBB22052","019cf09f-d1d8-7f5e-a6a5-d99a1c5d458f","019cf037-5203-781a-b900-108ccb1cab86","","564","
                <div class=""stimulus-container"">
                    <img src=""images/schematic_sequence/hotel_scheme/hotel_scheme_8.png"" class=""exp-image"">
                    <div class=""question-area"">
                        <p style=""font-size: 20px; font-weight: bold; margin: 0;"">Is there a person in this image?</p>
                    </div>
                </div>","0","main_experiment_trial","8","hotel_scheme","schematic_sequence","","","","",""
"","","","","","html-keyboard-response","138","1440435","0.0-138.0","21FECDFF909C41CBA8B80536DBB22052","019cf09f-d1d8-7f5e-a6a5-d99a1c5d458f","019cf037-5203-781a-b900-108ccb1cab86","","null","
                <div class=""stimulus-container"">
                    <img src=""images/schematic_sequence/hotel_scheme/hotel_scheme_9.png"" class=""exp-image"">
                    <div class=""question-area""></div> 
                </div>","null","","","","","","","","",""
"","","","","","html-button-response","139","1441432","0.0-139.0","21FECDFF909C41CBA8B80536DBB22052","019cf09f-d1d8-7f5e-a6a5-d99a1c5d458f","019cf037-5203-781a-b900-108ccb1cab86","","994","
                <div class=""stimulus-container"">
                    <img src=""images/schematic_sequence/hotel_scheme/hotel_scheme_9.png"" class=""exp-image"">
                    <div class=""question-area"">
                        <p style=""font-size: 20px; font-weight: bold; margin: 0;"">Is there a person in this image?</p>
                    </div>
                </div>","0","main_experiment_trial","9","hotel_scheme","schematic_sequence","","","","",""
"","","","","","html-keyboard-response","140","1446433","0.0-140.0","21FECDFF909C41CBA8B80536DBB22052","019cf09f-d1d8-7f5e-a6a5-d99a1c5d458f","019cf037-5203-781a-b900-108ccb1cab86","","null","
                <div class=""stimulus-container"">
                    <img src=""images/schematic_sequence/hotel_scheme/hotel_scheme_ten.png"" class=""exp-image"">
                    <div class=""question-area""></div> 
                </div>","null","","","","","","","","",""
"","","","","","html-button-response","141","1447132","0.0-141.0","21FECDFF909C41CBA8B80536DBB22052","019cf09f-d1d8-7f5e-a6a5-d99a1c5d458f","019cf037-5203-781a-b900-108ccb1cab86","","697","
                <div class=""stimulus-container"">
                    <img src=""images/schematic_sequence/hotel_scheme/hotel_scheme_ten.png"" class=""exp-image"">
                    <div class=""question-area"">
                        <p style=""font-size: 20px; font-weight: bold; margin: 0;"">Is there a person in this image?</p>
                    </div>
                </div>","0","main_experiment_trial","ten","hotel_scheme","schematic_sequence","","","","",""
"","","","","","html-keyboard-response","142","1448134","0.0-142.0","21FECDFF909C41CBA8B80536DBB22052","019cf09f-d1d8-7f5e-a6a5-d99a1c5d458f","019cf037-5203-781a-b900-108ccb1cab86","","null","<div style=""background-color: white; width: 100vw; height: 100vh;""></div>","null","","","","","","","","",""
"","","","","","html-keyboard-response","143","1453136","0.0-143.0","21FECDFF909C41CBA8B80536DBB22052","019cf09f-d1d8-7f5e-a6a5-d99a1c5d458f","019cf037-5203-781a-b900-108ccb1cab86","","null","
                <div class=""stimulus-container"">
                    <img src=""images/schematic_sequence/dinner_party_scheme/dinner_party_scheme_1.png"" class=""exp-image"">
                    <div class=""question-area""></div> 
                </div>","null","","","","","","","","",""
"","","","","","html-button-response","144","1454033","0.0-144.0","21FECDFF909C41CBA8B80536DBB22052","019cf09f-d1d8-7f5e-a6a5-d99a1c5d458f","019cf037-5203-781a-b900-108ccb1cab86","","895","
                <div class=""stimulus-container"">
                    <img src=""images/schematic_sequence/dinner_party_scheme/dinner_party_scheme_1.png"" class=""exp-image"">
                    <div class=""question-area"">
                        <p style=""font-size: 20px; font-weight: bold; margin: 0;"">Is there a person in this image?</p>
                    </div>
                </div>","1","main_experiment_trial","1","dinner_party_scheme","schematic_sequence","","","","",""
"","","","","","html-keyboard-response","145","1459034","0.0-145.0","21FECDFF909C41CBA8B80536DBB22052","019cf09f-d1d8-7f5e-a6a5-d99a1c5d458f","019cf037-5203-781a-b900-108ccb1cab86","","null","
                <div class=""stimulus-container"">
                    <img src=""images/schematic_sequence/dinner_party_scheme/dinner_party_scheme_2.png"" class=""exp-image"">
                    <div class=""question-area""></div> 
                </div>","null","","","","","","","","",""
"","","","","","html-button-response","146","1462037","0.0-146.0","21FECDFF909C41CBA8B80536DBB22052","019cf09f-d1d8-7f5e-a6a5-d99a1c5d458f","019cf037-5203-781a-b900-108ccb1cab86","","null","
                <div class=""stimulus-container"">
                    <img src=""images/schematic_sequence/dinner_party_scheme/dinner_party_scheme_2.png"" class=""exp-image"">
                    <div class=""question-area"">
                        <p style=""font-size: 20px; font-weight: bold; margin: 0;"">Is there a person in this image?</p>
                    </div>
                </div>","null","main_experiment_trial","2","dinner_party_scheme","schematic_sequence","","","","",""
"","","","","","html-keyboard-response","147","1467039","0.0-147.0","21FECDFF909C41CBA8B80536DBB22052","019cf09f-d1d8-7f5e-a6a5-d99a1c5d458f","019cf037-5203-781a-b900-108ccb1cab86","","null","
                <div class=""stimulus-container"">
                    <img src=""images/schematic_sequence/dinner_party_scheme/dinner_party_scheme_3.png"" class=""exp-image"">
                    <div class=""question-area""></div> 
                </div>","null","","","","","","","","",""
"","","","","","html-button-response","148","1467815","0.0-148.0","21FECDFF909C41CBA8B80536DBB22052","019cf09f-d1d8-7f5e-a6a5-d99a1c5d458f","019cf037-5203-781a-b900-108ccb1cab86","","774","
                <div class=""stimulus-container"">
                    <img src=""images/schematic_sequence/dinner_party_scheme/dinner_party_scheme_3.png"" class=""exp-image"">
                    <div class=""question-area"">
                        <p style=""font-size: 20px; font-weight: bold; margin: 0;"">Is there a person in this image?</p>
                    </div>
                </div>","0","main_experiment_trial","3","dinner_party_scheme","schematic_sequence","","","","",""
"","","","","","html-keyboard-response","149","1472817","0.0-149.0","21FECDFF909C41CBA8B80536DBB22052","019cf09f-d1d8-7f5e-a6a5-d99a1c5d458f","019cf037-5203-781a-b900-108ccb1cab86","","null","
                <div class=""stimulus-container"">
                    <img src=""images/schematic_sequence/dinner_party_scheme/dinner_party_scheme_4.png"" class=""exp-image"">
                    <div class=""question-area""></div> 
                </div>","null","","","","","","","","",""
"","","","","","html-button-response","150","1473232","0.0-150.0","21FECDFF909C41CBA8B80536DBB22052","019cf09f-d1d8-7f5e-a6a5-d99a1c5d458f","019cf037-5203-781a-b900-108ccb1cab86","","413","
                <div class=""stimulus-container"">
                    <img src=""images/schematic_sequence/dinner_party_scheme/dinner_party_scheme_4.png"" class=""exp-image"">
                    <div class=""question-area"">
                        <p style=""font-size: 20px; font-weight: bold; margin: 0;"">Is there a person in this image?</p>
                    </div>
                </div>","0","main_experiment_trial","4","dinner_party_scheme","schematic_sequence","","","","",""
"","","","","","html-keyboard-response","151","1478235","0.0-151.0","21FECDFF909C41CBA8B80536DBB22052","019cf09f-d1d8-7f5e-a6a5-d99a1c5d458f","019cf037-5203-781a-b900-108ccb1cab86","","null","
                <div class=""stimulus-container"">
                    <img src=""images/schematic_sequence/dinner_party_scheme/dinner_party_scheme_5.png"" class=""exp-image"">
                    <div class=""question-area""></div> 
                </div>","null","","","","","","","","",""
"","","","","","html-button-response","152","1478648","0.0-152.0","21FECDFF909C41CBA8B80536DBB22052","019cf09f-d1d8-7f5e-a6a5-d99a1c5d458f","019cf037-5203-781a-b900-108ccb1cab86","","411","
                <div class=""stimulus-container"">
                    <img src=""images/schematic_sequence/dinner_party_scheme/dinner_party_scheme_5.png"" class=""exp-image"">
                    <div class=""question-area"">
                        <p style=""font-size: 20px; font-weight: bold; margin: 0;"">Is there a person in this image?</p>
                    </div>
                </div>","0","main_experiment_trial","5","dinner_party_scheme","schematic_sequence","","","","",""
"","","","","","html-keyboard-response","153","1483650","0.0-153.0","21FECDFF909C41CBA8B80536DBB22052","019cf09f-d1d8-7f5e-a6a5-d99a1c5d458f","019cf037-5203-781a-b900-108ccb1cab86","","null","
                <div class=""stimulus-container"">
                    <img src=""images/schematic_sequence/dinner_party_scheme/dinner_party_scheme_6.png"" class=""exp-image"">
                    <div class=""question-area""></div> 
                </div>","null","","","","","","","","",""
"","","","","","html-button-response","154","1484099","0.0-154.0","21FECDFF909C41CBA8B80536DBB22052","019cf09f-d1d8-7f5e-a6a5-d99a1c5d458f","019cf037-5203-781a-b900-108ccb1cab86","","447","
                <div class=""stimulus-container"">
                    <img src=""images/schematic_sequence/dinner_party_scheme/dinner_party_scheme_6.png"" class=""exp-image"">
                    <div class=""question-area"">
                        <p style=""font-size: 20px; font-weight: bold; margin: 0;"">Is there a person in this image?</p>
                    </div>
                </div>","0","main_experiment_trial","6","dinner_party_scheme","schematic_sequence","","","","",""
"","","","","","html-keyboard-response","155","1489101","0.0-155.0","21FECDFF909C41CBA8B80536DBB22052","019cf09f-d1d8-7f5e-a6a5-d99a1c5d458f","019cf037-5203-781a-b900-108ccb1cab86","","null","
                <div class=""stimulus-container"">
                    <img src=""images/schematic_sequence/dinner_party_scheme/dinner_party_scheme_7.png"" class=""exp-image"">
                    <div class=""question-area""></div> 
                </div>","null","","","","","","","","",""
"","","","","","html-button-response","156","1489531","0.0-156.0","21FECDFF909C41CBA8B80536DBB22052","019cf09f-d1d8-7f5e-a6a5-d99a1c5d458f","019cf037-5203-781a-b900-108ccb1cab86","","428","
                <div class=""stimulus-container"">
                    <img src=""images/schematic_sequence/dinner_party_scheme/dinner_party_scheme_7.png"" class=""exp-image"">
                    <div class=""question-area"">
                        <p style=""font-size: 20px; font-weight: bold; margin: 0;"">Is there a person in this image?</p>
                    </div>
                </div>","0","main_experiment_trial","7","dinner_party_scheme","schematic_sequence","","","","",""
"","","","","","html-keyboard-response","157","1494534","0.0-157.0","21FECDFF909C41CBA8B80536DBB22052","019cf09f-d1d8-7f5e-a6a5-d99a1c5d458f","019cf037-5203-781a-b900-108ccb1cab86","","null","
                <div class=""stimulus-container"">
                    <img src=""images/schematic_sequence/dinner_party_scheme/dinner_party_scheme_8.png"" class=""exp-image"">
                    <div class=""question-area""></div> 
                </div>","null","","","","","","","","",""
"","","","","","html-button-response","158","1495015","0.0-158.0","21FECDFF909C41CBA8B80536DBB22052","019cf09f-d1d8-7f5e-a6a5-d99a1c5d458f","019cf037-5203-781a-b900-108ccb1cab86","","480","
                <div class=""stimulus-container"">
                    <img src=""images/schematic_sequence/dinner_party_scheme/dinner_party_scheme_8.png"" class=""exp-image"">
                    <div class=""question-area"">
                        <p style=""font-size: 20px; font-weight: bold; margin: 0;"">Is there a person in this image?</p>
                    </div>
                </div>","0","main_experiment_trial","8","dinner_party_scheme","schematic_sequence","","","","",""
"","","","","","html-keyboard-response","159","1500018","0.0-159.0","21FECDFF909C41CBA8B80536DBB22052","019cf09f-d1d8-7f5e-a6a5-d99a1c5d458f","019cf037-5203-781a-b900-108ccb1cab86","","null","
                <div class=""stimulus-container"">
                    <img src=""images/schematic_sequence/dinner_party_scheme/dinner_party_scheme_9.png"" class=""exp-image"">
                    <div class=""question-area""></div> 
                </div>","null","","","","","","","","",""
"","","","","","html-button-response","160","1500515","0.0-160.0","21FECDFF909C41CBA8B80536DBB22052","019cf09f-d1d8-7f5e-a6a5-d99a1c5d458f","019cf037-5203-781a-b900-108ccb1cab86","","495","
                <div class=""stimulus-container"">
                    <img src=""images/schematic_sequence/dinner_party_scheme/dinner_party_scheme_9.png"" class=""exp-image"">
                    <div class=""question-area"">
                        <p style=""font-size: 20px; font-weight: bold; margin: 0;"">Is there a person in this image?</p>
                    </div>
                </div>","0","main_experiment_trial","9","dinner_party_scheme","schematic_sequence","","","","",""
"","","","","","html-keyboard-response","161","1505518","0.0-161.0","21FECDFF909C41CBA8B80536DBB22052","019cf09f-d1d8-7f5e-a6a5-d99a1c5d458f","019cf037-5203-781a-b900-108ccb1cab86","","null","
                <div class=""stimulus-container"">
                    <img src=""images/schematic_sequence/dinner_party_scheme/dinner_party_scheme_ten.png"" class=""exp-image"">
                    <div class=""question-area""></div> 
                </div>","null","","","","","","","","",""
"","","","","","html-button-response","162","1506215","0.0-162.0","21FECDFF909C41CBA8B80536DBB22052","019cf09f-d1d8-7f5e-a6a5-d99a1c5d458f","019cf037-5203-781a-b900-108ccb1cab86","","695","
                <div class=""stimulus-container"">
                    <img src=""images/schematic_sequence/dinner_party_scheme/dinner_party_scheme_ten.png"" class=""exp-image"">
                    <div class=""question-area"">
                        <p style=""font-size: 20px; font-weight: bold; margin: 0;"">Is there a person in this image?</p>
                    </div>
                </div>","0","main_experiment_trial","ten","dinner_party_scheme","schematic_sequence","","","","",""
"","","","","","html-keyboard-response","163","1507216","0.0-163.0","21FECDFF909C41CBA8B80536DBB22052","019cf09f-d1d8-7f5e-a6a5-d99a1c5d458f","019cf037-5203-781a-b900-108ccb1cab86","","null","<div style=""background-color: white; width: 100vw; height: 100vh;""></div>","null","","","","","","","","",""
"","","","","","html-keyboard-response","164","1512218","0.0-164.0","21FECDFF909C41CBA8B80536DBB22052","019cf09f-d1d8-7f5e-a6a5-d99a1c5d458f","019cf037-5203-781a-b900-108ccb1cab86","","null","
                <div class=""stimulus-container"">
                    <img src=""images/schematic_sequence/interview_scheme/interview_scheme_1.png"" class=""exp-image"">
                    <div class=""question-area""></div> 
                </div>","null","","","","","","","","",""
"","","","","","html-button-response","165","1513132","0.0-165.0","21FECDFF909C41CBA8B80536DBB22052","019cf09f-d1d8-7f5e-a6a5-d99a1c5d458f","019cf037-5203-781a-b900-108ccb1cab86","","912","
                <div class=""stimulus-container"">
                    <img src=""images/schematic_sequence/interview_scheme/interview_scheme_1.png"" class=""exp-image"">
                    <div class=""question-area"">
                        <p style=""font-size: 20px; font-weight: bold; margin: 0;"">Is there a person in this image?</p>
                    </div>
                </div>","1","main_experiment_trial","1","interview_scheme","schematic_sequence","","","","",""
"","","","","","html-keyboard-response","166","1518135","0.0-166.0","21FECDFF909C41CBA8B80536DBB22052","019cf09f-d1d8-7f5e-a6a5-d99a1c5d458f","019cf037-5203-781a-b900-108ccb1cab86","","null","
                <div class=""stimulus-container"">
                    <img src=""images/schematic_sequence/interview_scheme/interview_scheme_2.png"" class=""exp-image"">
                    <div class=""question-area""></div> 
                </div>","null","","","","","","","","",""
"","","","","","html-button-response","167","1518648","0.0-167.0","21FECDFF909C41CBA8B80536DBB22052","019cf09f-d1d8-7f5e-a6a5-d99a1c5d458f","019cf037-5203-781a-b900-108ccb1cab86","","512","
                <div class=""stimulus-container"">
                    <img src=""images/schematic_sequence/interview_scheme/interview_scheme_2.png"" class=""exp-image"">
                    <div class=""question-area"">
                        <p style=""font-size: 20px; font-weight: bold; margin: 0;"">Is there a person in this image?</p>
                    </div>
                </div>","1","main_experiment_trial","2","interview_scheme","schematic_sequence","","","","",""
"","","","","","html-keyboard-response","168","1523650","0.0-168.0","21FECDFF909C41CBA8B80536DBB22052","019cf09f-d1d8-7f5e-a6a5-d99a1c5d458f","019cf037-5203-781a-b900-108ccb1cab86","","null","
                <div class=""stimulus-container"">
                    <img src=""images/schematic_sequence/interview_scheme/interview_scheme_3.png"" class=""exp-image"">
                    <div class=""question-area""></div> 
                </div>","null","","","","","","","","",""
"","","","","","html-button-response","169","1524281","0.0-169.0","21FECDFF909C41CBA8B80536DBB22052","019cf09f-d1d8-7f5e-a6a5-d99a1c5d458f","019cf037-5203-781a-b900-108ccb1cab86","","629","
                <div class=""stimulus-container"">
                    <img src=""images/schematic_sequence/interview_scheme/interview_scheme_3.png"" class=""exp-image"">
                    <div class=""question-area"">
                        <p style=""font-size: 20px; font-weight: bold; margin: 0;"">Is there a person in this image?</p>
                    </div>
                </div>","1","main_experiment_trial","3","interview_scheme","schematic_sequence","","","","",""
"","","","","","html-keyboard-response","170","1529283","0.0-170.0","21FECDFF909C41CBA8B80536DBB22052","019cf09f-d1d8-7f5e-a6a5-d99a1c5d458f","019cf037-5203-781a-b900-108ccb1cab86","","null","
                <div class=""stimulus-container"">
                    <img src=""images/schematic_sequence/interview_scheme/interview_scheme_4.png"" class=""exp-image"">
                    <div class=""question-area""></div> 
                </div>","null","","","","","","","","",""
"","","","","","html-button-response","171","1530265","0.0-171.0","21FECDFF909C41CBA8B80536DBB22052","019cf09f-d1d8-7f5e-a6a5-d99a1c5d458f","019cf037-5203-781a-b900-108ccb1cab86","","980","
                <div class=""stimulus-container"">
                    <img src=""images/schematic_sequence/interview_scheme/interview_scheme_4.png"" class=""exp-image"">
                    <div class=""question-area"">
                        <p style=""font-size: 20px; font-weight: bold; margin: 0;"">Is there a person in this image?</p>
                    </div>
                </div>","1","main_experiment_trial","4","interview_scheme","schematic_sequence","","","","",""
"","","","","","html-keyboard-response","172","1535267","0.0-172.0","21FECDFF909C41CBA8B80536DBB22052","019cf09f-d1d8-7f5e-a6a5-d99a1c5d458f","019cf037-5203-781a-b900-108ccb1cab86","","null","
                <div class=""stimulus-container"">
                    <img src=""images/schematic_sequence/interview_scheme/interview_scheme_5.png"" class=""exp-image"">
                    <div class=""question-area""></div> 
                </div>","null","","","","","","","","",""
"","","","","","html-button-response","173","1535698","0.0-173.0","21FECDFF909C41CBA8B80536DBB22052","019cf09f-d1d8-7f5e-a6a5-d99a1c5d458f","019cf037-5203-781a-b900-108ccb1cab86","","430","
                <div class=""stimulus-container"">
                    <img src=""images/schematic_sequence/interview_scheme/interview_scheme_5.png"" class=""exp-image"">
                    <div class=""question-area"">
                        <p style=""font-size: 20px; font-weight: bold; margin: 0;"">Is there a person in this image?</p>
                    </div>
                </div>","0","main_experiment_trial","5","interview_scheme","schematic_sequence","","","","",""
"","","","","","html-keyboard-response","174","1540700","0.0-174.0","21FECDFF909C41CBA8B80536DBB22052","019cf09f-d1d8-7f5e-a6a5-d99a1c5d458f","019cf037-5203-781a-b900-108ccb1cab86","","null","
                <div class=""stimulus-container"">
                    <img src=""images/schematic_sequence/interview_scheme/interview_scheme_6.png"" class=""exp-image"">
                    <div class=""question-area""></div> 
                </div>","null","","","","","","","","",""
"","","","","","html-button-response","175","1541181","0.0-175.0","21FECDFF909C41CBA8B80536DBB22052","019cf09f-d1d8-7f5e-a6a5-d99a1c5d458f","019cf037-5203-781a-b900-108ccb1cab86","","479","
                <div class=""stimulus-container"">
                    <img src=""images/schematic_sequence/interview_scheme/interview_scheme_6.png"" class=""exp-image"">
                    <div class=""question-area"">
                        <p style=""font-size: 20px; font-weight: bold; margin: 0;"">Is there a person in this image?</p>
                    </div>
                </div>","0","main_experiment_trial","6","interview_scheme","schematic_sequence","","","","",""
"","","","","","html-keyboard-response","176","1546183","0.0-176.0","21FECDFF909C41CBA8B80536DBB22052","019cf09f-d1d8-7f5e-a6a5-d99a1c5d458f","019cf037-5203-781a-b900-108ccb1cab86","","null","
                <div class=""stimulus-container"">
                    <img src=""images/schematic_sequence/interview_scheme/interview_scheme_7.png"" class=""exp-image"">
                    <div class=""question-area""></div> 
                </div>","null","","","","","","","","",""
"","","","","","html-button-response","177","1546647","0.0-177.0","21FECDFF909C41CBA8B80536DBB22052","019cf09f-d1d8-7f5e-a6a5-d99a1c5d458f","019cf037-5203-781a-b900-108ccb1cab86","","462","
                <div class=""stimulus-container"">
                    <img src=""images/schematic_sequence/interview_scheme/interview_scheme_7.png"" class=""exp-image"">
                    <div class=""question-area"">
                        <p style=""font-size: 20px; font-weight: bold; margin: 0;"">Is there a person in this image?</p>
                    </div>
                </div>","0","main_experiment_trial","7","interview_scheme","schematic_sequence","","","","",""
"","","","","","html-keyboard-response","178","1551648","0.0-178.0","21FECDFF909C41CBA8B80536DBB22052","019cf09f-d1d8-7f5e-a6a5-d99a1c5d458f","019cf037-5203-781a-b900-108ccb1cab86","","null","
                <div class=""stimulus-container"">
                    <img src=""images/schematic_sequence/interview_scheme/interview_scheme_8.png"" class=""exp-image"">
                    <div class=""question-area""></div> 
                </div>","null","","","","","","","","",""
"","","","","","html-button-response","179","1552164","0.0-179.0","21FECDFF909C41CBA8B80536DBB22052","019cf09f-d1d8-7f5e-a6a5-d99a1c5d458f","019cf037-5203-781a-b900-108ccb1cab86","","514","
                <div class=""stimulus-container"">
                    <img src=""images/schematic_sequence/interview_scheme/interview_scheme_8.png"" class=""exp-image"">
                    <div class=""question-area"">
                        <p style=""font-size: 20px; font-weight: bold; margin: 0;"">Is there a person in this image?</p>
                    </div>
                </div>","0","main_experiment_trial","8","interview_scheme","schematic_sequence","","","","",""
"","","","","","html-keyboard-response","180","1557167","0.0-180.0","21FECDFF909C41CBA8B80536DBB22052","019cf09f-d1d8-7f5e-a6a5-d99a1c5d458f","019cf037-5203-781a-b900-108ccb1cab86","","null","
                <div class=""stimulus-container"">
                    <img src=""images/schematic_sequence/interview_scheme/interview_scheme_9.png"" class=""exp-image"">
                    <div class=""question-area""></div> 
                </div>","null","","","","","","","","",""
"","","","","","html-button-response","181","1557614","0.0-181.0","21FECDFF909C41CBA8B80536DBB22052","019cf09f-d1d8-7f5e-a6a5-d99a1c5d458f","019cf037-5203-781a-b900-108ccb1cab86","","445","
                <div class=""stimulus-container"">
                    <img src=""images/schematic_sequence/interview_scheme/interview_scheme_9.png"" class=""exp-image"">
                    <div class=""question-area"">
                        <p style=""font-size: 20px; font-weight: bold; margin: 0;"">Is there a person in this image?</p>
                    </div>
                </div>","0","main_experiment_trial","9","interview_scheme","schematic_sequence","","","","",""
"","","","","","html-keyboard-response","182","1562615","0.0-182.0","21FECDFF909C41CBA8B80536DBB22052","019cf09f-d1d8-7f5e-a6a5-d99a1c5d458f","019cf037-5203-781a-b900-108ccb1cab86","","null","
                <div class=""stimulus-container"">
                    <img src=""images/schematic_sequence/interview_scheme/interview_scheme_ten.png"" class=""exp-image"">
                    <div class=""question-area""></div> 
                </div>","null","","","","","","","","",""
"","","","","","html-button-response","183","1563130","0.0-183.0","21FECDFF909C41CBA8B80536DBB22052","019cf09f-d1d8-7f5e-a6a5-d99a1c5d458f","019cf037-5203-781a-b900-108ccb1cab86","","513","
                <div class=""stimulus-container"">
