"success","timeout","failed_images","failed_audio","failed_video","trial_type","trial_index","time_elapsed","internal_node_id","subject_id","study_id","session_id","view_history","rt","stimulus","response","task","image_index","folder","sequence_type","presentation_order","valuable_image_index","reward_type","distance_from_x","target_X","chosen_image_index","is_x_plus_dist","correct_choice"
"true","false","[]","[]","[]","preload","0","2229","0.0-0.0","F28B6EEB3C424F87930A4FB9466155B3","019d6b6b-efb1-77fd-bb58-c199b7d9270a","019d6b28-084c-76dd-a1cb-5ac041bdee9a","","","","","","","","","","","","","","","",""
"","","","","","instructions","1","21346","0.0-1.0","F28B6EEB3C424F87930A4FB9466155B3","019d6b6b-efb1-77fd-bb58-c199b7d9270a","019d6b28-084c-76dd-a1cb-5ac041bdee9a","[{""page_index"":0,""viewing_time"":19116}]","19116","","","","","","","","","","","","","",""
"","","","","","instructions","2","24146","0.0-2.0","F28B6EEB3C424F87930A4FB9466155B3","019d6b6b-efb1-77fd-bb58-c199b7d9270a","019d6b28-084c-76dd-a1cb-5ac041bdee9a","[{""page_index"":0,""viewing_time"":2800}]","2800","","","","","","","","","","","","","",""
"true","","","","","fullscreen","3","26348","0.0-3.0","F28B6EEB3C424F87930A4FB9466155B3","019d6b6b-efb1-77fd-bb58-c199b7d9270a","019d6b28-084c-76dd-a1cb-5ac041bdee9a","","1199","","","","","","","","","","","","","",""
"","","","","","instructions","4","31396","0.0-4.0","F28B6EEB3C424F87930A4FB9466155B3","019d6b6b-efb1-77fd-bb58-c199b7d9270a","019d6b28-084c-76dd-a1cb-5ac041bdee9a","[{""page_index"":0,""viewing_time"":5048}]","5048","","","","","","","","","","","","","",""
"","","","","","instructions","5","32579","0.0-5.0","F28B6EEB3C424F87930A4FB9466155B3","019d6b6b-efb1-77fd-bb58-c199b7d9270a","019d6b28-084c-76dd-a1cb-5ac041bdee9a","[{""page_index"":0,""viewing_time"":1183}]","1183","","","","","","","","","","","","","",""
"","","","","","html-keyboard-response","6","36582","0.0-6.0","F28B6EEB3C424F87930A4FB9466155B3","019d6b6b-efb1-77fd-bb58-c199b7d9270a","019d6b28-084c-76dd-a1cb-5ac041bdee9a","","null","
            <div class=""stimulus-container"">
                <img src=""images/instructions/movie_1.png"" class=""exp-image"">
                <div class=""question-area""></div> 
            </div>","null","","","","","","","","","","","",""
"","","","","","html-button-response","7","39196","0.0-7.0","F28B6EEB3C424F87930A4FB9466155B3","019d6b6b-efb1-77fd-bb58-c199b7d9270a","019d6b28-084c-76dd-a1cb-5ac041bdee9a","","2614","
            <div class=""stimulus-container"">
                <img src=""images/instructions/movie_1.png"" class=""exp-image"">
                <div class=""question-area"">
                    <p style=""font-size: 20px; font-weight: bold; margin: 0;"">Was there a person in this image?</p>
                </div>
            </div>","0","example_question","1","","","","","","","","","",""
"","","","","","html-keyboard-response","8","43198","0.0-8.0","F28B6EEB3C424F87930A4FB9466155B3","019d6b6b-efb1-77fd-bb58-c199b7d9270a","019d6b28-084c-76dd-a1cb-5ac041bdee9a","","null","
            <div class=""stimulus-container"">
                <img src=""images/instructions/movie_2.png"" class=""exp-image"">
                <div class=""question-area""></div> 
            </div>","null","","","","","","","","","","","",""
"","","","","","html-button-response","9","44646","0.0-9.0","F28B6EEB3C424F87930A4FB9466155B3","019d6b6b-efb1-77fd-bb58-c199b7d9270a","019d6b28-084c-76dd-a1cb-5ac041bdee9a","","1447","
            <div class=""stimulus-container"">
                <img src=""images/instructions/movie_2.png"" class=""exp-image"">
                <div class=""question-area"">
                    <p style=""font-size: 20px; font-weight: bold; margin: 0;"">Was there a person in this image?</p>
                </div>
            </div>","1","example_question","2","","","","","","","","","",""
"","","","","","html-keyboard-response","10","48647","0.0-10.0","F28B6EEB3C424F87930A4FB9466155B3","019d6b6b-efb1-77fd-bb58-c199b7d9270a","019d6b28-084c-76dd-a1cb-5ac041bdee9a","","null","
            <div class=""stimulus-container"">
                <img src=""images/instructions/movie_3.png"" class=""exp-image"">
                <div class=""question-area""></div> 
            </div>","null","","","","","","","","","","","",""
"","","","","","html-button-response","11","49512","0.0-11.0","F28B6EEB3C424F87930A4FB9466155B3","019d6b6b-efb1-77fd-bb58-c199b7d9270a","019d6b28-084c-76dd-a1cb-5ac041bdee9a","","865","
            <div class=""stimulus-container"">
                <img src=""images/instructions/movie_3.png"" class=""exp-image"">
                <div class=""question-area"">
                    <p style=""font-size: 20px; font-weight: bold; margin: 0;"">Was there a person in this image?</p>
                </div>
            </div>","0","example_question","3","","","","","","","","","",""
"","","","","","html-keyboard-response","12","53514","0.0-12.0","F28B6EEB3C424F87930A4FB9466155B3","019d6b6b-efb1-77fd-bb58-c199b7d9270a","019d6b28-084c-76dd-a1cb-5ac041bdee9a","","null","
            <div class=""stimulus-container"">
                <img src=""images/instructions/movie_4.png"" class=""exp-image"">
                <div class=""question-area""></div> 
            </div>","null","","","","","","","","","","","",""
"","","","","","html-button-response","13","54096","0.0-13.0","F28B6EEB3C424F87930A4FB9466155B3","019d6b6b-efb1-77fd-bb58-c199b7d9270a","019d6b28-084c-76dd-a1cb-5ac041bdee9a","","581","
            <div class=""stimulus-container"">
                <img src=""images/instructions/movie_4.png"" class=""exp-image"">
                <div class=""question-area"">
                    <p style=""font-size: 20px; font-weight: bold; margin: 0;"">Was there a person in this image?</p>
                </div>
            </div>","0","example_question","4","","","","","","","","","",""
"","","","","","instructions","14","55896","0.0-14.0","F28B6EEB3C424F87930A4FB9466155B3","019d6b6b-efb1-77fd-bb58-c199b7d9270a","019d6b28-084c-76dd-a1cb-5ac041bdee9a","[{""page_index"":0,""viewing_time"":1800}]","1800","","","","","","","","","","","","","",""
"","","","","","instructions","15","57095","0.0-15.0","F28B6EEB3C424F87930A4FB9466155B3","019d6b6b-efb1-77fd-bb58-c199b7d9270a","019d6b28-084c-76dd-a1cb-5ac041bdee9a","[{""page_index"":0,""viewing_time"":1200}]","1200","","","","","","","","","","","","","",""
"","","","","","html-keyboard-response","16","62097","0.0-16.0","F28B6EEB3C424F87930A4FB9466155B3","019d6b6b-efb1-77fd-bb58-c199b7d9270a","019d6b28-084c-76dd-a1cb-5ac041bdee9a","","null","<div style=""background-color: white; width: 100vw; height: 100vh;""></div>","null","","","","","","","","","","","",""
"","","","","","html-keyboard-response","17","67099","0.0-17.0","F28B6EEB3C424F87930A4FB9466155B3","019d6b6b-efb1-77fd-bb58-c199b7d9270a","019d6b28-084c-76dd-a1cb-5ac041bdee9a","","null","
                <div class=""stimulus-container"">
                    <img src=""semantic_sequence_notimeline/fruits_semantic/fruits_semantic_1.png"" class=""exp-image"">
                    <div class=""question-area""></div> 
                </div>","null","","","","","","","","","","","",""
"","","","","","html-button-response","18","68429","0.0-18.0","F28B6EEB3C424F87930A4FB9466155B3","019d6b6b-efb1-77fd-bb58-c199b7d9270a","019d6b28-084c-76dd-a1cb-5ac041bdee9a","","1330","
                <div class=""stimulus-container"">
                    <img src=""semantic_sequence_notimeline/fruits_semantic/fruits_semantic_1.png"" class=""exp-image"">
                    <div class=""question-area"">
                        <p style=""font-size: 20px; font-weight: bold; margin: 0;"">Is there a person in this image?</p>
                    </div>
                </div>","1","main_experiment_trial","1","fruits_semantic","semantic_sequence_notimeline","chronological","","","","","","",""
"","","","","","html-keyboard-response","19","73431","0.0-19.0","F28B6EEB3C424F87930A4FB9466155B3","019d6b6b-efb1-77fd-bb58-c199b7d9270a","019d6b28-084c-76dd-a1cb-5ac041bdee9a","","null","
                <div class=""stimulus-container"">
                    <img src=""semantic_sequence_notimeline/fruits_semantic/fruits_semantic_2.png"" class=""exp-image"">
                    <div class=""question-area""></div> 
                </div>","null","","","","","","","","","","","",""
"","","","","","html-button-response","20","74412","0.0-20.0","F28B6EEB3C424F87930A4FB9466155B3","019d6b6b-efb1-77fd-bb58-c199b7d9270a","019d6b28-084c-76dd-a1cb-5ac041bdee9a","","981","
                <div class=""stimulus-container"">
                    <img src=""semantic_sequence_notimeline/fruits_semantic/fruits_semantic_2.png"" class=""exp-image"">
                    <div class=""question-area"">
                        <p style=""font-size: 20px; font-weight: bold; margin: 0;"">Is there a person in this image?</p>
                    </div>
                </div>","1","main_experiment_trial","2","fruits_semantic","semantic_sequence_notimeline","chronological","","","","","","",""
"","","","","","html-keyboard-response","21","79414","0.0-21.0","F28B6EEB3C424F87930A4FB9466155B3","019d6b6b-efb1-77fd-bb58-c199b7d9270a","019d6b28-084c-76dd-a1cb-5ac041bdee9a","","null","
                <div class=""stimulus-container"">
                    <img src=""semantic_sequence_notimeline/fruits_semantic/fruits_semantic_3.png"" class=""exp-image"">
                    <div class=""question-area""></div> 
                </div>","null","","","","","","","","","","","",""
"","","","","","html-button-response","22","80029","0.0-22.0","F28B6EEB3C424F87930A4FB9466155B3","019d6b6b-efb1-77fd-bb58-c199b7d9270a","019d6b28-084c-76dd-a1cb-5ac041bdee9a","","614","
                <div class=""stimulus-container"">
                    <img src=""semantic_sequence_notimeline/fruits_semantic/fruits_semantic_3.png"" class=""exp-image"">
                    <div class=""question-area"">
                        <p style=""font-size: 20px; font-weight: bold; margin: 0;"">Is there a person in this image?</p>
                    </div>
                </div>","1","main_experiment_trial","3","fruits_semantic","semantic_sequence_notimeline","chronological","","","","","","",""
"","","","","","html-keyboard-response","23","85031","0.0-23.0","F28B6EEB3C424F87930A4FB9466155B3","019d6b6b-efb1-77fd-bb58-c199b7d9270a","019d6b28-084c-76dd-a1cb-5ac041bdee9a","","null","
                <div class=""stimulus-container"">
                    <img src=""semantic_sequence_notimeline/fruits_semantic/fruits_semantic_4.png"" class=""exp-image"">
                    <div class=""question-area""></div> 
                </div>","null","","","","","","","","","","","",""
"","","","","","html-button-response","24","85545","0.0-24.0","F28B6EEB3C424F87930A4FB9466155B3","019d6b6b-efb1-77fd-bb58-c199b7d9270a","019d6b28-084c-76dd-a1cb-5ac041bdee9a","","514","
                <div class=""stimulus-container"">
                    <img src=""semantic_sequence_notimeline/fruits_semantic/fruits_semantic_4.png"" class=""exp-image"">
                    <div class=""question-area"">
                        <p style=""font-size: 20px; font-weight: bold; margin: 0;"">Is there a person in this image?</p>
                    </div>
                </div>","1","main_experiment_trial","4","fruits_semantic","semantic_sequence_notimeline","chronological","","","","","","",""
"","","","","","html-keyboard-response","25","90547","0.0-25.0","F28B6EEB3C424F87930A4FB9466155B3","019d6b6b-efb1-77fd-bb58-c199b7d9270a","019d6b28-084c-76dd-a1cb-5ac041bdee9a","","null","
                <div class=""stimulus-container"">
                    <img src=""semantic_sequence_notimeline/fruits_semantic/fruits_semantic_5.png"" class=""exp-image"">
                    <div class=""question-area""></div> 
                </div>","null","","","","","","","","","","","",""
"","","","","","html-button-response","26","91095","0.0-26.0","F28B6EEB3C424F87930A4FB9466155B3","019d6b6b-efb1-77fd-bb58-c199b7d9270a","019d6b28-084c-76dd-a1cb-5ac041bdee9a","","548","
                <div class=""stimulus-container"">
                    <img src=""semantic_sequence_notimeline/fruits_semantic/fruits_semantic_5.png"" class=""exp-image"">
                    <div class=""question-area"">
                        <p style=""font-size: 20px; font-weight: bold; margin: 0;"">Is there a person in this image?</p>
                    </div>
                </div>","1","main_experiment_trial","5","fruits_semantic","semantic_sequence_notimeline","chronological","","","","","","",""
"","","","","","html-keyboard-response","27","96098","0.0-27.0","F28B6EEB3C424F87930A4FB9466155B3","019d6b6b-efb1-77fd-bb58-c199b7d9270a","019d6b28-084c-76dd-a1cb-5ac041bdee9a","","null","
                <div class=""stimulus-container"">
                    <img src=""semantic_sequence_notimeline/fruits_semantic/fruits_semantic_6.png"" class=""exp-image"">
                    <div class=""question-area""></div> 
                </div>","null","","","","","","","","","","","",""
"","","","","","html-button-response","28","97295","0.0-28.0","F28B6EEB3C424F87930A4FB9466155B3","019d6b6b-efb1-77fd-bb58-c199b7d9270a","019d6b28-084c-76dd-a1cb-5ac041bdee9a","","1197","
                <div class=""stimulus-container"">
                    <img src=""semantic_sequence_notimeline/fruits_semantic/fruits_semantic_6.png"" class=""exp-image"">
                    <div class=""question-area"">
                        <p style=""font-size: 20px; font-weight: bold; margin: 0;"">Is there a person in this image?</p>
                    </div>
                </div>","1","main_experiment_trial","6","fruits_semantic","semantic_sequence_notimeline","chronological","","","","","","",""
"","","","","","html-keyboard-response","29","102298","0.0-29.0","F28B6EEB3C424F87930A4FB9466155B3","019d6b6b-efb1-77fd-bb58-c199b7d9270a","019d6b28-084c-76dd-a1cb-5ac041bdee9a","","null","
                <div class=""stimulus-container"">
                    <img src=""semantic_sequence_notimeline/fruits_semantic/fruits_semantic_7.png"" class=""exp-image"">
                    <div class=""question-area""></div> 
                </div>","null","","","","","","","","","","","",""
"","","","","","html-button-response","30","102996","0.0-30.0","F28B6EEB3C424F87930A4FB9466155B3","019d6b6b-efb1-77fd-bb58-c199b7d9270a","019d6b28-084c-76dd-a1cb-5ac041bdee9a","","697","
                <div class=""stimulus-container"">
                    <img src=""semantic_sequence_notimeline/fruits_semantic/fruits_semantic_7.png"" class=""exp-image"">
                    <div class=""question-area"">
                        <p style=""font-size: 20px; font-weight: bold; margin: 0;"">Is there a person in this image?</p>
                    </div>
                </div>","1","main_experiment_trial","7","fruits_semantic","semantic_sequence_notimeline","chronological","","","","","","",""
"","","","","","html-keyboard-response","31","107999","0.0-31.0","F28B6EEB3C424F87930A4FB9466155B3","019d6b6b-efb1-77fd-bb58-c199b7d9270a","019d6b28-084c-76dd-a1cb-5ac041bdee9a","","null","
                <div class=""stimulus-container"">
                    <img src=""semantic_sequence_notimeline/fruits_semantic/fruits_semantic_8.png"" class=""exp-image"">
                    <div class=""question-area""></div> 
                </div>","null","","","","","","","","","","","",""
"","","","","","html-button-response","32","108613","0.0-32.0","F28B6EEB3C424F87930A4FB9466155B3","019d6b6b-efb1-77fd-bb58-c199b7d9270a","019d6b28-084c-76dd-a1cb-5ac041bdee9a","","614","
                <div class=""stimulus-container"">
                    <img src=""semantic_sequence_notimeline/fruits_semantic/fruits_semantic_8.png"" class=""exp-image"">
                    <div class=""question-area"">
                        <p style=""font-size: 20px; font-weight: bold; margin: 0;"">Is there a person in this image?</p>
                    </div>
                </div>","1","main_experiment_trial","8","fruits_semantic","semantic_sequence_notimeline","chronological","","","","","","",""
"","","","","","html-keyboard-response","33","113615","0.0-33.0","F28B6EEB3C424F87930A4FB9466155B3","019d6b6b-efb1-77fd-bb58-c199b7d9270a","019d6b28-084c-76dd-a1cb-5ac041bdee9a","","null","
                <div class=""stimulus-container"">
                    <img src=""semantic_sequence_notimeline/fruits_semantic/fruits_semantic_9.png"" class=""exp-image"">
                    <div class=""question-area""></div> 
                </div>","null","","","","","","","","","","","",""
"","","","","","html-button-response","34","114146","0.0-34.0","F28B6EEB3C424F87930A4FB9466155B3","019d6b6b-efb1-77fd-bb58-c199b7d9270a","019d6b28-084c-76dd-a1cb-5ac041bdee9a","","531","
                <div class=""stimulus-container"">
                    <img src=""semantic_sequence_notimeline/fruits_semantic/fruits_semantic_9.png"" class=""exp-image"">
                    <div class=""question-area"">
                        <p style=""font-size: 20px; font-weight: bold; margin: 0;"">Is there a person in this image?</p>
                    </div>
                </div>","1","main_experiment_trial","9","fruits_semantic","semantic_sequence_notimeline","chronological","","","","","","",""
"","","","","","html-keyboard-response","35","119149","0.0-35.0","F28B6EEB3C424F87930A4FB9466155B3","019d6b6b-efb1-77fd-bb58-c199b7d9270a","019d6b28-084c-76dd-a1cb-5ac041bdee9a","","null","
                <div class=""stimulus-container"">
                    <img src=""semantic_sequence_notimeline/fruits_semantic/fruits_semantic_ten.png"" class=""exp-image"">
                    <div class=""question-area""></div> 
                </div>","null","","","","","","","","","","","",""
"","","","","","html-button-response","36","119913","0.0-36.0","F28B6EEB3C424F87930A4FB9466155B3","019d6b6b-efb1-77fd-bb58-c199b7d9270a","019d6b28-084c-76dd-a1cb-5ac041bdee9a","","764","
                <div class=""stimulus-container"">
                    <img src=""semantic_sequence_notimeline/fruits_semantic/fruits_semantic_ten.png"" class=""exp-image"">
                    <div class=""question-area"">
                        <p style=""font-size: 20px; font-weight: bold; margin: 0;"">Is there a person in this image?</p>
                    </div>
                </div>","1","main_experiment_trial","ten","fruits_semantic","semantic_sequence_notimeline","chronological","","","","","","",""
"","","","","","html-keyboard-response","37","124914","0.0-37.0","F28B6EEB3C424F87930A4FB9466155B3","019d6b6b-efb1-77fd-bb58-c199b7d9270a","019d6b28-084c-76dd-a1cb-5ac041bdee9a","","null","<div style=""background-color: white; width: 100vw; height: 100vh;""></div>","null","","","","","","","","","","","",""
"","","","","","html-keyboard-response","38","129917","0.0-38.0","F28B6EEB3C424F87930A4FB9466155B3","019d6b6b-efb1-77fd-bb58-c199b7d9270a","019d6b28-084c-76dd-a1cb-5ac041bdee9a","","null","
                <div class=""stimulus-container"">
                    <img src=""semantic_sequence_notimeline/animals_semantic/animals_semantic_1.png"" class=""exp-image"">
                    <div class=""question-area""></div> 
                </div>","null","","","","","","","","","","","",""
"","","","","","html-button-response","39","130764","0.0-39.0","F28B6EEB3C424F87930A4FB9466155B3","019d6b6b-efb1-77fd-bb58-c199b7d9270a","019d6b28-084c-76dd-a1cb-5ac041bdee9a","","847","
                <div class=""stimulus-container"">
                    <img src=""semantic_sequence_notimeline/animals_semantic/animals_semantic_1.png"" class=""exp-image"">
                    <div class=""question-area"">
                        <p style=""font-size: 20px; font-weight: bold; margin: 0;"">Is there a person in this image?</p>
                    </div>
                </div>","1","main_experiment_trial","1","animals_semantic","semantic_sequence_notimeline","chronological","","","","","","",""
"","","","","","html-keyboard-response","40","135765","0.0-40.0","F28B6EEB3C424F87930A4FB9466155B3","019d6b6b-efb1-77fd-bb58-c199b7d9270a","019d6b28-084c-76dd-a1cb-5ac041bdee9a","","null","
                <div class=""stimulus-container"">
                    <img src=""semantic_sequence_notimeline/animals_semantic/animals_semantic_2.png"" class=""exp-image"">
                    <div class=""question-area""></div> 
                </div>","null","","","","","","","","","","","",""
"","","","","","html-button-response","41","136697","0.0-41.0","F28B6EEB3C424F87930A4FB9466155B3","019d6b6b-efb1-77fd-bb58-c199b7d9270a","019d6b28-084c-76dd-a1cb-5ac041bdee9a","","931","
                <div class=""stimulus-container"">
                    <img src=""semantic_sequence_notimeline/animals_semantic/animals_semantic_2.png"" class=""exp-image"">
                    <div class=""question-area"">
                        <p style=""font-size: 20px; font-weight: bold; margin: 0;"">Is there a person in this image?</p>
                    </div>
                </div>","1","main_experiment_trial","2","animals_semantic","semantic_sequence_notimeline","chronological","","","","","","",""
"","","","","","html-keyboard-response","42","141699","0.0-42.0","F28B6EEB3C424F87930A4FB9466155B3","019d6b6b-efb1-77fd-bb58-c199b7d9270a","019d6b28-084c-76dd-a1cb-5ac041bdee9a","","null","
                <div class=""stimulus-container"">
                    <img src=""semantic_sequence_notimeline/animals_semantic/animals_semantic_3.png"" class=""exp-image"">
                    <div class=""question-area""></div> 
                </div>","null","","","","","","","","","","","",""
"","","","","","html-button-response","43","142264","0.0-43.0","F28B6EEB3C424F87930A4FB9466155B3","019d6b6b-efb1-77fd-bb58-c199b7d9270a","019d6b28-084c-76dd-a1cb-5ac041bdee9a","","565","
                <div class=""stimulus-container"">
                    <img src=""semantic_sequence_notimeline/animals_semantic/animals_semantic_3.png"" class=""exp-image"">
                    <div class=""question-area"">
                        <p style=""font-size: 20px; font-weight: bold; margin: 0;"">Is there a person in this image?</p>
                    </div>
                </div>","1","main_experiment_trial","3","animals_semantic","semantic_sequence_notimeline","chronological","","","","","","",""
"","","","","","html-keyboard-response","44","147265","0.0-44.0","F28B6EEB3C424F87930A4FB9466155B3","019d6b6b-efb1-77fd-bb58-c199b7d9270a","019d6b28-084c-76dd-a1cb-5ac041bdee9a","","null","
                <div class=""stimulus-container"">
                    <img src=""semantic_sequence_notimeline/animals_semantic/animals_semantic_4.png"" class=""exp-image"">
                    <div class=""question-area""></div> 
                </div>","null","","","","","","","","","","","",""
"","","","","","html-button-response","45","148047","0.0-45.0","F28B6EEB3C424F87930A4FB9466155B3","019d6b6b-efb1-77fd-bb58-c199b7d9270a","019d6b28-084c-76dd-a1cb-5ac041bdee9a","","782","
                <div class=""stimulus-container"">
                    <img src=""semantic_sequence_notimeline/animals_semantic/animals_semantic_4.png"" class=""exp-image"">
                    <div class=""question-area"">
                        <p style=""font-size: 20px; font-weight: bold; margin: 0;"">Is there a person in this image?</p>
                    </div>
                </div>","1","main_experiment_trial","4","animals_semantic","semantic_sequence_notimeline","chronological","","","","","","",""
"","","","","","html-keyboard-response","46","153049","0.0-46.0","F28B6EEB3C424F87930A4FB9466155B3","019d6b6b-efb1-77fd-bb58-c199b7d9270a","019d6b28-084c-76dd-a1cb-5ac041bdee9a","","null","
                <div class=""stimulus-container"">
                    <img src=""semantic_sequence_notimeline/animals_semantic/animals_semantic_5.png"" class=""exp-image"">
                    <div class=""question-area""></div> 
                </div>","null","","","","","","","","","","","",""
"","","","","","html-button-response","47","153664","0.0-47.0","F28B6EEB3C424F87930A4FB9466155B3","019d6b6b-efb1-77fd-bb58-c199b7d9270a","019d6b28-084c-76dd-a1cb-5ac041bdee9a","","614","
                <div class=""stimulus-container"">
                    <img src=""semantic_sequence_notimeline/animals_semantic/animals_semantic_5.png"" class=""exp-image"">
                    <div class=""question-area"">
                        <p style=""font-size: 20px; font-weight: bold; margin: 0;"">Is there a person in this image?</p>
                    </div>
                </div>","1","main_experiment_trial","5","animals_semantic","semantic_sequence_notimeline","chronological","","","","","","",""
"","","","","","html-keyboard-response","48","158666","0.0-48.0","F28B6EEB3C424F87930A4FB9466155B3","019d6b6b-efb1-77fd-bb58-c199b7d9270a","019d6b28-084c-76dd-a1cb-5ac041bdee9a","","null","
                <div class=""stimulus-container"">
                    <img src=""semantic_sequence_notimeline/animals_semantic/animals_semantic_6.png"" class=""exp-image"">
                    <div class=""question-area""></div> 
                </div>","null","","","","","","","","","","","",""
"","","","","","html-button-response","49","159280","0.0-49.0","F28B6EEB3C424F87930A4FB9466155B3","019d6b6b-efb1-77fd-bb58-c199b7d9270a","019d6b28-084c-76dd-a1cb-5ac041bdee9a","","614","
                <div class=""stimulus-container"">
                    <img src=""semantic_sequence_notimeline/animals_semantic/animals_semantic_6.png"" class=""exp-image"">
                    <div class=""question-area"">
                        <p style=""font-size: 20px; font-weight: bold; margin: 0;"">Is there a person in this image?</p>
                    </div>
                </div>","1","main_experiment_trial","6","animals_semantic","semantic_sequence_notimeline","chronological","","","","","","",""
"","","","","","html-keyboard-response","50","164282","0.0-50.0","F28B6EEB3C424F87930A4FB9466155B3","019d6b6b-efb1-77fd-bb58-c199b7d9270a","019d6b28-084c-76dd-a1cb-5ac041bdee9a","","null","
                <div class=""stimulus-container"">
                    <img src=""semantic_sequence_notimeline/animals_semantic/animals_semantic_7.png"" class=""exp-image"">
                    <div class=""question-area""></div> 
                </div>","null","","","","","","","","","","","",""
"","","","","","html-button-response","51","165164","0.0-51.0","F28B6EEB3C424F87930A4FB9466155B3","019d6b6b-efb1-77fd-bb58-c199b7d9270a","019d6b28-084c-76dd-a1cb-5ac041bdee9a","","881","
                <div class=""stimulus-container"">
                    <img src=""semantic_sequence_notimeline/animals_semantic/animals_semantic_7.png"" class=""exp-image"">
                    <div class=""question-area"">
                        <p style=""font-size: 20px; font-weight: bold; margin: 0;"">Is there a person in this image?</p>
                    </div>
                </div>","1","main_experiment_trial","7","animals_semantic","semantic_sequence_notimeline","chronological","","","","","","",""
"","","","","","html-keyboard-response","52","170165","0.0-52.0","F28B6EEB3C424F87930A4FB9466155B3","019d6b6b-efb1-77fd-bb58-c199b7d9270a","019d6b28-084c-76dd-a1cb-5ac041bdee9a","","null","
                <div class=""stimulus-container"">
                    <img src=""semantic_sequence_notimeline/animals_semantic/animals_semantic_8.png"" class=""exp-image"">
                    <div class=""question-area""></div> 
                </div>","null","","","","","","","","","","","",""
"","","","","","html-button-response","53","173166","0.0-53.0","F28B6EEB3C424F87930A4FB9466155B3","019d6b6b-efb1-77fd-bb58-c199b7d9270a","019d6b28-084c-76dd-a1cb-5ac041bdee9a","","null","
                <div class=""stimulus-container"">
                    <img src=""semantic_sequence_notimeline/animals_semantic/animals_semantic_8.png"" class=""exp-image"">
                    <div class=""question-area"">
                        <p style=""font-size: 20px; font-weight: bold; margin: 0;"">Is there a person in this image?</p>
                    </div>
                </div>","null","main_experiment_trial","8","animals_semantic","semantic_sequence_notimeline","chronological","","","","","","",""
"","","","","","html-keyboard-response","54","178168","0.0-54.0","F28B6EEB3C424F87930A4FB9466155B3","019d6b6b-efb1-77fd-bb58-c199b7d9270a","019d6b28-084c-76dd-a1cb-5ac041bdee9a","","null","
                <div class=""stimulus-container"">
                    <img src=""semantic_sequence_notimeline/animals_semantic/animals_semantic_9.png"" class=""exp-image"">
                    <div class=""question-area""></div> 
                </div>","null","","","","","","","","","","","",""
"","","","","","html-button-response","55","178447","0.0-55.0","F28B6EEB3C424F87930A4FB9466155B3","019d6b6b-efb1-77fd-bb58-c199b7d9270a","019d6b28-084c-76dd-a1cb-5ac041bdee9a","","278","
                <div class=""stimulus-container"">
                    <img src=""semantic_sequence_notimeline/animals_semantic/animals_semantic_9.png"" class=""exp-image"">
                    <div class=""question-area"">
                        <p style=""font-size: 20px; font-weight: bold; margin: 0;"">Is there a person in this image?</p>
                    </div>
                </div>","1","main_experiment_trial","9","animals_semantic","semantic_sequence_notimeline","chronological","","","","","","",""
"","","","","","html-keyboard-response","56","183449","0.0-56.0","F28B6EEB3C424F87930A4FB9466155B3","019d6b6b-efb1-77fd-bb58-c199b7d9270a","019d6b28-084c-76dd-a1cb-5ac041bdee9a","","null","
                <div class=""stimulus-container"">
                    <img src=""semantic_sequence_notimeline/animals_semantic/animals_semantic_ten.png"" class=""exp-image"">
                    <div class=""question-area""></div> 
                </div>","null","","","","","","","","","","","",""
"","","","","","html-button-response","57","183980","0.0-57.0","F28B6EEB3C424F87930A4FB9466155B3","019d6b6b-efb1-77fd-bb58-c199b7d9270a","019d6b28-084c-76dd-a1cb-5ac041bdee9a","","531","
                <div class=""stimulus-container"">
                    <img src=""semantic_sequence_notimeline/animals_semantic/animals_semantic_ten.png"" class=""exp-image"">
                    <div class=""question-area"">
                        <p style=""font-size: 20px; font-weight: bold; margin: 0;"">Is there a person in this image?</p>
                    </div>
                </div>","1","main_experiment_trial","ten","animals_semantic","semantic_sequence_notimeline","chronological","","","","","","",""
"","","","","","html-keyboard-response","58","188981","0.0-58.0","F28B6EEB3C424F87930A4FB9466155B3","019d6b6b-efb1-77fd-bb58-c199b7d9270a","019d6b28-084c-76dd-a1cb-5ac041bdee9a","","null","<div style=""background-color: white; width: 100vw; height: 100vh;""></div>","null","","","","","","","","","","","",""
"","","","","","html-keyboard-response","59","193983","0.0-59.0","F28B6EEB3C424F87930A4FB9466155B3","019d6b6b-efb1-77fd-bb58-c199b7d9270a","019d6b28-084c-76dd-a1cb-5ac041bdee9a","","null","
                <div class=""stimulus-container"">
                    <img src=""images/causal_sequence/coin_causal/coin_causal_1.png"" class=""exp-image"">
                    <div class=""question-area""></div> 
                </div>","null","","","","","","","","","","","",""
"","","","","","html-button-response","60","194997","0.0-60.0","F28B6EEB3C424F87930A4FB9466155B3","019d6b6b-efb1-77fd-bb58-c199b7d9270a","019d6b28-084c-76dd-a1cb-5ac041bdee9a","","1014","
                <div class=""stimulus-container"">
                    <img src=""images/causal_sequence/coin_causal/coin_causal_1.png"" class=""exp-image"">
                    <div class=""question-area"">
                        <p style=""font-size: 20px; font-weight: bold; margin: 0;"">Is there a person in this image?</p>
                    </div>
                </div>","0","main_experiment_trial","1","coin_causal","causal_sequence","chronological","","","","","","",""
"","","","","","html-keyboard-response","61","199998","0.0-61.0","F28B6EEB3C424F87930A4FB9466155B3","019d6b6b-efb1-77fd-bb58-c199b7d9270a","019d6b28-084c-76dd-a1cb-5ac041bdee9a","","null","
                <div class=""stimulus-container"">
                    <img src=""images/causal_sequence/coin_causal/coin_causal_2.png"" class=""exp-image"">
                    <div class=""question-area""></div> 
                </div>","null","","","","","","","","","","","",""
"","","","","","html-button-response","62","200530","0.0-62.0","F28B6EEB3C424F87930A4FB9466155B3","019d6b6b-efb1-77fd-bb58-c199b7d9270a","019d6b28-084c-76dd-a1cb-5ac041bdee9a","","531","
                <div class=""stimulus-container"">
                    <img src=""images/causal_sequence/coin_causal/coin_causal_2.png"" class=""exp-image"">
                    <div class=""question-area"">
                        <p style=""font-size: 20px; font-weight: bold; margin: 0;"">Is there a person in this image?</p>
                    </div>
                </div>","0","main_experiment_trial","2","coin_causal","causal_sequence","chronological","","","","","","",""
"","","","","","html-keyboard-response","63","205532","0.0-63.0","F28B6EEB3C424F87930A4FB9466155B3","019d6b6b-efb1-77fd-bb58-c199b7d9270a","019d6b28-084c-76dd-a1cb-5ac041bdee9a","","null","
                <div class=""stimulus-container"">
                    <img src=""images/causal_sequence/coin_causal/coin_causal_3.png"" class=""exp-image"">
                    <div class=""question-area""></div> 
                </div>","null","","","","","","","","","","","",""
"","","","","","html-button-response","64","206063","0.0-64.0","F28B6EEB3C424F87930A4FB9466155B3","019d6b6b-efb1-77fd-bb58-c199b7d9270a","019d6b28-084c-76dd-a1cb-5ac041bdee9a","","531","
                <div class=""stimulus-container"">
                    <img src=""images/causal_sequence/coin_causal/coin_causal_3.png"" class=""exp-image"">
                    <div class=""question-area"">
                        <p style=""font-size: 20px; font-weight: bold; margin: 0;"">Is there a person in this image?</p>
                    </div>
                </div>","0","main_experiment_trial","3","coin_causal","causal_sequence","chronological","","","","","","",""
"","","","","","html-keyboard-response","65","211065","0.0-65.0","F28B6EEB3C424F87930A4FB9466155B3","019d6b6b-efb1-77fd-bb58-c199b7d9270a","019d6b28-084c-76dd-a1cb-5ac041bdee9a","","null","
                <div class=""stimulus-container"">
                    <img src=""images/causal_sequence/coin_causal/coin_causal_4.png"" class=""exp-image"">
                    <div class=""question-area""></div> 
                </div>","null","","","","","","","","","","","",""
"","","","","","html-button-response","66","211563","0.0-66.0","F28B6EEB3C424F87930A4FB9466155B3","019d6b6b-efb1-77fd-bb58-c199b7d9270a","019d6b28-084c-76dd-a1cb-5ac041bdee9a","","498","
                <div class=""stimulus-container"">
                    <img src=""images/causal_sequence/coin_causal/coin_causal_4.png"" class=""exp-image"">
                    <div class=""question-area"">
                        <p style=""font-size: 20px; font-weight: bold; margin: 0;"">Is there a person in this image?</p>
                    </div>
                </div>","0","main_experiment_trial","4","coin_causal","causal_sequence","chronological","","","","","","",""
"","","","","","html-keyboard-response","67","216565","0.0-67.0","F28B6EEB3C424F87930A4FB9466155B3","019d6b6b-efb1-77fd-bb58-c199b7d9270a","019d6b28-084c-76dd-a1cb-5ac041bdee9a","","null","
                <div class=""stimulus-container"">
                    <img src=""images/causal_sequence/coin_causal/coin_causal_5.png"" class=""exp-image"">
                    <div class=""question-area""></div> 
                </div>","null","","","","","","","","","","","",""
"","","","","","html-button-response","68","217113","0.0-68.0","F28B6EEB3C424F87930A4FB9466155B3","019d6b6b-efb1-77fd-bb58-c199b7d9270a","019d6b28-084c-76dd-a1cb-5ac041bdee9a","","548","
                <div class=""stimulus-container"">
                    <img src=""images/causal_sequence/coin_causal/coin_causal_5.png"" class=""exp-image"">
                    <div class=""question-area"">
                        <p style=""font-size: 20px; font-weight: bold; margin: 0;"">Is there a person in this image?</p>
                    </div>
                </div>","0","main_experiment_trial","5","coin_causal","causal_sequence","chronological","","","","","","",""
"","","","","","html-keyboard-response","69","222115","0.0-69.0","F28B6EEB3C424F87930A4FB9466155B3","019d6b6b-efb1-77fd-bb58-c199b7d9270a","019d6b28-084c-76dd-a1cb-5ac041bdee9a","","null","
                <div class=""stimulus-container"">
                    <img src=""images/causal_sequence/coin_causal/coin_causal_6.png"" class=""exp-image"">
                    <div class=""question-area""></div> 
                </div>","null","","","","","","","","","","","",""
"","","","","","html-button-response","70","222580","0.0-70.0","F28B6EEB3C424F87930A4FB9466155B3","019d6b6b-efb1-77fd-bb58-c199b7d9270a","019d6b28-084c-76dd-a1cb-5ac041bdee9a","","464","
                <div class=""stimulus-container"">
                    <img src=""images/causal_sequence/coin_causal/coin_causal_6.png"" class=""exp-image"">
                    <div class=""question-area"">
                        <p style=""font-size: 20px; font-weight: bold; margin: 0;"">Is there a person in this image?</p>
                    </div>
                </div>","0","main_experiment_trial","6","coin_causal","causal_sequence","chronological","","","","","","",""
"","","","","","html-keyboard-response","71","227582","0.0-71.0","F28B6EEB3C424F87930A4FB9466155B3","019d6b6b-efb1-77fd-bb58-c199b7d9270a","019d6b28-084c-76dd-a1cb-5ac041bdee9a","","null","
                <div class=""stimulus-container"">
                    <img src=""images/causal_sequence/coin_causal/coin_causal_7.png"" class=""exp-image"">
                    <div class=""question-area""></div> 
                </div>","null","","","","","","","","","","","",""
"","","","","","html-button-response","72","228197","0.0-72.0","F28B6EEB3C424F87930A4FB9466155B3","019d6b6b-efb1-77fd-bb58-c199b7d9270a","019d6b28-084c-76dd-a1cb-5ac041bdee9a","","614","
                <div class=""stimulus-container"">
                    <img src=""images/causal_sequence/coin_causal/coin_causal_7.png"" class=""exp-image"">
                    <div class=""question-area"">
                        <p style=""font-size: 20px; font-weight: bold; margin: 0;"">Is there a person in this image?</p>
                    </div>
                </div>","0","main_experiment_trial","7","coin_causal","causal_sequence","chronological","","","","","","",""
"","","","","","html-keyboard-response","73","233199","0.0-73.0","F28B6EEB3C424F87930A4FB9466155B3","019d6b6b-efb1-77fd-bb58-c199b7d9270a","019d6b28-084c-76dd-a1cb-5ac041bdee9a","","null","
                <div class=""stimulus-container"">
                    <img src=""images/causal_sequence/coin_causal/coin_causal_8.png"" class=""exp-image"">
                    <div class=""question-area""></div> 
                </div>","null","","","","","","","","","","","",""
"","","","","","html-button-response","74","233480","0.0-74.0","F28B6EEB3C424F87930A4FB9466155B3","019d6b6b-efb1-77fd-bb58-c199b7d9270a","019d6b28-084c-76dd-a1cb-5ac041bdee9a","","281","
                <div class=""stimulus-container"">
                    <img src=""images/causal_sequence/coin_causal/coin_causal_8.png"" class=""exp-image"">
                    <div class=""question-area"">
                        <p style=""font-size: 20px; font-weight: bold; margin: 0;"">Is there a person in this image?</p>
                    </div>
                </div>","0","main_experiment_trial","8","coin_causal","causal_sequence","chronological","","","","","","",""
"","","","","","html-keyboard-response","75","238482","0.0-75.0","F28B6EEB3C424F87930A4FB9466155B3","019d6b6b-efb1-77fd-bb58-c199b7d9270a","019d6b28-084c-76dd-a1cb-5ac041bdee9a","","null","
                <div class=""stimulus-container"">
                    <img src=""images/causal_sequence/coin_causal/coin_causal_9.png"" class=""exp-image"">
                    <div class=""question-area""></div> 
                </div>","null","","","","","","","","","","","",""
"","","","","","html-button-response","76","238947","0.0-76.0","F28B6EEB3C424F87930A4FB9466155B3","019d6b6b-efb1-77fd-bb58-c199b7d9270a","019d6b28-084c-76dd-a1cb-5ac041bdee9a","","464","
                <div class=""stimulus-container"">
                    <img src=""images/causal_sequence/coin_causal/coin_causal_9.png"" class=""exp-image"">
                    <div class=""question-area"">
                        <p style=""font-size: 20px; font-weight: bold; margin: 0;"">Is there a person in this image?</p>
                    </div>
                </div>","0","main_experiment_trial","9","coin_causal","causal_sequence","chronological","","","","","","",""
"","","","","","html-keyboard-response","77","243948","0.0-77.0","F28B6EEB3C424F87930A4FB9466155B3","019d6b6b-efb1-77fd-bb58-c199b7d9270a","019d6b28-084c-76dd-a1cb-5ac041bdee9a","","null","
                <div class=""stimulus-container"">
                    <img src=""images/causal_sequence/coin_causal/coin_causal_ten.png"" class=""exp-image"">
                    <div class=""question-area""></div> 
                </div>","null","","","","","","","","","","","",""
"","","","","","html-button-response","78","244530","0.0-78.0","F28B6EEB3C424F87930A4FB9466155B3","019d6b6b-efb1-77fd-bb58-c199b7d9270a","019d6b28-084c-76dd-a1cb-5ac041bdee9a","","581","
                <div class=""stimulus-container"">
                    <img src=""images/causal_sequence/coin_causal/coin_causal_ten.png"" class=""exp-image"">
                    <div class=""question-area"">
                        <p style=""font-size: 20px; font-weight: bold; margin: 0;"">Is there a person in this image?</p>
                    </div>
                </div>","0","main_experiment_trial","ten","coin_causal","causal_sequence","chronological","","","","","","",""
"","","","","","html-keyboard-response","79","249531","0.0-79.0","F28B6EEB3C424F87930A4FB9466155B3","019d6b6b-efb1-77fd-bb58-c199b7d9270a","019d6b28-084c-76dd-a1cb-5ac041bdee9a","","null","<div style=""background-color: white; width: 100vw; height: 100vh;""></div>","null","","","","","","","","","","","",""
"","","","","","html-keyboard-response","80","254533","0.0-80.0","F28B6EEB3C424F87930A4FB9466155B3","019d6b6b-efb1-77fd-bb58-c199b7d9270a","019d6b28-084c-76dd-a1cb-5ac041bdee9a","","null","
                <div class=""stimulus-container"">
                    <img src=""images/causal_sequence/package_causal/package_causal_1.png"" class=""exp-image"">
                    <div class=""question-area""></div> 
                </div>","null","","","","","","","","","","","",""
"","","","","","html-button-response","81","255163","0.0-81.0","F28B6EEB3C424F87930A4FB9466155B3","019d6b6b-efb1-77fd-bb58-c199b7d9270a","019d6b28-084c-76dd-a1cb-5ac041bdee9a","","630","
                <div class=""stimulus-container"">
                    <img src=""images/causal_sequence/package_causal/package_causal_1.png"" class=""exp-image"">
                    <div class=""question-area"">
                        <p style=""font-size: 20px; font-weight: bold; margin: 0;"">Is there a person in this image?</p>
                    </div>
                </div>","0","main_experiment_trial","1","package_causal","causal_sequence","chronological","","","","","","",""
"","","","","","html-keyboard-response","82","260164","0.0-82.0","F28B6EEB3C424F87930A4FB9466155B3","019d6b6b-efb1-77fd-bb58-c199b7d9270a","019d6b28-084c-76dd-a1cb-5ac041bdee9a","","null","
                <div class=""stimulus-container"">
                    <img src=""images/causal_sequence/package_causal/package_causal_2.png"" class=""exp-image"">
                    <div class=""question-area""></div> 
                </div>","null","","","","","","","","","","","",""
"","","","","","html-button-response","83","260763","0.0-83.0","F28B6EEB3C424F87930A4FB9466155B3","019d6b6b-efb1-77fd-bb58-c199b7d9270a","019d6b28-084c-76dd-a1cb-5ac041bdee9a","","599","
                <div class=""stimulus-container"">
                    <img src=""images/causal_sequence/package_causal/package_causal_2.png"" class=""exp-image"">
                    <div class=""question-area"">
                        <p style=""font-size: 20px; font-weight: bold; margin: 0;"">Is there a person in this image?</p>
                    </div>
                </div>","0","main_experiment_trial","2","package_causal","causal_sequence","chronological","","","","","","",""
"","","","","","html-keyboard-response","84","265765","0.0-84.0","F28B6EEB3C424F87930A4FB9466155B3","019d6b6b-efb1-77fd-bb58-c199b7d9270a","019d6b28-084c-76dd-a1cb-5ac041bdee9a","","null","
                <div class=""stimulus-container"">
                    <img src=""images/causal_sequence/package_causal/package_causal_3.png"" class=""exp-image"">
                    <div class=""question-area""></div> 
                </div>","null","","","","","","","","","","","",""
"","","","","","html-button-response","85","266680","0.0-85.0","F28B6EEB3C424F87930A4FB9466155B3","019d6b6b-efb1-77fd-bb58-c199b7d9270a","019d6b28-084c-76dd-a1cb-5ac041bdee9a","","914","
                <div class=""stimulus-container"">
                    <img src=""images/causal_sequence/package_causal/package_causal_3.png"" class=""exp-image"">
                    <div class=""question-area"">
                        <p style=""font-size: 20px; font-weight: bold; margin: 0;"">Is there a person in this image?</p>
                    </div>
                </div>","0","main_experiment_trial","3","package_causal","causal_sequence","chronological","","","","","","",""
"","","","","","html-keyboard-response","86","271680","0.0-86.0","F28B6EEB3C424F87930A4FB9466155B3","019d6b6b-efb1-77fd-bb58-c199b7d9270a","019d6b28-084c-76dd-a1cb-5ac041bdee9a","","null","
                <div class=""stimulus-container"">
                    <img src=""images/causal_sequence/package_causal/package_causal_4.png"" class=""exp-image"">
                    <div class=""question-area""></div> 
                </div>","null","","","","","","","","","","","",""
"","","","","","html-button-response","87","272180","0.0-87.0","F28B6EEB3C424F87930A4FB9466155B3","019d6b6b-efb1-77fd-bb58-c199b7d9270a","019d6b28-084c-76dd-a1cb-5ac041bdee9a","","499","
                <div class=""stimulus-container"">
                    <img src=""images/causal_sequence/package_causal/package_causal_4.png"" class=""exp-image"">
                    <div class=""question-area"">
                        <p style=""font-size: 20px; font-weight: bold; margin: 0;"">Is there a person in this image?</p>
                    </div>
                </div>","1","main_experiment_trial","4","package_causal","causal_sequence","chronological","","","","","","",""
"","","","","","html-keyboard-response","88","277182","0.0-88.0","F28B6EEB3C424F87930A4FB9466155B3","019d6b6b-efb1-77fd-bb58-c199b7d9270a","019d6b28-084c-76dd-a1cb-5ac041bdee9a","","null","
                <div class=""stimulus-container"">
                    <img src=""images/causal_sequence/package_causal/package_causal_5.png"" class=""exp-image"">
                    <div class=""question-area""></div> 
                </div>","null","","","","","","","","","","","",""
"","","","","","html-button-response","89","278213","0.0-89.0","F28B6EEB3C424F87930A4FB9466155B3","019d6b6b-efb1-77fd-bb58-c199b7d9270a","019d6b28-084c-76dd-a1cb-5ac041bdee9a","","1031","
                <div class=""stimulus-container"">
                    <img src=""images/causal_sequence/package_causal/package_causal_5.png"" class=""exp-image"">
                    <div class=""question-area"">
                        <p style=""font-size: 20px; font-weight: bold; margin: 0;"">Is there a person in this image?</p>
                    </div>
                </div>","0","main_experiment_trial","5","package_causal","causal_sequence","chronological","","","","","","",""
"","","","","","html-keyboard-response","90","283215","0.0-90.0","F28B6EEB3C424F87930A4FB9466155B3","019d6b6b-efb1-77fd-bb58-c199b7d9270a","019d6b28-084c-76dd-a1cb-5ac041bdee9a","","null","
                <div class=""stimulus-container"">
                    <img src=""images/causal_sequence/package_causal/package_causal_6.png"" class=""exp-image"">
                    <div class=""question-area""></div> 
                </div>","null","","","","","","","","","","","",""
"","","","","","html-button-response","91","283780","0.0-91.0","F28B6EEB3C424F87930A4FB9466155B3","019d6b6b-efb1-77fd-bb58-c199b7d9270a","019d6b28-084c-76dd-a1cb-5ac041bdee9a","","564","
                <div class=""stimulus-container"">
                    <img src=""images/causal_sequence/package_causal/package_causal_6.png"" class=""exp-image"">
                    <div class=""question-area"">
                        <p style=""font-size: 20px; font-weight: bold; margin: 0;"">Is there a person in this image?</p>
                    </div>
                </div>","0","main_experiment_trial","6","package_causal","causal_sequence","chronological","","","","","","",""
"","","","","","html-keyboard-response","92","288781","0.0-92.0","F28B6EEB3C424F87930A4FB9466155B3","019d6b6b-efb1-77fd-bb58-c199b7d9270a","019d6b28-084c-76dd-a1cb-5ac041bdee9a","","null","
                <div class=""stimulus-container"">
                    <img src=""images/causal_sequence/package_causal/package_causal_7.png"" class=""exp-image"">
                    <div class=""question-area""></div> 
                </div>","null","","","","","","","","","","","",""
"","","","","","html-button-response","93","289196","0.0-93.0","F28B6EEB3C424F87930A4FB9466155B3","019d6b6b-efb1-77fd-bb58-c199b7d9270a","019d6b28-084c-76dd-a1cb-5ac041bdee9a","","415","
                <div class=""stimulus-container"">
                    <img src=""images/causal_sequence/package_causal/package_causal_7.png"" class=""exp-image"">
                    <div class=""question-area"">
                        <p style=""font-size: 20px; font-weight: bold; margin: 0;"">Is there a person in this image?</p>
                    </div>
                </div>","0","main_experiment_trial","7","package_causal","causal_sequence","chronological","","","","","","",""
"","","","","","html-keyboard-response","94","294198","0.0-94.0","F28B6EEB3C424F87930A4FB9466155B3","019d6b6b-efb1-77fd-bb58-c199b7d9270a","019d6b28-084c-76dd-a1cb-5ac041bdee9a","","null","
                <div class=""stimulus-container"">
                    <img src=""images/causal_sequence/package_causal/package_causal_8.png"" class=""exp-image"">
                    <div class=""question-area""></div> 
                </div>","null","","","","","","","","","","","",""
"","","","","","html-button-response","95","294596","0.0-95.0","F28B6EEB3C424F87930A4FB9466155B3","019d6b6b-efb1-77fd-bb58-c199b7d9270a","019d6b28-084c-76dd-a1cb-5ac041bdee9a","","398","
                <div class=""stimulus-container"">
                    <img src=""images/causal_sequence/package_causal/package_causal_8.png"" class=""exp-image"">
                    <div class=""question-area"">
                        <p style=""font-size: 20px; font-weight: bold; margin: 0;"">Is there a person in this image?</p>
                    </div>
                </div>","0","main_experiment_trial","8","package_causal","causal_sequence","chronological","","","","","","",""
"","","","","","html-keyboard-response","96","299598","0.0-96.0","F28B6EEB3C424F87930A4FB9466155B3","019d6b6b-efb1-77fd-bb58-c199b7d9270a","019d6b28-084c-76dd-a1cb-5ac041bdee9a","","null","
                <div class=""stimulus-container"">
                    <img src=""images/causal_sequence/package_causal/package_causal_9.png"" class=""exp-image"">
                    <div class=""question-area""></div> 
                </div>","null","","","","","","","","","","","",""
"","","","","","html-button-response","97","299763","0.0-97.0","F28B6EEB3C424F87930A4FB9466155B3","019d6b6b-efb1-77fd-bb58-c199b7d9270a","019d6b28-084c-76dd-a1cb-5ac041bdee9a","","164","
                <div class=""stimulus-container"">
                    <img src=""images/causal_sequence/package_causal/package_causal_9.png"" class=""exp-image"">
                    <div class=""question-area"">
                        <p style=""font-size: 20px; font-weight: bold; margin: 0;"">Is there a person in this image?</p>
                    </div>
                </div>","0","main_experiment_trial","9","package_causal","causal_sequence","chronological","","","","","","",""
"","","","","","html-keyboard-response","98","304765","0.0-98.0","F28B6EEB3C424F87930A4FB9466155B3","019d6b6b-efb1-77fd-bb58-c199b7d9270a","019d6b28-084c-76dd-a1cb-5ac041bdee9a","","null","
                <div class=""stimulus-container"">
                    <img src=""images/causal_sequence/package_causal/package_causal_ten.png"" class=""exp-image"">
                    <div class=""question-area""></div> 
                </div>","null","","","","","","","","","","","",""
"","","","","","html-button-response","99","306396","0.0-99.0","F28B6EEB3C424F87930A4FB9466155B3","019d6b6b-efb1-77fd-bb58-c199b7d9270a","019d6b28-084c-76dd-a1cb-5ac041bdee9a","","1631","
                <div class=""stimulus-container"">
                    <img src=""images/causal_sequence/package_causal/package_causal_ten.png"" class=""exp-image"">
                    <div class=""question-area"">
                        <p style=""font-size: 20px; font-weight: bold; margin: 0;"">Is there a person in this image?</p>
                    </div>
                </div>","0","main_experiment_trial","ten","package_causal","causal_sequence","chronological","","","","","","",""
"","","","","","html-keyboard-response","100","311397","0.0-100.0","F28B6EEB3C424F87930A4FB9466155B3","019d6b6b-efb1-77fd-bb58-c199b7d9270a","019d6b28-084c-76dd-a1cb-5ac041bdee9a","","null","<div style=""background-color: white; width: 100vw; height: 100vh;""></div>","null","","","","","","","","","","","",""
"","","","","","html-keyboard-response","101","316399","0.0-101.0","F28B6EEB3C424F87930A4FB9466155B3","019d6b6b-efb1-77fd-bb58-c199b7d9270a","019d6b28-084c-76dd-a1cb-5ac041bdee9a","","null","
                <div class=""stimulus-container"">
                    <img src=""images/causal_sequence/saving_a_cat_causal/saving_a_cat_causal_1.png"" class=""exp-image"">
                    <div class=""question-area""></div> 
                </div>","null","","","","","","","","","","","",""
"","","","","","html-button-response","102","316880","0.0-102.0","F28B6EEB3C424F87930A4FB9466155B3","019d6b6b-efb1-77fd-bb58-c199b7d9270a","019d6b28-084c-76dd-a1cb-5ac041bdee9a","","480","
                <div class=""stimulus-container"">
                    <img src=""images/causal_sequence/saving_a_cat_causal/saving_a_cat_causal_1.png"" class=""exp-image"">
                    <div class=""question-area"">
                        <p style=""font-size: 20px; font-weight: bold; margin: 0;"">Is there a person in this image?</p>
                    </div>
                </div>","0","main_experiment_trial","1","saving_a_cat_causal","causal_sequence","chronological","","","","","","",""
"","","","","","html-keyboard-response","103","321882","0.0-103.0","F28B6EEB3C424F87930A4FB9466155B3","019d6b6b-efb1-77fd-bb58-c199b7d9270a","019d6b28-084c-76dd-a1cb-5ac041bdee9a","","null","
                <div class=""stimulus-container"">
                    <img src=""images/causal_sequence/saving_a_cat_causal/saving_a_cat_causal_2.png"" class=""exp-image"">
                    <div class=""question-area""></div> 
                </div>","null","","","","","","","","","","","",""
"","","","","","html-button-response","104","322396","0.0-104.0","F28B6EEB3C424F87930A4FB9466155B3","019d6b6b-efb1-77fd-bb58-c199b7d9270a","019d6b28-084c-76dd-a1cb-5ac041bdee9a","","514","
                <div class=""stimulus-container"">
                    <img src=""images/causal_sequence/saving_a_cat_causal/saving_a_cat_causal_2.png"" class=""exp-image"">
                    <div class=""question-area"">
                        <p style=""font-size: 20px; font-weight: bold; margin: 0;"">Is there a person in this image?</p>
                    </div>
                </div>","1","main_experiment_trial","2","saving_a_cat_causal","causal_sequence","chronological","","","","","","",""
"","","","","","html-keyboard-response","105","327398","0.0-105.0","F28B6EEB3C424F87930A4FB9466155B3","019d6b6b-efb1-77fd-bb58-c199b7d9270a","019d6b28-084c-76dd-a1cb-5ac041bdee9a","","null","
                <div class=""stimulus-container"">
                    <img src=""images/causal_sequence/saving_a_cat_causal/saving_a_cat_causal_3.png"" class=""exp-image"">
                    <div class=""question-area""></div> 
                </div>","null","","","","","","","","","","","",""
"","","","","","html-button-response","106","327913","0.0-106.0","F28B6EEB3C424F87930A4FB9466155B3","019d6b6b-efb1-77fd-bb58-c199b7d9270a","019d6b28-084c-76dd-a1cb-5ac041bdee9a","","514","
                <div class=""stimulus-container"">
                    <img src=""images/causal_sequence/saving_a_cat_causal/saving_a_cat_causal_3.png"" class=""exp-image"">
                    <div class=""question-area"">
                        <p style=""font-size: 20px; font-weight: bold; margin: 0;"">Is there a person in this image?</p>
                    </div>
                </div>","1","main_experiment_trial","3","saving_a_cat_causal","causal_sequence","chronological","","","","","","",""
"","","","","","html-keyboard-response","107","332914","0.0-107.0","F28B6EEB3C424F87930A4FB9466155B3","019d6b6b-efb1-77fd-bb58-c199b7d9270a","019d6b28-084c-76dd-a1cb-5ac041bdee9a","","null","
                <div class=""stimulus-container"">
                    <img src=""images/causal_sequence/saving_a_cat_causal/saving_a_cat_causal_4.png"" class=""exp-image"">
                    <div class=""question-area""></div> 
                </div>","null","","","","","","","","","","","",""
"","","","","","html-button-response","108","333363","0.0-108.0","F28B6EEB3C424F87930A4FB9466155B3","019d6b6b-efb1-77fd-bb58-c199b7d9270a","019d6b28-084c-76dd-a1cb-5ac041bdee9a","","448","
                <div class=""stimulus-container"">
                    <img src=""images/causal_sequence/saving_a_cat_causal/saving_a_cat_causal_4.png"" class=""exp-image"">
                    <div class=""question-area"">
                        <p style=""font-size: 20px; font-weight: bold; margin: 0;"">Is there a person in this image?</p>
                    </div>
                </div>","0","main_experiment_trial","4","saving_a_cat_causal","causal_sequence","chronological","","","","","","",""
"","","","","","html-keyboard-response","109","338365","0.0-109.0","F28B6EEB3C424F87930A4FB9466155B3","019d6b6b-efb1-77fd-bb58-c199b7d9270a","019d6b28-084c-76dd-a1cb-5ac041bdee9a","","null","
                <div class=""stimulus-container"">
                    <img src=""images/causal_sequence/saving_a_cat_causal/saving_a_cat_causal_5.png"" class=""exp-image"">
                    <div class=""question-area""></div> 
                </div>","null","","","","","","","","","","","",""
"","","","","","html-button-response","110","338963","0.0-110.0","F28B6EEB3C424F87930A4FB9466155B3","019d6b6b-efb1-77fd-bb58-c199b7d9270a","019d6b28-084c-76dd-a1cb-5ac041bdee9a","","598","
                <div class=""stimulus-container"">
                    <img src=""images/causal_sequence/saving_a_cat_causal/saving_a_cat_causal_5.png"" class=""exp-image"">
                    <div class=""question-area"">
                        <p style=""font-size: 20px; font-weight: bold; margin: 0;"">Is there a person in this image?</p>
                    </div>
                </div>","0","main_experiment_trial","5","saving_a_cat_causal","causal_sequence","chronological","","","","","","",""
"","","","","","html-keyboard-response","111","343965","0.0-111.0","F28B6EEB3C424F87930A4FB9466155B3","019d6b6b-efb1-77fd-bb58-c199b7d9270a","019d6b28-084c-76dd-a1cb-5ac041bdee9a","","null","
                <div class=""stimulus-container"">
                    <img src=""images/causal_sequence/saving_a_cat_causal/saving_a_cat_causal_6.png"" class=""exp-image"">
                    <div class=""question-area""></div> 
                </div>","null","","","","","","","","","","","",""
"","","","","","html-button-response","112","344680","0.0-112.0","F28B6EEB3C424F87930A4FB9466155B3","019d6b6b-efb1-77fd-bb58-c199b7d9270a","019d6b28-084c-76dd-a1cb-5ac041bdee9a","","714","
                <div class=""stimulus-container"">
                    <img src=""images/causal_sequence/saving_a_cat_causal/saving_a_cat_causal_6.png"" class=""exp-image"">
                    <div class=""question-area"">
                        <p style=""font-size: 20px; font-weight: bold; margin: 0;"">Is there a person in this image?</p>
                    </div>
                </div>","0","main_experiment_trial","6","saving_a_cat_causal","causal_sequence","chronological","","","","","","",""
"","","","","","html-keyboard-response","113","349681","0.0-113.0","F28B6EEB3C424F87930A4FB9466155B3","019d6b6b-efb1-77fd-bb58-c199b7d9270a","019d6b28-084c-76dd-a1cb-5ac041bdee9a","","null","
                <div class=""stimulus-container"">
                    <img src=""images/causal_sequence/saving_a_cat_causal/saving_a_cat_causal_7.png"" class=""exp-image"">
                    <div class=""question-area""></div> 
                </div>","null","","","","","","","","","","","",""
"","","","","","html-button-response","114","350129","0.0-114.0","F28B6EEB3C424F87930A4FB9466155B3","019d6b6b-efb1-77fd-bb58-c199b7d9270a","019d6b28-084c-76dd-a1cb-5ac041bdee9a","","448","
                <div class=""stimulus-container"">
                    <img src=""images/causal_sequence/saving_a_cat_causal/saving_a_cat_causal_7.png"" class=""exp-image"">
                    <div class=""question-area"">
                        <p style=""font-size: 20px; font-weight: bold; margin: 0;"">Is there a person in this image?</p>
                    </div>
                </div>","0","main_experiment_trial","7","saving_a_cat_causal","causal_sequence","chronological","","","","","","",""
"","","","","","html-keyboard-response","115","355131","0.0-115.0","F28B6EEB3C424F87930A4FB9466155B3","019d6b6b-efb1-77fd-bb58-c199b7d9270a","019d6b28-084c-76dd-a1cb-5ac041bdee9a","","null","
                <div class=""stimulus-container"">
                    <img src=""images/causal_sequence/saving_a_cat_causal/saving_a_cat_causal_8.png"" class=""exp-image"">
                    <div class=""question-area""></div> 
                </div>","null","","","","","","","","","","","",""
"","","","","","html-button-response","116","355713","0.0-116.0","F28B6EEB3C424F87930A4FB9466155B3","019d6b6b-efb1-77fd-bb58-c199b7d9270a","019d6b28-084c-76dd-a1cb-5ac041bdee9a","","581","
                <div class=""stimulus-container"">
                    <img src=""images/causal_sequence/saving_a_cat_causal/saving_a_cat_causal_8.png"" class=""exp-image"">
                    <div class=""question-area"">
                        <p style=""font-size: 20px; font-weight: bold; margin: 0;"">Is there a person in this image?</p>
                    </div>
                </div>","0","main_experiment_trial","8","saving_a_cat_causal","causal_sequence","chronological","","","","","","",""
"","","","","","html-keyboard-response","117","360715","0.0-117.0","F28B6EEB3C424F87930A4FB9466155B3","019d6b6b-efb1-77fd-bb58-c199b7d9270a","019d6b28-084c-76dd-a1cb-5ac041bdee9a","","null","
                <div class=""stimulus-container"">
                    <img src=""images/causal_sequence/saving_a_cat_causal/saving_a_cat_causal_9.png"" class=""exp-image"">
                    <div class=""question-area""></div> 
                </div>","null","","","","","","","","","","","",""
"","","","","","html-button-response","118","361146","0.0-118.0","F28B6EEB3C424F87930A4FB9466155B3","019d6b6b-efb1-77fd-bb58-c199b7d9270a","019d6b28-084c-76dd-a1cb-5ac041bdee9a","","431","
                <div class=""stimulus-container"">
                    <img src=""images/causal_sequence/saving_a_cat_causal/saving_a_cat_causal_9.png"" class=""exp-image"">
                    <div class=""question-area"">
                        <p style=""font-size: 20px; font-weight: bold; margin: 0;"">Is there a person in this image?</p>
                    </div>
                </div>","0","main_experiment_trial","9","saving_a_cat_causal","causal_sequence","chronological","","","","","","",""
"","","","","","html-keyboard-response","119","366148","0.0-119.0","F28B6EEB3C424F87930A4FB9466155B3","019d6b6b-efb1-77fd-bb58-c199b7d9270a","019d6b28-084c-76dd-a1cb-5ac041bdee9a","","null","
                <div class=""stimulus-container"">
                    <img src=""images/causal_sequence/saving_a_cat_causal/saving_a_cat_causal_ten.png"" class=""exp-image"">
                    <div class=""question-area""></div> 
                </div>","null","","","","","","","","","","","",""
"","","","","","html-button-response","120","367279","0.0-120.0","F28B6EEB3C424F87930A4FB9466155B3","019d6b6b-efb1-77fd-bb58-c199b7d9270a","019d6b28-084c-76dd-a1cb-5ac041bdee9a","","1131","
                <div class=""stimulus-container"">
                    <img src=""images/causal_sequence/saving_a_cat_causal/saving_a_cat_causal_ten.png"" class=""exp-image"">
                    <div class=""question-area"">
                        <p style=""font-size: 20px; font-weight: bold; margin: 0;"">Is there a person in this image?</p>
                    </div>
                </div>","0","main_experiment_trial","ten","saving_a_cat_causal","causal_sequence","chronological","","","","","","",""
"","","","","","html-keyboard-response","121","372282","0.0-121.0","F28B6EEB3C424F87930A4FB9466155B3","019d6b6b-efb1-77fd-bb58-c199b7d9270a","019d6b28-084c-76dd-a1cb-5ac041bdee9a","","null","<div style=""background-color: white; width: 100vw; height: 100vh;""></div>","null","","","","","","","","","","","",""
"","","","","","html-keyboard-response","122","377284","0.0-122.0","F28B6EEB3C424F87930A4FB9466155B3","019d6b6b-efb1-77fd-bb58-c199b7d9270a","019d6b28-084c-76dd-a1cb-5ac041bdee9a","","null","
                <div class=""stimulus-container"">
                    <img src=""semantic_sequence_notimeline/household_objects_semantic/household_objects_semantic_1.png"" class=""exp-image"">
                    <div class=""question-area""></div> 
                </div>","null","","","","","","","","","","","",""
"","","","","","html-button-response","123","378163","0.0-123.0","F28B6EEB3C424F87930A4FB9466155B3","019d6b6b-efb1-77fd-bb58-c199b7d9270a","019d6b28-084c-76dd-a1cb-5ac041bdee9a","","878","
                <div class=""stimulus-container"">
                    <img src=""semantic_sequence_notimeline/household_objects_semantic/household_objects_semantic_1.png"" class=""exp-image"">
                    <div class=""question-area"">
                        <p style=""font-size: 20px; font-weight: bold; margin: 0;"">Is there a person in this image?</p>
                    </div>
                </div>","1","main_experiment_trial","1","household_objects_semantic","semantic_sequence_notimeline","chronological","","","","","","",""
"","","","","","html-keyboard-response","124","383165","0.0-124.0","F28B6EEB3C424F87930A4FB9466155B3","019d6b6b-efb1-77fd-bb58-c199b7d9270a","019d6b28-084c-76dd-a1cb-5ac041bdee9a","","null","
                <div class=""stimulus-container"">
                    <img src=""semantic_sequence_notimeline/household_objects_semantic/household_objects_semantic_2.png"" class=""exp-image"">
                    <div class=""question-area""></div> 
                </div>","null","","","","","","","","","","","",""
"","","","","","html-button-response","125","383629","0.0-125.0","F28B6EEB3C424F87930A4FB9466155B3","019d6b6b-efb1-77fd-bb58-c199b7d9270a","019d6b28-084c-76dd-a1cb-5ac041bdee9a","","464","
                <div class=""stimulus-container"">
                    <img src=""semantic_sequence_notimeline/household_objects_semantic/household_objects_semantic_2.png"" class=""exp-image"">
                    <div class=""question-area"">
                        <p style=""font-size: 20px; font-weight: bold; margin: 0;"">Is there a person in this image?</p>
                    </div>
                </div>","1","main_experiment_trial","2","household_objects_semantic","semantic_sequence_notimeline","chronological","","","","","","",""
"","","","","","html-keyboard-response","126","388631","0.0-126.0","F28B6EEB3C424F87930A4FB9466155B3","019d6b6b-efb1-77fd-bb58-c199b7d9270a","019d6b28-084c-76dd-a1cb-5ac041bdee9a","","null","
                <div class=""stimulus-container"">
                    <img src=""semantic_sequence_notimeline/household_objects_semantic/household_objects_semantic_3.png"" class=""exp-image"">
                    <div class=""question-area""></div> 
                </div>","null","","","","","","","","","","","",""
"","","","","","html-button-response","127","389396","0.0-127.0","F28B6EEB3C424F87930A4FB9466155B3","019d6b6b-efb1-77fd-bb58-c199b7d9270a","019d6b28-084c-76dd-a1cb-5ac041bdee9a","","765","
                <div class=""stimulus-container"">
                    <img src=""semantic_sequence_notimeline/household_objects_semantic/household_objects_semantic_3.png"" class=""exp-image"">
                    <div class=""question-area"">
                        <p style=""font-size: 20px; font-weight: bold; margin: 0;"">Is there a person in this image?</p>
                    </div>
                </div>","1","main_experiment_trial","3","household_objects_semantic","semantic_sequence_notimeline","chronological","","","","","","",""
"","","","","","html-keyboard-response","128","394397","0.0-128.0","F28B6EEB3C424F87930A4FB9466155B3","019d6b6b-efb1-77fd-bb58-c199b7d9270a","019d6b28-084c-76dd-a1cb-5ac041bdee9a","","null","
                <div class=""stimulus-container"">
                    <img src=""semantic_sequence_notimeline/household_objects_semantic/household_objects_semantic_4.png"" class=""exp-image"">
                    <div class=""question-area""></div> 
                </div>","null","","","","","","","","","","","",""
"","","","","","html-button-response","129","394896","0.0-129.0","F28B6EEB3C424F87930A4FB9466155B3","019d6b6b-efb1-77fd-bb58-c199b7d9270a","019d6b28-084c-76dd-a1cb-5ac041bdee9a","","498","
                <div class=""stimulus-container"">
                    <img src=""semantic_sequence_notimeline/household_objects_semantic/household_objects_semantic_4.png"" class=""exp-image"">
                    <div class=""question-area"">
                        <p style=""font-size: 20px; font-weight: bold; margin: 0;"">Is there a person in this image?</p>
                    </div>
                </div>","1","main_experiment_trial","4","household_objects_semantic","semantic_sequence_notimeline","chronological","","","","","","",""
"","","","","","html-keyboard-response","130","399897","0.0-130.0","F28B6EEB3C424F87930A4FB9466155B3","019d6b6b-efb1-77fd-bb58-c199b7d9270a","019d6b28-084c-76dd-a1cb-5ac041bdee9a","","null","
                <div class=""stimulus-container"">
                    <img src=""semantic_sequence_notimeline/household_objects_semantic/household_objects_semantic_5.png"" class=""exp-image"">
                    <div class=""question-area""></div> 
                </div>","null","","","","","","","","","","","",""
"","","","","","html-button-response","131","400496","0.0-131.0","F28B6EEB3C424F87930A4FB9466155B3","019d6b6b-efb1-77fd-bb58-c199b7d9270a","019d6b28-084c-76dd-a1cb-5ac041bdee9a","","598","
                <div class=""stimulus-container"">
                    <img src=""semantic_sequence_notimeline/household_objects_semantic/household_objects_semantic_5.png"" class=""exp-image"">
                    <div class=""question-area"">
                        <p style=""font-size: 20px; font-weight: bold; margin: 0;"">Is there a person in this image?</p>
                    </div>
                </div>","1","main_experiment_trial","5","household_objects_semantic","semantic_sequence_notimeline","chronological","","","","","","",""
"","","","","","html-keyboard-response","132","405497","0.0-132.0","F28B6EEB3C424F87930A4FB9466155B3","019d6b6b-efb1-77fd-bb58-c199b7d9270a","019d6b28-084c-76dd-a1cb-5ac041bdee9a","","null","
                <div class=""stimulus-container"">
                    <img src=""semantic_sequence_notimeline/household_objects_semantic/household_objects_semantic_6.png"" class=""exp-image"">
                    <div class=""question-area""></div> 
                </div>","null","","","","","","","","","","","",""
"","","","","","html-button-response","133","405879","0.0-133.0","F28B6EEB3C424F87930A4FB9466155B3","019d6b6b-efb1-77fd-bb58-c199b7d9270a","019d6b28-084c-76dd-a1cb-5ac041bdee9a","","382","
                <div class=""stimulus-container"">
                    <img src=""semantic_sequence_notimeline/household_objects_semantic/household_objects_semantic_6.png"" class=""exp-image"">
                    <div class=""question-area"">
                        <p style=""font-size: 20px; font-weight: bold; margin: 0;"">Is there a person in this image?</p>
                    </div>
                </div>","1","main_experiment_trial","6","household_objects_semantic","semantic_sequence_notimeline","chronological","","","","","","",""
"","","","","","html-keyboard-response","134","410881","0.0-134.0","F28B6EEB3C424F87930A4FB9466155B3","019d6b6b-efb1-77fd-bb58-c199b7d9270a","019d6b28-084c-76dd-a1cb-5ac041bdee9a","","null","
                <div class=""stimulus-container"">
                    <img src=""semantic_sequence_notimeline/household_objects_semantic/household_objects_semantic_7.png"" class=""exp-image"">
                    <div class=""question-area""></div> 
                </div>","null","","","","","","","","","","","",""
"","","","","","html-button-response","135","411313","0.0-135.0","F28B6EEB3C424F87930A4FB9466155B3","019d6b6b-efb1-77fd-bb58-c199b7d9270a","019d6b28-084c-76dd-a1cb-5ac041bdee9a","","431","
                <div class=""stimulus-container"">
                    <img src=""semantic_sequence_notimeline/household_objects_semantic/household_objects_semantic_7.png"" class=""exp-image"">
                    <div class=""question-area"">
                        <p style=""font-size: 20px; font-weight: bold; margin: 0;"">Is there a person in this image?</p>
                    </div>
                </div>","1","main_experiment_trial","7","household_objects_semantic","semantic_sequence_notimeline","chronological","","","","","","",""
"","","","","","html-keyboard-response","136","416315","0.0-136.0","F28B6EEB3C424F87930A4FB9466155B3","019d6b6b-efb1-77fd-bb58-c199b7d9270a","019d6b28-084c-76dd-a1cb-5ac041bdee9a","","null","
                <div class=""stimulus-container"">
                    <img src=""semantic_sequence_notimeline/household_objects_semantic/household_objects_semantic_8.png"" class=""exp-image"">
                    <div class=""question-area""></div> 
                </div>","null","","","","","","","","","","","",""
"","","","","","html-button-response","137","417379","0.0-137.0","F28B6EEB3C424F87930A4FB9466155B3","019d6b6b-efb1-77fd-bb58-c199b7d9270a","019d6b28-084c-76dd-a1cb-5ac041bdee9a","","1064","
                <div class=""stimulus-container"">
                    <img src=""semantic_sequence_notimeline/household_objects_semantic/household_objects_semantic_8.png"" class=""exp-image"">
                    <div class=""question-area"">
                        <p style=""font-size: 20px; font-weight: bold; margin: 0;"">Is there a person in this image?</p>
                    </div>
                </div>","1","main_experiment_trial","8","household_objects_semantic","semantic_sequence_notimeline","chronological","","","","","","",""
"","","","","","html-keyboard-response","138","422380","0.0-138.0","F28B6EEB3C424F87930A4FB9466155B3","019d6b6b-efb1-77fd-bb58-c199b7d9270a","019d6b28-084c-76dd-a1cb-5ac041bdee9a","","null","
                <div class=""stimulus-container"">
                    <img src=""semantic_sequence_notimeline/household_objects_semantic/household_objects_semantic_9.png"" class=""exp-image"">
                    <div class=""question-area""></div> 
                </div>","null","","","","","","","","","","","",""
"","","","","","html-button-response","139","422946","0.0-139.0","F28B6EEB3C424F87930A4FB9466155B3","019d6b6b-efb1-77fd-bb58-c199b7d9270a","019d6b28-084c-76dd-a1cb-5ac041bdee9a","","565","
                <div class=""stimulus-container"">
                    <img src=""semantic_sequence_notimeline/household_objects_semantic/household_objects_semantic_9.png"" class=""exp-image"">
                    <div class=""question-area"">
                        <p style=""font-size: 20px; font-weight: bold; margin: 0;"">Is there a person in this image?</p>
                    </div>
                </div>","1","main_experiment_trial","9","household_objects_semantic","semantic_sequence_notimeline","chronological","","","","","","",""
"","","","","","html-keyboard-response","140","427947","0.0-140.0","F28B6EEB3C424F87930A4FB9466155B3","019d6b6b-efb1-77fd-bb58-c199b7d9270a","019d6b28-084c-76dd-a1cb-5ac041bdee9a","","null","
                <div class=""stimulus-container"">
                    <img src=""semantic_sequence_notimeline/household_objects_semantic/household_objects_semantic_ten.png"" class=""exp-image"">
                    <div class=""question-area""></div> 
                </div>","null","","","","","","","","","","","",""
"","","","","","html-button-response","141","428429","0.0-141.0","F28B6EEB3C424F87930A4FB9466155B3","019d6b6b-efb1-77fd-bb58-c199b7d9270a","019d6b28-084c-76dd-a1cb-5ac041bdee9a","","482","
                <div class=""stimulus-container"">
                    <img src=""semantic_sequence_notimeline/household_objects_semantic/household_objects_semantic_ten.png"" class=""exp-image"">
                    <div class=""question-area"">
                        <p style=""font-size: 20px; font-weight: bold; margin: 0;"">Is there a person in this image?</p>
                    </div>
                </div>","1","main_experiment_trial","ten","household_objects_semantic","semantic_sequence_notimeline","chronological","","","","","","",""
"","","","","","html-keyboard-response","142","433430","0.0-142.0","F28B6EEB3C424F87930A4FB9466155B3","019d6b6b-efb1-77fd-bb58-c199b7d9270a","019d6b28-084c-76dd-a1cb-5ac041bdee9a","","null","<div style=""background-color: white; width: 100vw; height: 100vh;""></div>","null","","","","","","","","","","","",""
"","","","","","html-keyboard-response","143","438432","0.0-143.0","F28B6EEB3C424F87930A4FB9466155B3","019d6b6b-efb1-77fd-bb58-c199b7d9270a","019d6b28-084c-76dd-a1cb-5ac041bdee9a","","null","
                <div class=""stimulus-container"">
                    <img src=""images/causal_sequence/dog_causal/dog_causal_1.png"" class=""exp-image"">
                    <div class=""question-area""></div> 
                </div>","null","","","","","","","","","","","",""
"","","","","","html-button-response","144","439862","0.0-144.0","F28B6EEB3C424F87930A4FB9466155B3","019d6b6b-efb1-77fd-bb58-c199b7d9270a","019d6b28-084c-76dd-a1cb-5ac041bdee9a","","1430","
                <div class=""stimulus-container"">
                    <img src=""images/causal_sequence/dog_causal/dog_causal_1.png"" class=""exp-image"">
                    <div class=""question-area"">
                        <p style=""font-size: 20px; font-weight: bold; margin: 0;"">Is there a person in this image?</p>
                    </div>
                </div>","0","main_experiment_trial","1","dog_causal","causal_sequence","chronological","","","","","","",""
"","","","","","html-keyboard-response","145","444864","0.0-145.0","F28B6EEB3C424F87930A4FB9466155B3","019d6b6b-efb1-77fd-bb58-c199b7d9270a","019d6b28-084c-76dd-a1cb-5ac041bdee9a","","null","
                <div class=""stimulus-container"">
                    <img src=""images/causal_sequence/dog_causal/dog_causal_2.png"" class=""exp-image"">
                    <div class=""question-area""></div> 
                </div>","null","","","","","","","","","","","",""
"","","","","","html-button-response","146","445396","0.0-146.0","F28B6EEB3C424F87930A4FB9466155B3","019d6b6b-efb1-77fd-bb58-c199b7d9270a","019d6b28-084c-76dd-a1cb-5ac041bdee9a","","531","
                <div class=""stimulus-container"">
                    <img src=""images/causal_sequence/dog_causal/dog_causal_2.png"" class=""exp-image"">
                    <div class=""question-area"">
                        <p style=""font-size: 20px; font-weight: bold; margin: 0;"">Is there a person in this image?</p>
                    </div>
                </div>","0","main_experiment_trial","2","dog_causal","causal_sequence","chronological","","","","","","",""
"","","","","","html-keyboard-response","147","450398","0.0-147.0","F28B6EEB3C424F87930A4FB9466155B3","019d6b6b-efb1-77fd-bb58-c199b7d9270a","019d6b28-084c-76dd-a1cb-5ac041bdee9a","","null","
                <div class=""stimulus-container"">
                    <img src=""images/causal_sequence/dog_causal/dog_causal_3.png"" class=""exp-image"">
                    <div class=""question-area""></div> 
                </div>","null","","","","","","","","","","","",""
"","","","","","html-button-response","148","451062","0.0-148.0","F28B6EEB3C424F87930A4FB9466155B3","019d6b6b-efb1-77fd-bb58-c199b7d9270a","019d6b28-084c-76dd-a1cb-5ac041bdee9a","","664","
                <div class=""stimulus-container"">
                    <img src=""images/causal_sequence/dog_causal/dog_causal_3.png"" class=""exp-image"">
                    <div class=""question-area"">
                        <p style=""font-size: 20px; font-weight: bold; margin: 0;"">Is there a person in this image?</p>
                    </div>
                </div>","0","main_experiment_trial","3","dog_causal","causal_sequence","chronological","","","","","","",""
"","","","","","html-keyboard-response","149","456064","0.0-149.0","F28B6EEB3C424F87930A4FB9466155B3","019d6b6b-efb1-77fd-bb58-c199b7d9270a","019d6b28-084c-76dd-a1cb-5ac041bdee9a","","null","
                <div class=""stimulus-container"">
                    <img src=""images/causal_sequence/dog_causal/dog_causal_4.png"" class=""exp-image"">
                    <div class=""question-area""></div> 
                </div>","null","","","","","","","","","","","",""
"","","","","","html-button-response","150","456779","0.0-150.0","F28B6EEB3C424F87930A4FB9466155B3","019d6b6b-efb1-77fd-bb58-c199b7d9270a","019d6b28-084c-76dd-a1cb-5ac041bdee9a","","714","
                <div class=""stimulus-container"">
                    <img src=""images/causal_sequence/dog_causal/dog_causal_4.png"" class=""exp-image"">
                    <div class=""question-area"">
                        <p style=""font-size: 20px; font-weight: bold; margin: 0;"">Is there a person in this image?</p>
                    </div>
                </div>","0","main_experiment_trial","4","dog_causal","causal_sequence","chronological","","","","","","",""
"","","","","","html-keyboard-response","151","461781","0.0-151.0","F28B6EEB3C424F87930A4FB9466155B3","019d6b6b-efb1-77fd-bb58-c199b7d9270a","019d6b28-084c-76dd-a1cb-5ac041bdee9a","","null","
                <div class=""stimulus-container"">
                    <img src=""images/causal_sequence/dog_causal/dog_causal_5.png"" class=""exp-image"">
                    <div class=""question-area""></div> 
                </div>","null","","","","","","","","","","","",""
"","","","","","html-button-response","152","462629","0.0-152.0","F28B6EEB3C424F87930A4FB9466155B3","019d6b6b-efb1-77fd-bb58-c199b7d9270a","019d6b28-084c-76dd-a1cb-5ac041bdee9a","","848","
                <div class=""stimulus-container"">
                    <img src=""images/causal_sequence/dog_causal/dog_causal_5.png"" class=""exp-image"">
                    <div class=""question-area"">
                        <p style=""font-size: 20px; font-weight: bold; margin: 0;"">Is there a person in this image?</p>
                    </div>
                </div>","0","main_experiment_trial","5","dog_causal","causal_sequence","chronological","","","","","","",""
"","","","","","html-keyboard-response","153","467631","0.0-153.0","F28B6EEB3C424F87930A4FB9466155B3","019d6b6b-efb1-77fd-bb58-c199b7d9270a","019d6b28-084c-76dd-a1cb-5ac041bdee9a","","null","
                <div class=""stimulus-container"">
                    <img src=""images/causal_sequence/dog_causal/dog_causal_6.png"" class=""exp-image"">
                    <div class=""question-area""></div> 
                </div>","null","","","","","","","","","","","",""
"","","","","","html-button-response","154","468662","0.0-154.0","F28B6EEB3C424F87930A4FB9466155B3","019d6b6b-efb1-77fd-bb58-c199b7d9270a","019d6b28-084c-76dd-a1cb-5ac041bdee9a","","1031","
                <div class=""stimulus-container"">
                    <img src=""images/causal_sequence/dog_causal/dog_causal_6.png"" class=""exp-image"">
                    <div class=""question-area"">
                        <p style=""font-size: 20px; font-weight: bold; margin: 0;"">Is there a person in this image?</p>
                    </div>
                </div>","0","main_experiment_trial","6","dog_causal","causal_sequence","chronological","","","","","","",""
"","","","","","html-keyboard-response","155","473665","0.0-155.0","F28B6EEB3C424F87930A4FB9466155B3","019d6b6b-efb1-77fd-bb58-c199b7d9270a","019d6b28-084c-76dd-a1cb-5ac041bdee9a","","null","
                <div class=""stimulus-container"">
                    <img src=""images/causal_sequence/dog_causal/dog_causal_7.png"" class=""exp-image"">
                    <div class=""question-area""></div> 
                </div>","null","","","","","","","","","","","",""
"","","","","","html-button-response","156","475196","0.0-156.0","F28B6EEB3C424F87930A4FB9466155B3","019d6b6b-efb1-77fd-bb58-c199b7d9270a","019d6b28-084c-76dd-a1cb-5ac041bdee9a","","1531","
                <div class=""stimulus-container"">
                    <img src=""images/causal_sequence/dog_causal/dog_causal_7.png"" class=""exp-image"">
                    <div class=""question-area"">
                        <p style=""font-size: 20px; font-weight: bold; margin: 0;"">Is there a person in this image?</p>
                    </div>
                </div>","0","main_experiment_trial","7","dog_causal","causal_sequence","chronological","","","","","","",""
"","","","","","html-keyboard-response","157","480198","0.0-157.0","F28B6EEB3C424F87930A4FB9466155B3","019d6b6b-efb1-77fd-bb58-c199b7d9270a","019d6b28-084c-76dd-a1cb-5ac041bdee9a","","null","
                <div class=""stimulus-container"">
                    <img src=""images/causal_sequence/dog_causal/dog_causal_8.png"" class=""exp-image"">
                    <div class=""question-area""></div> 
                </div>","null","","","","","","","","","","","",""
"","","","","","html-button-response","158","480862","0.0-158.0","F28B6EEB3C424F87930A4FB9466155B3","019d6b6b-efb1-77fd-bb58-c199b7d9270a","019d6b28-084c-76dd-a1cb-5ac041bdee9a","","664","
                <div class=""stimulus-container"">
                    <img src=""images/causal_sequence/dog_causal/dog_causal_8.png"" class=""exp-image"">
                    <div class=""question-area"">
                        <p style=""font-size: 20px; font-weight: bold; margin: 0;"">Is there a person in this image?</p>
                    </div>
                </div>","0","main_experiment_trial","8","dog_causal","causal_sequence","chronological","","","","","","",""
"","","","","","html-keyboard-response","159","485864","0.0-159.0","F28B6EEB3C424F87930A4FB9466155B3","019d6b6b-efb1-77fd-bb58-c199b7d9270a","019d6b28-084c-76dd-a1cb-5ac041bdee9a","","null","
                <div class=""stimulus-container"">
                    <img src=""images/causal_sequence/dog_causal/dog_causal_9.png"" class=""exp-image"">
                    <div class=""question-area""></div> 
                </div>","null","","","","","","","","","","","",""
"","","","","","html-button-response","160","486629","0.0-160.0","F28B6EEB3C424F87930A4FB9466155B3","019d6b6b-efb1-77fd-bb58-c199b7d9270a","019d6b28-084c-76dd-a1cb-5ac041bdee9a","","764","
                <div class=""stimulus-container"">
                    <img src=""images/causal_sequence/dog_causal/dog_causal_9.png"" class=""exp-image"">
                    <div class=""question-area"">
                        <p style=""font-size: 20px; font-weight: bold; margin: 0;"">Is there a person in this image?</p>
                    </div>
                </div>","0","main_experiment_trial","9","dog_causal","causal_sequence","chronological","","","","","","",""
"","","","","","html-keyboard-response","161","491631","0.0-161.0","F28B6EEB3C424F87930A4FB9466155B3","019d6b6b-efb1-77fd-bb58-c199b7d9270a","019d6b28-084c-76dd-a1cb-5ac041bdee9a","","null","
                <div class=""stimulus-container"">
                    <img src=""images/causal_sequence/dog_causal/dog_causal_ten.png"" class=""exp-image"">
                    <div class=""question-area""></div> 
                </div>","null","","","","","","","","","","","",""
"","","","","","html-button-response","162","493062","0.0-162.0","F28B6EEB3C424F87930A4FB9466155B3","019d6b6b-efb1-77fd-bb58-c199b7d9270a","019d6b28-084c-76dd-a1cb-5ac041bdee9a","","1431","
                <div class=""stimulus-container"">
                    <img src=""images/causal_sequence/dog_causal/dog_causal_ten.png"" class=""exp-image"">
                    <div class=""question-area"">
                        <p style=""font-size: 20px; font-weight: bold; margin: 0;"">Is there a person in this image?</p>
                    </div>
                </div>","0","main_experiment_trial","ten","dog_causal","causal_sequence","chronological","","","","","","",""
"","","","","","html-keyboard-response","163","498064","0.0-163.0","F28B6EEB3C424F87930A4FB9466155B3","019d6b6b-efb1-77fd-bb58-c199b7d9270a","019d6b28-084c-76dd-a1cb-5ac041bdee9a","","null","<div style=""background-color: white; width: 100vw; height: 100vh;""></div>","null","","","","","","","","","","","",""
"","","","","","html-keyboard-response","164","503066","0.0-164.0","F28B6EEB3C424F87930A4FB9466155B3","019d6b6b-efb1-77fd-bb58-c199b7d9270a","019d6b28-084c-76dd-a1cb-5ac041bdee9a","","null","
                <div class=""stimulus-container"">
                    <img src=""semantic_sequence_notimeline/transportation_semantic/transportation_semantic_1.png"" class=""exp-image"">
                    <div class=""question-area""></div> 
                </div>","null","","","","","","","","","","","",""
"","","","","","html-button-response","165","504462","0.0-165.0","F28B6EEB3C424F87930A4FB9466155B3","019d6b6b-efb1-77fd-bb58-c199b7d9270a","019d6b28-084c-76dd-a1cb-5ac041bdee9a","","1396","
                <div class=""stimulus-container"">
                    <img src=""semantic_sequence_notimeline/transportation_semantic/transportation_semantic_1.png"" class=""exp-image"">
                    <div class=""question-area"">
                        <p style=""font-size: 20px; font-weight: bold; margin: 0;"">Is there a person in this image?</p>
                    </div>
                </div>","1","main_experiment_trial","1","transportation_semantic","semantic_sequence_notimeline","chronological","","","","","","",""
"","","","","","html-keyboard-response","166","509464","0.0-166.0","F28B6EEB3C424F87930A4FB9466155B3","019d6b6b-efb1-77fd-bb58-c199b7d9270a","019d6b28-084c-76dd-a1cb-5ac041bdee9a","","null","
                <div class=""stimulus-container"">
                    <img src=""semantic_sequence_notimeline/transportation_semantic/transportation_semantic_2.png"" class=""exp-image"">
                    <div class=""question-area""></div> 
                </div>","null","","","","","","","","","","","",""
"","","","","","html-button-response","167","512445","0.0-167.0","F28B6EEB3C424F87930A4FB9466155B3","019d6b6b-efb1-77fd-bb58-c199b7d9270a","019d6b28-084c-76dd-a1cb-5ac041bdee9a","","2981","
                <div class=""stimulus-container"">
                    <img src=""semantic_sequence_notimeline/transportation_semantic/transportation_semantic_2.png"" class=""exp-image"">
                    <div class=""question-area"">
                        <p style=""font-size: 20px; font-weight: bold; margin: 0;"">Is there a person in this image?</p>
                    </div>
                </div>","1","main_experiment_trial","2","transportation_semantic","semantic_sequence_notimeline","chronological","","","","","","",""
"","","","","","html-keyboard-response","168","517447","0.0-168.0","F28B6EEB3C424F87930A4FB9466155B3","019d6b6b-efb1-77fd-bb58-c199b7d9270a","019d6b28-084c-76dd-a1cb-5ac041bdee9a","","null","
                <div class=""stimulus-container"">
                    <img src=""semantic_sequence_notimeline/transportation_semantic/transportation_semantic_3.png"" class=""exp-image"">
                    <div class=""question-area""></div> 
                </div>","null","","","","","","","","","","","",""
"","","","","","html-button-response","169","518295","0.0-169.0","F28B6EEB3C424F87930A4FB9466155B3","019d6b6b-efb1-77fd-bb58-c199b7d9270a","019d6b28-084c-76dd-a1cb-5ac041bdee9a","","848","
                <div class=""stimulus-container"">
                    <img src=""semantic_sequence_notimeline/transportation_semantic/transportation_semantic_3.png"" class=""exp-image"">
                    <div class=""question-area"">
                        <p style=""font-size: 20px; font-weight: bold; margin: 0;"">Is there a person in this image?</p>
                    </div>
                </div>","1","main_experiment_trial","3","transportation_semantic","semantic_sequence_notimeline","chronological","","","","","","",""
"","","","","","html-keyboard-response","170","523297","0.0-170.0","F28B6EEB3C424F87930A4FB9466155B3","019d6b6b-efb1-77fd-bb58-c199b7d9270a","019d6b28-084c-76dd-a1cb-5ac041bdee9a","","null","
                <div class=""stimulus-container"">
                    <img src=""semantic_sequence_notimeline/transportation_semantic/transportation_semantic_4.png"" class=""exp-image"">
                    <div class=""question-area""></div> 
                </div>","null","","","","","","","","","","","",""
"","","","","","html-button-response","171","524095","0.0-171.0","F28B6EEB3C424F87930A4FB9466155B3","019d6b6b-efb1-77fd-bb58-c199b7d9270a","019d6b28-084c-76dd-a1cb-5ac041bdee9a","","798","
                <div class=""stimulus-container"">
                    <img src=""semantic_sequence_notimeline/transportation_semantic/transportation_semantic_4.png"" class=""exp-image"">
                    <div class=""question-area"">
                        <p style=""font-size: 20px; font-weight: bold; margin: 0;"">Is there a person in this image?</p>
                    </div>
                </div>","1","main_experiment_trial","4","transportation_semantic","semantic_sequence_notimeline","chronological","","","","","","",""
"","","","","","html-keyboard-response","172","529097","0.0-172.0","F28B6EEB3C424F87930A4FB9466155B3","019d6b6b-efb1-77fd-bb58-c199b7d9270a","019d6b28-084c-76dd-a1cb-5ac041bdee9a","","null","
                <div class=""stimulus-container"">
                    <img src=""semantic_sequence_notimeline/transportation_semantic/transportation_semantic_5.png"" class=""exp-image"">
                    <div class=""question-area""></div> 
                </div>","null","","","","","","","","","","","",""
"","","","","","html-button-response","173","530195","0.0-173.0","F28B6EEB3C424F87930A4FB9466155B3","019d6b6b-efb1-77fd-bb58-c199b7d9270a","019d6b28-084c-76dd-a1cb-5ac041bdee9a","","1098","
                <div class=""stimulus-container"">
                    <img src=""semantic_sequence_notimeline/transportation_semantic/transportation_semantic_5.png"" class=""exp-image"">
                    <div class=""question-area"">
                        <p style=""font-size: 20px; font-weight: bold; margin: 0;"">Is there a person in this image?</p>
                    </div>
                </div>","1","main_experiment_trial","5","transportation_semantic","semantic_sequence_notimeline","chronological","","","","","","",""
"","","","","","html-keyboard-response","174","535197","0.0-174.0","F28B6EEB3C424F87930A4FB9466155B3","019d6b6b-efb1-77fd-bb58-c199b7d9270a","019d6b28-084c-76dd-a1cb-5ac041bdee9a","","null","
                <div class=""stimulus-container"">
                    <img src=""semantic_sequence_notimeline/transportation_semantic/transportation_semantic_6.png"" class=""exp-image"">
                    <div class=""question-area""></div> 
                </div>","null","","","","","","","","","","","",""
"","","","","","html-button-response","175","536279","0.0-175.0","F28B6EEB3C424F87930A4FB9466155B3","019d6b6b-efb1-77fd-bb58-c199b7d9270a","019d6b28-084c-76dd-a1cb-5ac041bdee9a","","1081","
                <div class=""stimulus-container"">
                    <img src=""semantic_sequence_notimeline/transportation_semantic/transportation_semantic_6.png"" class=""exp-image"">
                    <div class=""question-area"">
                        <p style=""font-size: 20px; font-weight: bold; margin: 0;"">Is there a person in this image?</p>
                    </div>
                </div>","0","main_experiment_trial","6","transportation_semantic","semantic_sequence_notimeline","chronological","","","","","","",""
"","","","","","html-keyboard-response","176","541280","0.0-176.0","F28B6EEB3C424F87930A4FB9466155B3","019d6b6b-efb1-77fd-bb58-c199b7d9270a","019d6b28-084c-76dd-a1cb-5ac041bdee9a","","null","
                <div class=""stimulus-container"">
                    <img src=""semantic_sequence_notimeline/transportation_semantic/transportation_semantic_7.png"" class=""exp-image"">
                    <div class=""question-area""></div> 
                </div>","null","","","","","","","","","","","",""
"","","","","","html-button-response","177","543263","0.0-177.0","F28B6EEB3C424F87930A4FB9466155B3","019d6b6b-efb1-77fd-bb58-c199b7d9270a","019d6b28-084c-76dd-a1cb-5ac041bdee9a","","1982","
                <div class=""stimulus-container"">
                    <img src=""semantic_sequence_notimeline/transportation_semantic/transportation_semantic_7.png"" class=""exp-image"">
                    <div class=""question-area"">
                        <p style=""font-size: 20px; font-weight: bold; margin: 0;"">Is there a person in this image?</p>
                    </div>
