"success","timeout","failed_images","failed_audio","failed_video","trial_type","trial_index","time_elapsed","internal_node_id","subject_id","study_id","session_id","view_history","rt","stimulus","response","task","image_index","folder","valuable_image_index","reward_type","valuable_X","chosen_image_index","distance_from_X"
"false","false","[]","[]","[]","preload","0","25419","0.0-0.0","A3225197A57D498187805738CB466F18","019ce87f-1dd2-7c3d-95fa-f7ae5b0e4ab6","019ce875-66c2-7f0b-b5e8-086c75889f84","","","","","","","","","","","",""
"","","","","","instructions","1","59398","0.0-1.0","A3225197A57D498187805738CB466F18","019ce87f-1dd2-7c3d-95fa-f7ae5b0e4ab6","019ce875-66c2-7f0b-b5e8-086c75889f84","[{""page_index"":0,""viewing_time"":33978}]","33978","","","","","","","","","",""
"","","","","","instructions","2","61808","0.0-2.0","A3225197A57D498187805738CB466F18","019ce87f-1dd2-7c3d-95fa-f7ae5b0e4ab6","019ce875-66c2-7f0b-b5e8-086c75889f84","[{""page_index"":0,""viewing_time"":2410}]","2410","","","","","","","","","",""
"true","","","","","fullscreen","3","330772","0.0-3.0","A3225197A57D498187805738CB466F18","019ce87f-1dd2-7c3d-95fa-f7ae5b0e4ab6","019ce875-66c2-7f0b-b5e8-086c75889f84","","267954","","","","","","","","","",""
"","","","","","instructions","4","332060","0.0-4.0","A3225197A57D498187805738CB466F18","019ce87f-1dd2-7c3d-95fa-f7ae5b0e4ab6","019ce875-66c2-7f0b-b5e8-086c75889f84","[{""page_index"":0,""viewing_time"":1288}]","1288","","","","","","","","","",""
"","","","","","instructions","5","333774","0.0-5.0","A3225197A57D498187805738CB466F18","019ce87f-1dd2-7c3d-95fa-f7ae5b0e4ab6","019ce875-66c2-7f0b-b5e8-086c75889f84","[{""page_index"":0,""viewing_time"":1713}]","1713","","","","","","","","","",""
"","","","","","html-keyboard-response","6","337782","0.0-6.0","A3225197A57D498187805738CB466F18","019ce87f-1dd2-7c3d-95fa-f7ae5b0e4ab6","019ce875-66c2-7f0b-b5e8-086c75889f84","","null","
                <div class=""stimulus-container"">
                    <img src=""images/instructions/movie_1.png"" class=""exp-image"">
                    <div class=""question-area""></div> 
                </div>","null","","","","","","","",""
"","","","","","html-button-response","7","339732","0.0-7.0","A3225197A57D498187805738CB466F18","019ce87f-1dd2-7c3d-95fa-f7ae5b0e4ab6","019ce875-66c2-7f0b-b5e8-086c75889f84","","1949","
                <div class=""stimulus-container"">
                    <img src=""images/instructions/movie_1.png"" class=""exp-image"">
                    <div class=""question-area"">
                        <p style=""font-size: 20px; font-weight: bold; margin: 0;"">Was there a person in this image?</p>
                    </div>
                </div>","0","example_question","1","","","","","",""
"","","","","","html-keyboard-response","8","343734","0.0-8.0","A3225197A57D498187805738CB466F18","019ce87f-1dd2-7c3d-95fa-f7ae5b0e4ab6","019ce875-66c2-7f0b-b5e8-086c75889f84","","null","
                <div class=""stimulus-container"">
                    <img src=""images/instructions/movie_2.png"" class=""exp-image"">
                    <div class=""question-area""></div> 
                </div>","null","","","","","","","",""
"","","","","","html-button-response","9","344430","0.0-9.0","A3225197A57D498187805738CB466F18","019ce87f-1dd2-7c3d-95fa-f7ae5b0e4ab6","019ce875-66c2-7f0b-b5e8-086c75889f84","","695","
                <div class=""stimulus-container"">
                    <img src=""images/instructions/movie_2.png"" class=""exp-image"">
                    <div class=""question-area"">
                        <p style=""font-size: 20px; font-weight: bold; margin: 0;"">Was there a person in this image?</p>
                    </div>
                </div>","0","example_question","2","","","","","",""
"","","","","","html-keyboard-response","10","348431","0.0-10.0","A3225197A57D498187805738CB466F18","019ce87f-1dd2-7c3d-95fa-f7ae5b0e4ab6","019ce875-66c2-7f0b-b5e8-086c75889f84","","null","
                <div class=""stimulus-container"">
                    <img src=""images/instructions/movie_3.png"" class=""exp-image"">
                    <div class=""question-area""></div> 
                </div>","null","","","","","","","",""
"","","","","","html-button-response","11","349195","0.0-11.0","A3225197A57D498187805738CB466F18","019ce87f-1dd2-7c3d-95fa-f7ae5b0e4ab6","019ce875-66c2-7f0b-b5e8-086c75889f84","","763","
                <div class=""stimulus-container"">
                    <img src=""images/instructions/movie_3.png"" class=""exp-image"">
                    <div class=""question-area"">
                        <p style=""font-size: 20px; font-weight: bold; margin: 0;"">Was there a person in this image?</p>
                    </div>
                </div>","0","example_question","3","","","","","",""
"","","","","","html-keyboard-response","12","353199","0.0-12.0","A3225197A57D498187805738CB466F18","019ce87f-1dd2-7c3d-95fa-f7ae5b0e4ab6","019ce875-66c2-7f0b-b5e8-086c75889f84","","null","
                <div class=""stimulus-container"">
                    <img src=""images/instructions/movie_4.png"" class=""exp-image"">
                    <div class=""question-area""></div> 
                </div>","null","","","","","","","",""
"","","","","","html-button-response","13","354355","0.0-13.0","A3225197A57D498187805738CB466F18","019ce87f-1dd2-7c3d-95fa-f7ae5b0e4ab6","019ce875-66c2-7f0b-b5e8-086c75889f84","","1154","
                <div class=""stimulus-container"">
                    <img src=""images/instructions/movie_4.png"" class=""exp-image"">
                    <div class=""question-area"">
                        <p style=""font-size: 20px; font-weight: bold; margin: 0;"">Was there a person in this image?</p>
                    </div>
                </div>","0","example_question","4","","","","","",""
"","","","","","instructions","14","355642","0.0-14.0","A3225197A57D498187805738CB466F18","019ce87f-1dd2-7c3d-95fa-f7ae5b0e4ab6","019ce875-66c2-7f0b-b5e8-086c75889f84","[{""page_index"":0,""viewing_time"":1287}]","1287","","","","","","","","","",""
"","","","","","html-keyboard-response","15","356653","0.0-15.0","A3225197A57D498187805738CB466F18","019ce87f-1dd2-7c3d-95fa-f7ae5b0e4ab6","019ce875-66c2-7f0b-b5e8-086c75889f84","","null","<div style=""background-color: gray; width: 100vw; height: 100vh;""></div>","null","","","","","","","",""
"","","","","","html-keyboard-response","16","361667","0.0-16.0","A3225197A57D498187805738CB466F18","019ce87f-1dd2-7c3d-95fa-f7ae5b0e4ab6","019ce875-66c2-7f0b-b5e8-086c75889f84","","null","
                    <div class=""stimulus-container"">
                        <img src=""images/causal_sequence/museum_causal/museum_causal_1.png"" class=""exp-image"">
                        <div class=""question-area""></div> 
                    </div>","null","","","","","","","",""
"","","","","","html-button-response","17","362783","0.0-17.0","A3225197A57D498187805738CB466F18","019ce87f-1dd2-7c3d-95fa-f7ae5b0e4ab6","019ce875-66c2-7f0b-b5e8-086c75889f84","","1115","
                    <div class=""stimulus-container"">
                        <img src=""images/causal_sequence/museum_causal/museum_causal_1.png"" class=""exp-image"">
                        <div class=""question-area"">
                            <p style=""font-size: 20px; font-weight: bold; margin: 0;"">Is there a person in this image?</p>
                        </div>
                    </div>","0","main_causal_task","1","museum_causal","","","","",""
"","","","","","html-keyboard-response","18","367786","0.0-18.0","A3225197A57D498187805738CB466F18","019ce87f-1dd2-7c3d-95fa-f7ae5b0e4ab6","019ce875-66c2-7f0b-b5e8-086c75889f84","","null","
                    <div class=""stimulus-container"">
                        <img src=""images/causal_sequence/museum_causal/museum_causal_2.png"" class=""exp-image"">
                        <div class=""question-area""></div> 
                    </div>","null","","","","","","","",""
"","","","","","html-button-response","19","368399","0.0-19.0","A3225197A57D498187805738CB466F18","019ce87f-1dd2-7c3d-95fa-f7ae5b0e4ab6","019ce875-66c2-7f0b-b5e8-086c75889f84","","612","
                    <div class=""stimulus-container"">
                        <img src=""images/causal_sequence/museum_causal/museum_causal_2.png"" class=""exp-image"">
                        <div class=""question-area"">
                            <p style=""font-size: 20px; font-weight: bold; margin: 0;"">Is there a person in this image?</p>
                        </div>
                    </div>","1","main_causal_task","2","museum_causal","","","","",""
"","","","","","html-keyboard-response","20","373401","0.0-20.0","A3225197A57D498187805738CB466F18","019ce87f-1dd2-7c3d-95fa-f7ae5b0e4ab6","019ce875-66c2-7f0b-b5e8-086c75889f84","","null","
                    <div class=""stimulus-container"">
                        <img src=""images/causal_sequence/museum_causal/museum_causal_3.png"" class=""exp-image"">
                        <div class=""question-area""></div> 
                    </div>","null","","","","","","","",""
"","","","","","html-button-response","21","374150","0.0-21.0","A3225197A57D498187805738CB466F18","019ce87f-1dd2-7c3d-95fa-f7ae5b0e4ab6","019ce875-66c2-7f0b-b5e8-086c75889f84","","748","
                    <div class=""stimulus-container"">
                        <img src=""images/causal_sequence/museum_causal/museum_causal_3.png"" class=""exp-image"">
                        <div class=""question-area"">
                            <p style=""font-size: 20px; font-weight: bold; margin: 0;"">Is there a person in this image?</p>
                        </div>
                    </div>","0","main_causal_task","3","museum_causal","","","","",""
"","","","","","html-keyboard-response","22","379153","0.0-22.0","A3225197A57D498187805738CB466F18","019ce87f-1dd2-7c3d-95fa-f7ae5b0e4ab6","019ce875-66c2-7f0b-b5e8-086c75889f84","","null","
                    <div class=""stimulus-container"">
                        <img src=""images/causal_sequence/museum_causal/museum_causal_4.png"" class=""exp-image"">
                        <div class=""question-area""></div> 
                    </div>","null","","","","","","","",""
"","","","","","html-button-response","23","379801","0.0-23.0","A3225197A57D498187805738CB466F18","019ce87f-1dd2-7c3d-95fa-f7ae5b0e4ab6","019ce875-66c2-7f0b-b5e8-086c75889f84","","646","
                    <div class=""stimulus-container"">
                        <img src=""images/causal_sequence/museum_causal/museum_causal_4.png"" class=""exp-image"">
                        <div class=""question-area"">
                            <p style=""font-size: 20px; font-weight: bold; margin: 0;"">Is there a person in this image?</p>
                        </div>
                    </div>","1","main_causal_task","4","museum_causal","","","","",""
"","","","","","html-keyboard-response","24","384811","0.0-24.0","A3225197A57D498187805738CB466F18","019ce87f-1dd2-7c3d-95fa-f7ae5b0e4ab6","019ce875-66c2-7f0b-b5e8-086c75889f84","","null","
                    <div class=""stimulus-container"">
                        <img src=""images/causal_sequence/museum_causal/museum_causal_5.png"" class=""exp-image"">
                        <div class=""question-area""></div> 
                    </div>","null","","","","","","","",""
"","","","","","html-button-response","25","385367","0.0-25.0","A3225197A57D498187805738CB466F18","019ce87f-1dd2-7c3d-95fa-f7ae5b0e4ab6","019ce875-66c2-7f0b-b5e8-086c75889f84","","554","
                    <div class=""stimulus-container"">
                        <img src=""images/causal_sequence/museum_causal/museum_causal_5.png"" class=""exp-image"">
                        <div class=""question-area"">
                            <p style=""font-size: 20px; font-weight: bold; margin: 0;"">Is there a person in this image?</p>
                        </div>
                    </div>","0","main_causal_task","5","museum_causal","","","","",""
"","","","","","html-keyboard-response","26","390375","0.0-26.0","A3225197A57D498187805738CB466F18","019ce87f-1dd2-7c3d-95fa-f7ae5b0e4ab6","019ce875-66c2-7f0b-b5e8-086c75889f84","","null","
                    <div class=""stimulus-container"">
                        <img src=""images/causal_sequence/museum_causal/museum_causal_6.png"" class=""exp-image"">
                        <div class=""question-area""></div> 
                    </div>","null","","","","","","","",""
"","","","","","html-button-response","27","391416","0.0-27.0","A3225197A57D498187805738CB466F18","019ce87f-1dd2-7c3d-95fa-f7ae5b0e4ab6","019ce875-66c2-7f0b-b5e8-086c75889f84","","1041","
                    <div class=""stimulus-container"">
                        <img src=""images/causal_sequence/museum_causal/museum_causal_6.png"" class=""exp-image"">
                        <div class=""question-area"">
                            <p style=""font-size: 20px; font-weight: bold; margin: 0;"">Is there a person in this image?</p>
                        </div>
                    </div>","0","main_causal_task","6","museum_causal","","","","",""
"","","","","","html-keyboard-response","28","396424","0.0-28.0","A3225197A57D498187805738CB466F18","019ce87f-1dd2-7c3d-95fa-f7ae5b0e4ab6","019ce875-66c2-7f0b-b5e8-086c75889f84","","null","
                    <div class=""stimulus-container"">
                        <img src=""images/causal_sequence/museum_causal/museum_causal_7.png"" class=""exp-image"">
                        <div class=""question-area""></div> 
                    </div>","null","","","","","","","",""
"","","","","","html-button-response","29","397077","0.0-29.0","A3225197A57D498187805738CB466F18","019ce87f-1dd2-7c3d-95fa-f7ae5b0e4ab6","019ce875-66c2-7f0b-b5e8-086c75889f84","","652","
                    <div class=""stimulus-container"">
                        <img src=""images/causal_sequence/museum_causal/museum_causal_7.png"" class=""exp-image"">
                        <div class=""question-area"">
                            <p style=""font-size: 20px; font-weight: bold; margin: 0;"">Is there a person in this image?</p>
                        </div>
                    </div>","1","main_causal_task","7","museum_causal","","","","",""
"","","","","","html-keyboard-response","30","402080","0.0-30.0","A3225197A57D498187805738CB466F18","019ce87f-1dd2-7c3d-95fa-f7ae5b0e4ab6","019ce875-66c2-7f0b-b5e8-086c75889f84","","null","
                    <div class=""stimulus-container"">
                        <img src=""images/causal_sequence/museum_causal/museum_causal_8.png"" class=""exp-image"">
                        <div class=""question-area""></div> 
                    </div>","null","","","","","","","",""
"","","","","","html-button-response","31","402988","0.0-31.0","A3225197A57D498187805738CB466F18","019ce87f-1dd2-7c3d-95fa-f7ae5b0e4ab6","019ce875-66c2-7f0b-b5e8-086c75889f84","","907","
                    <div class=""stimulus-container"">
                        <img src=""images/causal_sequence/museum_causal/museum_causal_8.png"" class=""exp-image"">
                        <div class=""question-area"">
                            <p style=""font-size: 20px; font-weight: bold; margin: 0;"">Is there a person in this image?</p>
                        </div>
                    </div>","0","main_causal_task","8","museum_causal","","","","",""
"","","","","","html-keyboard-response","32","407994","0.0-32.0","A3225197A57D498187805738CB466F18","019ce87f-1dd2-7c3d-95fa-f7ae5b0e4ab6","019ce875-66c2-7f0b-b5e8-086c75889f84","","null","
                    <div class=""stimulus-container"">
                        <img src=""images/causal_sequence/museum_causal/museum_causal_9.png"" class=""exp-image"">
                        <div class=""question-area""></div> 
                    </div>","null","","","","","","","",""
"","","","","","html-button-response","33","408763","0.0-33.0","A3225197A57D498187805738CB466F18","019ce87f-1dd2-7c3d-95fa-f7ae5b0e4ab6","019ce875-66c2-7f0b-b5e8-086c75889f84","","768","
                    <div class=""stimulus-container"">
                        <img src=""images/causal_sequence/museum_causal/museum_causal_9.png"" class=""exp-image"">
                        <div class=""question-area"">
                            <p style=""font-size: 20px; font-weight: bold; margin: 0;"">Is there a person in this image?</p>
                        </div>
                    </div>","1","main_causal_task","9","museum_causal","","","","",""
"","","","","","html-keyboard-response","34","409773","0.0-34.0","A3225197A57D498187805738CB466F18","019ce87f-1dd2-7c3d-95fa-f7ae5b0e4ab6","019ce875-66c2-7f0b-b5e8-086c75889f84","","null","<div style=""background-color: gray; width: 100vw; height: 100vh;""></div>","null","","","","","","","",""
"","","","","","html-keyboard-response","35","414779","0.0-35.0","A3225197A57D498187805738CB466F18","019ce87f-1dd2-7c3d-95fa-f7ae5b0e4ab6","019ce875-66c2-7f0b-b5e8-086c75889f84","","null","
                    <div class=""stimulus-container"">
                        <img src=""images/causal_sequence/the_performance_causal/the_performance_causal_1.png"" class=""exp-image"">
                        <div class=""question-area""></div> 
                    </div>","null","","","","","","","",""
"","","","","","html-button-response","36","415471","0.0-36.0","A3225197A57D498187805738CB466F18","019ce87f-1dd2-7c3d-95fa-f7ae5b0e4ab6","019ce875-66c2-7f0b-b5e8-086c75889f84","","691","
                    <div class=""stimulus-container"">
                        <img src=""images/causal_sequence/the_performance_causal/the_performance_causal_1.png"" class=""exp-image"">
                        <div class=""question-area"">
                            <p style=""font-size: 20px; font-weight: bold; margin: 0;"">Is there a person in this image?</p>
                        </div>
                    </div>","0","main_causal_task","1","the_performance_causal","","","","",""
"","","","","","html-keyboard-response","37","420474","0.0-37.0","A3225197A57D498187805738CB466F18","019ce87f-1dd2-7c3d-95fa-f7ae5b0e4ab6","019ce875-66c2-7f0b-b5e8-086c75889f84","","null","
                    <div class=""stimulus-container"">
                        <img src=""images/causal_sequence/the_performance_causal/the_performance_causal_2.png"" class=""exp-image"">
                        <div class=""question-area""></div> 
                    </div>","null","","","","","","","",""
"","","","","","html-button-response","38","423479","0.0-38.0","A3225197A57D498187805738CB466F18","019ce87f-1dd2-7c3d-95fa-f7ae5b0e4ab6","019ce875-66c2-7f0b-b5e8-086c75889f84","","null","
                    <div class=""stimulus-container"">
                        <img src=""images/causal_sequence/the_performance_causal/the_performance_causal_2.png"" class=""exp-image"">
                        <div class=""question-area"">
                            <p style=""font-size: 20px; font-weight: bold; margin: 0;"">Is there a person in this image?</p>
                        </div>
                    </div>","null","main_causal_task","2","the_performance_causal","","","","",""
"","","","","","html-keyboard-response","39","428482","0.0-39.0","A3225197A57D498187805738CB466F18","019ce87f-1dd2-7c3d-95fa-f7ae5b0e4ab6","019ce875-66c2-7f0b-b5e8-086c75889f84","","null","
                    <div class=""stimulus-container"">
                        <img src=""images/causal_sequence/the_performance_causal/the_performance_causal_3.png"" class=""exp-image"">
                        <div class=""question-area""></div> 
                    </div>","null","","","","","","","",""
"","","","","","html-button-response","40","429103","0.0-40.0","A3225197A57D498187805738CB466F18","019ce87f-1dd2-7c3d-95fa-f7ae5b0e4ab6","019ce875-66c2-7f0b-b5e8-086c75889f84","","620","
                    <div class=""stimulus-container"">
                        <img src=""images/causal_sequence/the_performance_causal/the_performance_causal_3.png"" class=""exp-image"">
                        <div class=""question-area"">
                            <p style=""font-size: 20px; font-weight: bold; margin: 0;"">Is there a person in this image?</p>
                        </div>
                    </div>","0","main_causal_task","3","the_performance_causal","","","","",""
"","","","","","html-keyboard-response","41","434120","0.0-41.0","A3225197A57D498187805738CB466F18","019ce87f-1dd2-7c3d-95fa-f7ae5b0e4ab6","019ce875-66c2-7f0b-b5e8-086c75889f84","","null","
                    <div class=""stimulus-container"">
                        <img src=""images/causal_sequence/the_performance_causal/the_performance_causal_4.png"" class=""exp-image"">
                        <div class=""question-area""></div> 
                    </div>","null","","","","","","","",""
"","","","","","html-button-response","42","435010","0.0-42.0","A3225197A57D498187805738CB466F18","019ce87f-1dd2-7c3d-95fa-f7ae5b0e4ab6","019ce875-66c2-7f0b-b5e8-086c75889f84","","889","
                    <div class=""stimulus-container"">
                        <img src=""images/causal_sequence/the_performance_causal/the_performance_causal_4.png"" class=""exp-image"">
                        <div class=""question-area"">
                            <p style=""font-size: 20px; font-weight: bold; margin: 0;"">Is there a person in this image?</p>
                        </div>
                    </div>","0","main_causal_task","4","the_performance_causal","","","","",""
"","","","","","html-keyboard-response","43","440018","0.0-43.0","A3225197A57D498187805738CB466F18","019ce87f-1dd2-7c3d-95fa-f7ae5b0e4ab6","019ce875-66c2-7f0b-b5e8-086c75889f84","","null","
                    <div class=""stimulus-container"">
                        <img src=""images/causal_sequence/the_performance_causal/the_performance_causal_5.png"" class=""exp-image"">
                        <div class=""question-area""></div> 
                    </div>","null","","","","","","","",""
"","","","","","html-button-response","44","440593","0.0-44.0","A3225197A57D498187805738CB466F18","019ce87f-1dd2-7c3d-95fa-f7ae5b0e4ab6","019ce875-66c2-7f0b-b5e8-086c75889f84","","575","
                    <div class=""stimulus-container"">
                        <img src=""images/causal_sequence/the_performance_causal/the_performance_causal_5.png"" class=""exp-image"">
                        <div class=""question-area"">
                            <p style=""font-size: 20px; font-weight: bold; margin: 0;"">Is there a person in this image?</p>
                        </div>
                    </div>","0","main_causal_task","5","the_performance_causal","","","","",""
"","","","","","html-keyboard-response","45","445599","0.0-45.0","A3225197A57D498187805738CB466F18","019ce87f-1dd2-7c3d-95fa-f7ae5b0e4ab6","019ce875-66c2-7f0b-b5e8-086c75889f84","","null","
                    <div class=""stimulus-container"">
                        <img src=""images/causal_sequence/the_performance_causal/the_performance_causal_6.png"" class=""exp-image"">
                        <div class=""question-area""></div> 
                    </div>","null","","","","","","","",""
"","","","","","html-button-response","46","446769","0.0-46.0","A3225197A57D498187805738CB466F18","019ce87f-1dd2-7c3d-95fa-f7ae5b0e4ab6","019ce875-66c2-7f0b-b5e8-086c75889f84","","1169","
                    <div class=""stimulus-container"">
                        <img src=""images/causal_sequence/the_performance_causal/the_performance_causal_6.png"" class=""exp-image"">
                        <div class=""question-area"">
                            <p style=""font-size: 20px; font-weight: bold; margin: 0;"">Is there a person in this image?</p>
                        </div>
                    </div>","0","main_causal_task","6","the_performance_causal","","","","",""
"","","","","","html-keyboard-response","47","451771","0.0-47.0","A3225197A57D498187805738CB466F18","019ce87f-1dd2-7c3d-95fa-f7ae5b0e4ab6","019ce875-66c2-7f0b-b5e8-086c75889f84","","null","
                    <div class=""stimulus-container"">
                        <img src=""images/causal_sequence/the_performance_causal/the_performance_causal_7.png"" class=""exp-image"">
                        <div class=""question-area""></div> 
                    </div>","null","","","","","","","",""
"","","","","","html-button-response","48","452435","0.0-48.0","A3225197A57D498187805738CB466F18","019ce87f-1dd2-7c3d-95fa-f7ae5b0e4ab6","019ce875-66c2-7f0b-b5e8-086c75889f84","","662","
                    <div class=""stimulus-container"">
                        <img src=""images/causal_sequence/the_performance_causal/the_performance_causal_7.png"" class=""exp-image"">
                        <div class=""question-area"">
                            <p style=""font-size: 20px; font-weight: bold; margin: 0;"">Is there a person in this image?</p>
                        </div>
                    </div>","0","main_causal_task","7","the_performance_causal","","","","",""
"","","","","","html-keyboard-response","49","457447","0.0-49.0","A3225197A57D498187805738CB466F18","019ce87f-1dd2-7c3d-95fa-f7ae5b0e4ab6","019ce875-66c2-7f0b-b5e8-086c75889f84","","null","
                    <div class=""stimulus-container"">
                        <img src=""images/causal_sequence/the_performance_causal/the_performance_causal_8.png"" class=""exp-image"">
                        <div class=""question-area""></div> 
                    </div>","null","","","","","","","",""
"","","","","","html-button-response","50","458368","0.0-50.0","A3225197A57D498187805738CB466F18","019ce87f-1dd2-7c3d-95fa-f7ae5b0e4ab6","019ce875-66c2-7f0b-b5e8-086c75889f84","","919","
                    <div class=""stimulus-container"">
                        <img src=""images/causal_sequence/the_performance_causal/the_performance_causal_8.png"" class=""exp-image"">
                        <div class=""question-area"">
                            <p style=""font-size: 20px; font-weight: bold; margin: 0;"">Is there a person in this image?</p>
                        </div>
                    </div>","0","main_causal_task","8","the_performance_causal","","","","",""
"","","","","","html-keyboard-response","51","463382","0.0-51.0","A3225197A57D498187805738CB466F18","019ce87f-1dd2-7c3d-95fa-f7ae5b0e4ab6","019ce875-66c2-7f0b-b5e8-086c75889f84","","null","
                    <div class=""stimulus-container"">
                        <img src=""images/causal_sequence/the_performance_causal/the_performance_causal_9.png"" class=""exp-image"">
                        <div class=""question-area""></div> 
                    </div>","null","","","","","","","",""
"","","","","","html-button-response","52","464249","0.0-52.0","A3225197A57D498187805738CB466F18","019ce87f-1dd2-7c3d-95fa-f7ae5b0e4ab6","019ce875-66c2-7f0b-b5e8-086c75889f84","","866","
                    <div class=""stimulus-container"">
                        <img src=""images/causal_sequence/the_performance_causal/the_performance_causal_9.png"" class=""exp-image"">
                        <div class=""question-area"">
                            <p style=""font-size: 20px; font-weight: bold; margin: 0;"">Is there a person in this image?</p>
                        </div>
                    </div>","0","main_causal_task","9","the_performance_causal","","","","",""
"","","","","","html-keyboard-response","53","465260","0.0-53.0","A3225197A57D498187805738CB466F18","019ce87f-1dd2-7c3d-95fa-f7ae5b0e4ab6","019ce875-66c2-7f0b-b5e8-086c75889f84","","null","<div style=""background-color: gray; width: 100vw; height: 100vh;""></div>","null","","","","","","","",""
"","","","","","html-keyboard-response","54","470275","0.0-54.0","A3225197A57D498187805738CB466F18","019ce87f-1dd2-7c3d-95fa-f7ae5b0e4ab6","019ce875-66c2-7f0b-b5e8-086c75889f84","","null","
                    <div class=""stimulus-container"">
                        <img src=""images/causal_sequence/saving_a_cat_causal/saving_a_cat_causal_1.png"" class=""exp-image"">
                        <div class=""question-area""></div> 
                    </div>","null","","","","","","","",""
"","","","","","html-button-response","55","471210","0.0-55.0","A3225197A57D498187805738CB466F18","019ce87f-1dd2-7c3d-95fa-f7ae5b0e4ab6","019ce875-66c2-7f0b-b5e8-086c75889f84","","934","
                    <div class=""stimulus-container"">
                        <img src=""images/causal_sequence/saving_a_cat_causal/saving_a_cat_causal_1.png"" class=""exp-image"">
                        <div class=""question-area"">
                            <p style=""font-size: 20px; font-weight: bold; margin: 0;"">Is there a person in this image?</p>
                        </div>
                    </div>","0","main_causal_task","1","saving_a_cat_causal","","","","",""
"","","","","","html-keyboard-response","56","476217","0.0-56.0","A3225197A57D498187805738CB466F18","019ce87f-1dd2-7c3d-95fa-f7ae5b0e4ab6","019ce875-66c2-7f0b-b5e8-086c75889f84","","null","
                    <div class=""stimulus-container"">
                        <img src=""images/causal_sequence/saving_a_cat_causal/saving_a_cat_causal_2.png"" class=""exp-image"">
                        <div class=""question-area""></div> 
                    </div>","null","","","","","","","",""
"","","","","","html-button-response","57","476942","0.0-57.0","A3225197A57D498187805738CB466F18","019ce87f-1dd2-7c3d-95fa-f7ae5b0e4ab6","019ce875-66c2-7f0b-b5e8-086c75889f84","","724","
                    <div class=""stimulus-container"">
                        <img src=""images/causal_sequence/saving_a_cat_causal/saving_a_cat_causal_2.png"" class=""exp-image"">
                        <div class=""question-area"">
                            <p style=""font-size: 20px; font-weight: bold; margin: 0;"">Is there a person in this image?</p>
                        </div>
                    </div>","0","main_causal_task","2","saving_a_cat_causal","","","","",""
"","","","","","html-keyboard-response","58","481947","0.0-58.0","A3225197A57D498187805738CB466F18","019ce87f-1dd2-7c3d-95fa-f7ae5b0e4ab6","019ce875-66c2-7f0b-b5e8-086c75889f84","","null","
                    <div class=""stimulus-container"">
                        <img src=""images/causal_sequence/saving_a_cat_causal/saving_a_cat_causal_3.png"" class=""exp-image"">
                        <div class=""question-area""></div> 
                    </div>","null","","","","","","","",""
"","","","","","html-button-response","59","482849","0.0-59.0","A3225197A57D498187805738CB466F18","019ce87f-1dd2-7c3d-95fa-f7ae5b0e4ab6","019ce875-66c2-7f0b-b5e8-086c75889f84","","900","
                    <div class=""stimulus-container"">
                        <img src=""images/causal_sequence/saving_a_cat_causal/saving_a_cat_causal_3.png"" class=""exp-image"">
                        <div class=""question-area"">
                            <p style=""font-size: 20px; font-weight: bold; margin: 0;"">Is there a person in this image?</p>
                        </div>
                    </div>","0","main_causal_task","3","saving_a_cat_causal","","","","",""
"","","","","","html-keyboard-response","60","487859","0.0-60.0","A3225197A57D498187805738CB466F18","019ce87f-1dd2-7c3d-95fa-f7ae5b0e4ab6","019ce875-66c2-7f0b-b5e8-086c75889f84","","null","
                    <div class=""stimulus-container"">
                        <img src=""images/causal_sequence/saving_a_cat_causal/saving_a_cat_causal_4.png"" class=""exp-image"">
                        <div class=""question-area""></div> 
                    </div>","null","","","","","","","",""
"","","","","","html-button-response","61","488372","0.0-61.0","A3225197A57D498187805738CB466F18","019ce87f-1dd2-7c3d-95fa-f7ae5b0e4ab6","019ce875-66c2-7f0b-b5e8-086c75889f84","","512","
                    <div class=""stimulus-container"">
                        <img src=""images/causal_sequence/saving_a_cat_causal/saving_a_cat_causal_4.png"" class=""exp-image"">
                        <div class=""question-area"">
                            <p style=""font-size: 20px; font-weight: bold; margin: 0;"">Is there a person in this image?</p>
                        </div>
                    </div>","0","main_causal_task","4","saving_a_cat_causal","","","","",""
"","","","","","html-keyboard-response","62","493375","0.0-62.0","A3225197A57D498187805738CB466F18","019ce87f-1dd2-7c3d-95fa-f7ae5b0e4ab6","019ce875-66c2-7f0b-b5e8-086c75889f84","","null","
                    <div class=""stimulus-container"">
                        <img src=""images/causal_sequence/saving_a_cat_causal/saving_a_cat_causal_5.png"" class=""exp-image"">
                        <div class=""question-area""></div> 
                    </div>","null","","","","","","","",""
"","","","","","html-button-response","63","494344","0.0-63.0","A3225197A57D498187805738CB466F18","019ce87f-1dd2-7c3d-95fa-f7ae5b0e4ab6","019ce875-66c2-7f0b-b5e8-086c75889f84","","969","
                    <div class=""stimulus-container"">
                        <img src=""images/causal_sequence/saving_a_cat_causal/saving_a_cat_causal_5.png"" class=""exp-image"">
                        <div class=""question-area"">
                            <p style=""font-size: 20px; font-weight: bold; margin: 0;"">Is there a person in this image?</p>
                        </div>
                    </div>","0","main_causal_task","5","saving_a_cat_causal","","","","",""
"","","","","","html-keyboard-response","64","499355","0.0-64.0","A3225197A57D498187805738CB466F18","019ce87f-1dd2-7c3d-95fa-f7ae5b0e4ab6","019ce875-66c2-7f0b-b5e8-086c75889f84","","null","
                    <div class=""stimulus-container"">
                        <img src=""images/causal_sequence/saving_a_cat_causal/saving_a_cat_causal_6.png"" class=""exp-image"">
                        <div class=""question-area""></div> 
                    </div>","null","","","","","","","",""
"","","","","","html-button-response","65","501434","0.0-65.0","A3225197A57D498187805738CB466F18","019ce87f-1dd2-7c3d-95fa-f7ae5b0e4ab6","019ce875-66c2-7f0b-b5e8-086c75889f84","","2078","
                    <div class=""stimulus-container"">
                        <img src=""images/causal_sequence/saving_a_cat_causal/saving_a_cat_causal_6.png"" class=""exp-image"">
                        <div class=""question-area"">
                            <p style=""font-size: 20px; font-weight: bold; margin: 0;"">Is there a person in this image?</p>
                        </div>
                    </div>","0","main_causal_task","6","saving_a_cat_causal","","","","",""
"","","","","","html-keyboard-response","66","506447","0.0-66.0","A3225197A57D498187805738CB466F18","019ce87f-1dd2-7c3d-95fa-f7ae5b0e4ab6","019ce875-66c2-7f0b-b5e8-086c75889f84","","null","
                    <div class=""stimulus-container"">
                        <img src=""images/causal_sequence/saving_a_cat_causal/saving_a_cat_causal_7.png"" class=""exp-image"">
                        <div class=""question-area""></div> 
                    </div>","null","","","","","","","",""
"","","","","","html-button-response","67","507222","0.0-67.0","A3225197A57D498187805738CB466F18","019ce87f-1dd2-7c3d-95fa-f7ae5b0e4ab6","019ce875-66c2-7f0b-b5e8-086c75889f84","","773","
                    <div class=""stimulus-container"">
                        <img src=""images/causal_sequence/saving_a_cat_causal/saving_a_cat_causal_7.png"" class=""exp-image"">
                        <div class=""question-area"">
                            <p style=""font-size: 20px; font-weight: bold; margin: 0;"">Is there a person in this image?</p>
                        </div>
                    </div>","0","main_causal_task","7","saving_a_cat_causal","","","","",""
"","","","","","html-keyboard-response","68","512230","0.0-68.0","A3225197A57D498187805738CB466F18","019ce87f-1dd2-7c3d-95fa-f7ae5b0e4ab6","019ce875-66c2-7f0b-b5e8-086c75889f84","","null","
                    <div class=""stimulus-container"">
                        <img src=""images/causal_sequence/saving_a_cat_causal/saving_a_cat_causal_8.png"" class=""exp-image"">
                        <div class=""question-area""></div> 
                    </div>","null","","","","","","","",""
"","","","","","html-button-response","69","512857","0.0-69.0","A3225197A57D498187805738CB466F18","019ce87f-1dd2-7c3d-95fa-f7ae5b0e4ab6","019ce875-66c2-7f0b-b5e8-086c75889f84","","626","
                    <div class=""stimulus-container"">
                        <img src=""images/causal_sequence/saving_a_cat_causal/saving_a_cat_causal_8.png"" class=""exp-image"">
                        <div class=""question-area"">
                            <p style=""font-size: 20px; font-weight: bold; margin: 0;"">Is there a person in this image?</p>
                        </div>
                    </div>","0","main_causal_task","8","saving_a_cat_causal","","","","",""
"","","","","","html-keyboard-response","70","517873","0.0-70.0","A3225197A57D498187805738CB466F18","019ce87f-1dd2-7c3d-95fa-f7ae5b0e4ab6","019ce875-66c2-7f0b-b5e8-086c75889f84","","null","
                    <div class=""stimulus-container"">
                        <img src=""images/causal_sequence/saving_a_cat_causal/saving_a_cat_causal_9.png"" class=""exp-image"">
                        <div class=""question-area""></div> 
                    </div>","null","","","","","","","",""
"","","","","","html-button-response","71","518509","0.0-71.0","A3225197A57D498187805738CB466F18","019ce87f-1dd2-7c3d-95fa-f7ae5b0e4ab6","019ce875-66c2-7f0b-b5e8-086c75889f84","","635","
                    <div class=""stimulus-container"">
                        <img src=""images/causal_sequence/saving_a_cat_causal/saving_a_cat_causal_9.png"" class=""exp-image"">
                        <div class=""question-area"">
                            <p style=""font-size: 20px; font-weight: bold; margin: 0;"">Is there a person in this image?</p>
                        </div>
                    </div>","0","main_causal_task","9","saving_a_cat_causal","","","","",""
"","","","","","html-keyboard-response","72","519517","0.0-72.0","A3225197A57D498187805738CB466F18","019ce87f-1dd2-7c3d-95fa-f7ae5b0e4ab6","019ce875-66c2-7f0b-b5e8-086c75889f84","","null","<div style=""background-color: gray; width: 100vw; height: 100vh;""></div>","null","","","","","","","",""
"","","","","","html-keyboard-response","73","524526","0.0-73.0","A3225197A57D498187805738CB466F18","019ce87f-1dd2-7c3d-95fa-f7ae5b0e4ab6","019ce875-66c2-7f0b-b5e8-086c75889f84","","null","
                    <div class=""stimulus-container"">
                        <img src=""images/causal_sequence/coin_causal/coin_causal_1.png"" class=""exp-image"">
                        <div class=""question-area""></div> 
                    </div>","null","","","","","","","",""
"","","","","","html-button-response","74","525287","0.0-74.0","A3225197A57D498187805738CB466F18","019ce87f-1dd2-7c3d-95fa-f7ae5b0e4ab6","019ce875-66c2-7f0b-b5e8-086c75889f84","","760","
                    <div class=""stimulus-container"">
                        <img src=""images/causal_sequence/coin_causal/coin_causal_1.png"" class=""exp-image"">
                        <div class=""question-area"">
                            <p style=""font-size: 20px; font-weight: bold; margin: 0;"">Is there a person in this image?</p>
                        </div>
                    </div>","0","main_causal_task","1","coin_causal","","","","",""
"","","","","","html-keyboard-response","75","530301","0.0-75.0","A3225197A57D498187805738CB466F18","019ce87f-1dd2-7c3d-95fa-f7ae5b0e4ab6","019ce875-66c2-7f0b-b5e8-086c75889f84","","null","
                    <div class=""stimulus-container"">
                        <img src=""images/causal_sequence/coin_causal/coin_causal_2.png"" class=""exp-image"">
                        <div class=""question-area""></div> 
                    </div>","null","","","","","","","",""
"","","","","","html-button-response","76","530773","0.0-76.0","A3225197A57D498187805738CB466F18","019ce87f-1dd2-7c3d-95fa-f7ae5b0e4ab6","019ce875-66c2-7f0b-b5e8-086c75889f84","","472","
                    <div class=""stimulus-container"">
                        <img src=""images/causal_sequence/coin_causal/coin_causal_2.png"" class=""exp-image"">
                        <div class=""question-area"">
                            <p style=""font-size: 20px; font-weight: bold; margin: 0;"">Is there a person in this image?</p>
                        </div>
                    </div>","0","main_causal_task","2","coin_causal","","","","",""
"","","","","","html-keyboard-response","77","535788","0.0-77.0","A3225197A57D498187805738CB466F18","019ce87f-1dd2-7c3d-95fa-f7ae5b0e4ab6","019ce875-66c2-7f0b-b5e8-086c75889f84","","null","
                    <div class=""stimulus-container"">
                        <img src=""images/causal_sequence/coin_causal/coin_causal_3.png"" class=""exp-image"">
                        <div class=""question-area""></div> 
                    </div>","null","","","","","","","",""
"","","","","","html-button-response","78","536222","0.0-78.0","A3225197A57D498187805738CB466F18","019ce87f-1dd2-7c3d-95fa-f7ae5b0e4ab6","019ce875-66c2-7f0b-b5e8-086c75889f84","","433","
                    <div class=""stimulus-container"">
                        <img src=""images/causal_sequence/coin_causal/coin_causal_3.png"" class=""exp-image"">
                        <div class=""question-area"">
                            <p style=""font-size: 20px; font-weight: bold; margin: 0;"">Is there a person in this image?</p>
                        </div>
                    </div>","0","main_causal_task","3","coin_causal","","","","",""
"","","","","","html-keyboard-response","79","541236","0.0-79.0","A3225197A57D498187805738CB466F18","019ce87f-1dd2-7c3d-95fa-f7ae5b0e4ab6","019ce875-66c2-7f0b-b5e8-086c75889f84","","null","
                    <div class=""stimulus-container"">
                        <img src=""images/causal_sequence/coin_causal/coin_causal_4.png"" class=""exp-image"">
                        <div class=""question-area""></div> 
                    </div>","null","","","","","","","",""
"","","","","","html-button-response","80","541804","0.0-80.0","A3225197A57D498187805738CB466F18","019ce87f-1dd2-7c3d-95fa-f7ae5b0e4ab6","019ce875-66c2-7f0b-b5e8-086c75889f84","","567","
                    <div class=""stimulus-container"">
                        <img src=""images/causal_sequence/coin_causal/coin_causal_4.png"" class=""exp-image"">
                        <div class=""question-area"">
                            <p style=""font-size: 20px; font-weight: bold; margin: 0;"">Is there a person in this image?</p>
                        </div>
                    </div>","0","main_causal_task","4","coin_causal","","","","",""
"","","","","","html-keyboard-response","81","546816","0.0-81.0","A3225197A57D498187805738CB466F18","019ce87f-1dd2-7c3d-95fa-f7ae5b0e4ab6","019ce875-66c2-7f0b-b5e8-086c75889f84","","null","
                    <div class=""stimulus-container"">
                        <img src=""images/causal_sequence/coin_causal/coin_causal_5.png"" class=""exp-image"">
                        <div class=""question-area""></div> 
                    </div>","null","","","","","","","",""
"","","","","","html-button-response","82","547294","0.0-82.0","A3225197A57D498187805738CB466F18","019ce87f-1dd2-7c3d-95fa-f7ae5b0e4ab6","019ce875-66c2-7f0b-b5e8-086c75889f84","","478","
                    <div class=""stimulus-container"">
                        <img src=""images/causal_sequence/coin_causal/coin_causal_5.png"" class=""exp-image"">
                        <div class=""question-area"">
                            <p style=""font-size: 20px; font-weight: bold; margin: 0;"">Is there a person in this image?</p>
                        </div>
                    </div>","0","main_causal_task","5","coin_causal","","","","",""
"","","","","","html-keyboard-response","83","552301","0.0-83.0","A3225197A57D498187805738CB466F18","019ce87f-1dd2-7c3d-95fa-f7ae5b0e4ab6","019ce875-66c2-7f0b-b5e8-086c75889f84","","null","
                    <div class=""stimulus-container"">
                        <img src=""images/causal_sequence/coin_causal/coin_causal_6.png"" class=""exp-image"">
                        <div class=""question-area""></div> 
                    </div>","null","","","","","","","",""
"","","","","","html-button-response","84","552888","0.0-84.0","A3225197A57D498187805738CB466F18","019ce87f-1dd2-7c3d-95fa-f7ae5b0e4ab6","019ce875-66c2-7f0b-b5e8-086c75889f84","","586","
                    <div class=""stimulus-container"">
                        <img src=""images/causal_sequence/coin_causal/coin_causal_6.png"" class=""exp-image"">
                        <div class=""question-area"">
                            <p style=""font-size: 20px; font-weight: bold; margin: 0;"">Is there a person in this image?</p>
                        </div>
                    </div>","0","main_causal_task","6","coin_causal","","","","",""
"","","","","","html-keyboard-response","85","557891","0.0-85.0","A3225197A57D498187805738CB466F18","019ce87f-1dd2-7c3d-95fa-f7ae5b0e4ab6","019ce875-66c2-7f0b-b5e8-086c75889f84","","null","
                    <div class=""stimulus-container"">
                        <img src=""images/causal_sequence/coin_causal/coin_causal_7.png"" class=""exp-image"">
                        <div class=""question-area""></div> 
                    </div>","null","","","","","","","",""
"","","","","","html-button-response","86","558501","0.0-86.0","A3225197A57D498187805738CB466F18","019ce87f-1dd2-7c3d-95fa-f7ae5b0e4ab6","019ce875-66c2-7f0b-b5e8-086c75889f84","","609","
                    <div class=""stimulus-container"">
                        <img src=""images/causal_sequence/coin_causal/coin_causal_7.png"" class=""exp-image"">
                        <div class=""question-area"">
                            <p style=""font-size: 20px; font-weight: bold; margin: 0;"">Is there a person in this image?</p>
                        </div>
                    </div>","0","main_causal_task","7","coin_causal","","","","",""
"","","","","","html-keyboard-response","87","563513","0.0-87.0","A3225197A57D498187805738CB466F18","019ce87f-1dd2-7c3d-95fa-f7ae5b0e4ab6","019ce875-66c2-7f0b-b5e8-086c75889f84","","null","
                    <div class=""stimulus-container"">
                        <img src=""images/causal_sequence/coin_causal/coin_causal_8.png"" class=""exp-image"">
                        <div class=""question-area""></div> 
                    </div>","null","","","","","","","",""
"","","","","","html-button-response","88","563920","0.0-88.0","A3225197A57D498187805738CB466F18","019ce87f-1dd2-7c3d-95fa-f7ae5b0e4ab6","019ce875-66c2-7f0b-b5e8-086c75889f84","","407","
                    <div class=""stimulus-container"">
                        <img src=""images/causal_sequence/coin_causal/coin_causal_8.png"" class=""exp-image"">
                        <div class=""question-area"">
                            <p style=""font-size: 20px; font-weight: bold; margin: 0;"">Is there a person in this image?</p>
                        </div>
                    </div>","0","main_causal_task","8","coin_causal","","","","",""
"","","","","","html-keyboard-response","89","568936","0.0-89.0","A3225197A57D498187805738CB466F18","019ce87f-1dd2-7c3d-95fa-f7ae5b0e4ab6","019ce875-66c2-7f0b-b5e8-086c75889f84","","null","
                    <div class=""stimulus-container"">
                        <img src=""images/causal_sequence/coin_causal/coin_causal_9.png"" class=""exp-image"">
                        <div class=""question-area""></div> 
                    </div>","null","","","","","","","",""
"","","","","","html-button-response","90","569470","0.0-90.0","A3225197A57D498187805738CB466F18","019ce87f-1dd2-7c3d-95fa-f7ae5b0e4ab6","019ce875-66c2-7f0b-b5e8-086c75889f84","","533","
                    <div class=""stimulus-container"">
                        <img src=""images/causal_sequence/coin_causal/coin_causal_9.png"" class=""exp-image"">
                        <div class=""question-area"">
                            <p style=""font-size: 20px; font-weight: bold; margin: 0;"">Is there a person in this image?</p>
                        </div>
                    </div>","0","main_causal_task","9","coin_causal","","","","",""
"","","","","","html-keyboard-response","91","570473","0.0-91.0","A3225197A57D498187805738CB466F18","019ce87f-1dd2-7c3d-95fa-f7ae5b0e4ab6","019ce875-66c2-7f0b-b5e8-086c75889f84","","null","<div style=""background-color: gray; width: 100vw; height: 100vh;""></div>","null","","","","","","","",""
"","","","","","html-keyboard-response","92","575479","0.0-92.0","A3225197A57D498187805738CB466F18","019ce87f-1dd2-7c3d-95fa-f7ae5b0e4ab6","019ce875-66c2-7f0b-b5e8-086c75889f84","","null","
                    <div class=""stimulus-container"">
                        <img src=""images/causal_sequence/package_causal/package_causal_1.png"" class=""exp-image"">
                        <div class=""question-area""></div> 
                    </div>","null","","","","","","","",""
"","","","","","html-button-response","93","575991","0.0-93.0","A3225197A57D498187805738CB466F18","019ce87f-1dd2-7c3d-95fa-f7ae5b0e4ab6","019ce875-66c2-7f0b-b5e8-086c75889f84","","511","
                    <div class=""stimulus-container"">
                        <img src=""images/causal_sequence/package_causal/package_causal_1.png"" class=""exp-image"">
                        <div class=""question-area"">
                            <p style=""font-size: 20px; font-weight: bold; margin: 0;"">Is there a person in this image?</p>
                        </div>
                    </div>","0","main_causal_task","1","package_causal","","","","",""
"","","","","","html-keyboard-response","94","581005","0.0-94.0","A3225197A57D498187805738CB466F18","019ce87f-1dd2-7c3d-95fa-f7ae5b0e4ab6","019ce875-66c2-7f0b-b5e8-086c75889f84","","null","
                    <div class=""stimulus-container"">
                        <img src=""images/causal_sequence/package_causal/package_causal_2.png"" class=""exp-image"">
                        <div class=""question-area""></div> 
                    </div>","null","","","","","","","",""
"","","","","","html-button-response","95","581416","0.0-95.0","A3225197A57D498187805738CB466F18","019ce87f-1dd2-7c3d-95fa-f7ae5b0e4ab6","019ce875-66c2-7f0b-b5e8-086c75889f84","","411","
                    <div class=""stimulus-container"">
                        <img src=""images/causal_sequence/package_causal/package_causal_2.png"" class=""exp-image"">
                        <div class=""question-area"">
                            <p style=""font-size: 20px; font-weight: bold; margin: 0;"">Is there a person in this image?</p>
                        </div>
                    </div>","0","main_causal_task","2","package_causal","","","","",""
"","","","","","html-keyboard-response","96","586426","0.0-96.0","A3225197A57D498187805738CB466F18","019ce87f-1dd2-7c3d-95fa-f7ae5b0e4ab6","019ce875-66c2-7f0b-b5e8-086c75889f84","","null","
                    <div class=""stimulus-container"">
                        <img src=""images/causal_sequence/package_causal/package_causal_3.png"" class=""exp-image"">
                        <div class=""question-area""></div> 
                    </div>","null","","","","","","","",""
"","","","","","html-button-response","97","586742","0.0-97.0","A3225197A57D498187805738CB466F18","019ce87f-1dd2-7c3d-95fa-f7ae5b0e4ab6","019ce875-66c2-7f0b-b5e8-086c75889f84","","315","
                    <div class=""stimulus-container"">
                        <img src=""images/causal_sequence/package_causal/package_causal_3.png"" class=""exp-image"">
                        <div class=""question-area"">
                            <p style=""font-size: 20px; font-weight: bold; margin: 0;"">Is there a person in this image?</p>
                        </div>
                    </div>","0","main_causal_task","3","package_causal","","","","",""
"","","","","","html-keyboard-response","98","591744","0.0-98.0","A3225197A57D498187805738CB466F18","019ce87f-1dd2-7c3d-95fa-f7ae5b0e4ab6","019ce875-66c2-7f0b-b5e8-086c75889f84","","null","
                    <div class=""stimulus-container"">
                        <img src=""images/causal_sequence/package_causal/package_causal_4.png"" class=""exp-image"">
                        <div class=""question-area""></div> 
                    </div>","null","","","","","","","",""
"","","","","","html-button-response","99","592395","0.0-99.0","A3225197A57D498187805738CB466F18","019ce87f-1dd2-7c3d-95fa-f7ae5b0e4ab6","019ce875-66c2-7f0b-b5e8-086c75889f84","","651","
                    <div class=""stimulus-container"">
                        <img src=""images/causal_sequence/package_causal/package_causal_4.png"" class=""exp-image"">
                        <div class=""question-area"">
                            <p style=""font-size: 20px; font-weight: bold; margin: 0;"">Is there a person in this image?</p>
                        </div>
                    </div>","1","main_causal_task","4","package_causal","","","","",""
"","","","","","html-keyboard-response","100","597400","0.0-100.0","A3225197A57D498187805738CB466F18","019ce87f-1dd2-7c3d-95fa-f7ae5b0e4ab6","019ce875-66c2-7f0b-b5e8-086c75889f84","","null","
                    <div class=""stimulus-container"">
                        <img src=""images/causal_sequence/package_causal/package_causal_5.png"" class=""exp-image"">
                        <div class=""question-area""></div> 
                    </div>","null","","","","","","","",""
"","","","","","html-button-response","101","597865","0.0-101.0","A3225197A57D498187805738CB466F18","019ce87f-1dd2-7c3d-95fa-f7ae5b0e4ab6","019ce875-66c2-7f0b-b5e8-086c75889f84","","464","
                    <div class=""stimulus-container"">
                        <img src=""images/causal_sequence/package_causal/package_causal_5.png"" class=""exp-image"">
                        <div class=""question-area"">
                            <p style=""font-size: 20px; font-weight: bold; margin: 0;"">Is there a person in this image?</p>
                        </div>
                    </div>","0","main_causal_task","5","package_causal","","","","",""
"","","","","","html-keyboard-response","102","602880","0.0-102.0","A3225197A57D498187805738CB466F18","019ce87f-1dd2-7c3d-95fa-f7ae5b0e4ab6","019ce875-66c2-7f0b-b5e8-086c75889f84","","null","
                    <div class=""stimulus-container"">
                        <img src=""images/causal_sequence/package_causal/package_causal_6.png"" class=""exp-image"">
                        <div class=""question-area""></div> 
                    </div>","null","","","","","","","",""
"","","","","","html-button-response","103","603323","0.0-103.0","A3225197A57D498187805738CB466F18","019ce87f-1dd2-7c3d-95fa-f7ae5b0e4ab6","019ce875-66c2-7f0b-b5e8-086c75889f84","","443","
                    <div class=""stimulus-container"">
                        <img src=""images/causal_sequence/package_causal/package_causal_6.png"" class=""exp-image"">
                        <div class=""question-area"">
                            <p style=""font-size: 20px; font-weight: bold; margin: 0;"">Is there a person in this image?</p>
                        </div>
                    </div>","0","main_causal_task","6","package_causal","","","","",""
"","","","","","html-keyboard-response","104","608334","0.0-104.0","A3225197A57D498187805738CB466F18","019ce87f-1dd2-7c3d-95fa-f7ae5b0e4ab6","019ce875-66c2-7f0b-b5e8-086c75889f84","","null","
                    <div class=""stimulus-container"">
                        <img src=""images/causal_sequence/package_causal/package_causal_7.png"" class=""exp-image"">
                        <div class=""question-area""></div> 
                    </div>","null","","","","","","","",""
"","","","","","html-button-response","105","608778","0.0-105.0","A3225197A57D498187805738CB466F18","019ce87f-1dd2-7c3d-95fa-f7ae5b0e4ab6","019ce875-66c2-7f0b-b5e8-086c75889f84","","443","
                    <div class=""stimulus-container"">
                        <img src=""images/causal_sequence/package_causal/package_causal_7.png"" class=""exp-image"">
                        <div class=""question-area"">
                            <p style=""font-size: 20px; font-weight: bold; margin: 0;"">Is there a person in this image?</p>
                        </div>
                    </div>","0","main_causal_task","7","package_causal","","","","",""
"","","","","","html-keyboard-response","106","613785","0.0-106.0","A3225197A57D498187805738CB466F18","019ce87f-1dd2-7c3d-95fa-f7ae5b0e4ab6","019ce875-66c2-7f0b-b5e8-086c75889f84","","null","
                    <div class=""stimulus-container"">
                        <img src=""images/causal_sequence/package_causal/package_causal_8.png"" class=""exp-image"">
                        <div class=""question-area""></div> 
                    </div>","null","","","","","","","",""
"","","","","","html-button-response","107","614433","0.0-107.0","A3225197A57D498187805738CB466F18","019ce87f-1dd2-7c3d-95fa-f7ae5b0e4ab6","019ce875-66c2-7f0b-b5e8-086c75889f84","","647","
                    <div class=""stimulus-container"">
                        <img src=""images/causal_sequence/package_causal/package_causal_8.png"" class=""exp-image"">
                        <div class=""question-area"">
                            <p style=""font-size: 20px; font-weight: bold; margin: 0;"">Is there a person in this image?</p>
                        </div>
                    </div>","0","main_causal_task","8","package_causal","","","","",""
"","","","","","html-keyboard-response","108","619440","0.0-108.0","A3225197A57D498187805738CB466F18","019ce87f-1dd2-7c3d-95fa-f7ae5b0e4ab6","019ce875-66c2-7f0b-b5e8-086c75889f84","","null","
                    <div class=""stimulus-container"">
                        <img src=""images/causal_sequence/package_causal/package_causal_9.png"" class=""exp-image"">
                        <div class=""question-area""></div> 
                    </div>","null","","","","","","","",""
"","","","","","html-button-response","109","619943","0.0-109.0","A3225197A57D498187805738CB466F18","019ce87f-1dd2-7c3d-95fa-f7ae5b0e4ab6","019ce875-66c2-7f0b-b5e8-086c75889f84","","502","
                    <div class=""stimulus-container"">
                        <img src=""images/causal_sequence/package_causal/package_causal_9.png"" class=""exp-image"">
                        <div class=""question-area"">
                            <p style=""font-size: 20px; font-weight: bold; margin: 0;"">Is there a person in this image?</p>
                        </div>
                    </div>","0","main_causal_task","9","package_causal","","","","",""
"","","","","","html-keyboard-response","110","620955","0.0-110.0","A3225197A57D498187805738CB466F18","019ce87f-1dd2-7c3d-95fa-f7ae5b0e4ab6","019ce875-66c2-7f0b-b5e8-086c75889f84","","null","<div style=""background-color: gray; width: 100vw; height: 100vh;""></div>","null","","","","","","","",""
"","","","","","html-keyboard-response","111","625959","0.0-111.0","A3225197A57D498187805738CB466F18","019ce87f-1dd2-7c3d-95fa-f7ae5b0e4ab6","019ce875-66c2-7f0b-b5e8-086c75889f84","","null","
                    <div class=""stimulus-container"">
                        <img src=""images/causal_sequence/dog_causal/dog_causal_1.png"" class=""exp-image"">
                        <div class=""question-area""></div> 
                    </div>","null","","","","","","","",""
"","","","","","html-button-response","112","626491","0.0-112.0","A3225197A57D498187805738CB466F18","019ce87f-1dd2-7c3d-95fa-f7ae5b0e4ab6","019ce875-66c2-7f0b-b5e8-086c75889f84","","531","
                    <div class=""stimulus-container"">
                        <img src=""images/causal_sequence/dog_causal/dog_causal_1.png"" class=""exp-image"">
                        <div class=""question-area"">
                            <p style=""font-size: 20px; font-weight: bold; margin: 0;"">Is there a person in this image?</p>
                        </div>
                    </div>","0","main_causal_task","1","dog_causal","","","","",""
"","","","","","html-keyboard-response","113","631505","0.0-113.0","A3225197A57D498187805738CB466F18","019ce87f-1dd2-7c3d-95fa-f7ae5b0e4ab6","019ce875-66c2-7f0b-b5e8-086c75889f84","","null","
                    <div class=""stimulus-container"">
                        <img src=""images/causal_sequence/dog_causal/dog_causal_2.png"" class=""exp-image"">
                        <div class=""question-area""></div> 
                    </div>","null","","","","","","","",""
"","","","","","html-button-response","114","632011","0.0-114.0","A3225197A57D498187805738CB466F18","019ce87f-1dd2-7c3d-95fa-f7ae5b0e4ab6","019ce875-66c2-7f0b-b5e8-086c75889f84","","505","
                    <div class=""stimulus-container"">
                        <img src=""images/causal_sequence/dog_causal/dog_causal_2.png"" class=""exp-image"">
                        <div class=""question-area"">
                            <p style=""font-size: 20px; font-weight: bold; margin: 0;"">Is there a person in this image?</p>
                        </div>
                    </div>","0","main_causal_task","2","dog_causal","","","","",""
"","","","","","html-keyboard-response","115","637013","0.0-115.0","A3225197A57D498187805738CB466F18","019ce87f-1dd2-7c3d-95fa-f7ae5b0e4ab6","019ce875-66c2-7f0b-b5e8-086c75889f84","","null","
                    <div class=""stimulus-container"">
                        <img src=""images/causal_sequence/dog_causal/dog_causal_3.png"" class=""exp-image"">
                        <div class=""question-area""></div> 
                    </div>","null","","","","","","","",""
"","","","","","html-button-response","116","637692","0.0-116.0","A3225197A57D498187805738CB466F18","019ce87f-1dd2-7c3d-95fa-f7ae5b0e4ab6","019ce875-66c2-7f0b-b5e8-086c75889f84","","678","
                    <div class=""stimulus-container"">
                        <img src=""images/causal_sequence/dog_causal/dog_causal_3.png"" class=""exp-image"">
                        <div class=""question-area"">
                            <p style=""font-size: 20px; font-weight: bold; margin: 0;"">Is there a person in this image?</p>
                        </div>
                    </div>","0","main_causal_task","3","dog_causal","","","","",""
"","","","","","html-keyboard-response","117","642707","0.0-117.0","A3225197A57D498187805738CB466F18","019ce87f-1dd2-7c3d-95fa-f7ae5b0e4ab6","019ce875-66c2-7f0b-b5e8-086c75889f84","","null","
                    <div class=""stimulus-container"">
                        <img src=""images/causal_sequence/dog_causal/dog_causal_4.png"" class=""exp-image"">
                        <div class=""question-area""></div> 
                    </div>","null","","","","","","","",""
"","","","","","html-button-response","118","643187","0.0-118.0","A3225197A57D498187805738CB466F18","019ce87f-1dd2-7c3d-95fa-f7ae5b0e4ab6","019ce875-66c2-7f0b-b5e8-086c75889f84","","479","
                    <div class=""stimulus-container"">
                        <img src=""images/causal_sequence/dog_causal/dog_causal_4.png"" class=""exp-image"">
                        <div class=""question-area"">
                            <p style=""font-size: 20px; font-weight: bold; margin: 0;"">Is there a person in this image?</p>
                        </div>
                    </div>","0","main_causal_task","4","dog_causal","","","","",""
"","","","","","html-keyboard-response","119","648195","0.0-119.0","A3225197A57D498187805738CB466F18","019ce87f-1dd2-7c3d-95fa-f7ae5b0e4ab6","019ce875-66c2-7f0b-b5e8-086c75889f84","","null","
                    <div class=""stimulus-container"">
                        <img src=""images/causal_sequence/dog_causal/dog_causal_5.png"" class=""exp-image"">
                        <div class=""question-area""></div> 
                    </div>","null","","","","","","","",""
"","","","","","html-button-response","120","648593","0.0-120.0","A3225197A57D498187805738CB466F18","019ce87f-1dd2-7c3d-95fa-f7ae5b0e4ab6","019ce875-66c2-7f0b-b5e8-086c75889f84","","397","
                    <div class=""stimulus-container"">
                        <img src=""images/causal_sequence/dog_causal/dog_causal_5.png"" class=""exp-image"">
                        <div class=""question-area"">
                            <p style=""font-size: 20px; font-weight: bold; margin: 0;"">Is there a person in this image?</p>
                        </div>
                    </div>","0","main_causal_task","5","dog_causal","","","","",""
"","","","","","html-keyboard-response","121","653596","0.0-121.0","A3225197A57D498187805738CB466F18","019ce87f-1dd2-7c3d-95fa-f7ae5b0e4ab6","019ce875-66c2-7f0b-b5e8-086c75889f84","","null","
                    <div class=""stimulus-container"">
                        <img src=""images/causal_sequence/dog_causal/dog_causal_6.png"" class=""exp-image"">
                        <div class=""question-area""></div> 
                    </div>","null","","","","","","","",""
"","","","","","html-button-response","122","654132","0.0-122.0","A3225197A57D498187805738CB466F18","019ce87f-1dd2-7c3d-95fa-f7ae5b0e4ab6","019ce875-66c2-7f0b-b5e8-086c75889f84","","534","
                    <div class=""stimulus-container"">
                        <img src=""images/causal_sequence/dog_causal/dog_causal_6.png"" class=""exp-image"">
                        <div class=""question-area"">
                            <p style=""font-size: 20px; font-weight: bold; margin: 0;"">Is there a person in this image?</p>
                        </div>
                    </div>","0","main_causal_task","6","dog_causal","","","","",""
"","","","","","html-keyboard-response","123","659133","0.0-123.0","A3225197A57D498187805738CB466F18","019ce87f-1dd2-7c3d-95fa-f7ae5b0e4ab6","019ce875-66c2-7f0b-b5e8-086c75889f84","","null","
                    <div class=""stimulus-container"">
                        <img src=""images/causal_sequence/dog_causal/dog_causal_7.png"" class=""exp-image"">
                        <div class=""question-area""></div> 
                    </div>","null","","","","","","","",""
"","","","","","html-button-response","124","659616","0.0-124.0","A3225197A57D498187805738CB466F18","019ce87f-1dd2-7c3d-95fa-f7ae5b0e4ab6","019ce875-66c2-7f0b-b5e8-086c75889f84","","482","
                    <div class=""stimulus-container"">
                        <img src=""images/causal_sequence/dog_causal/dog_causal_7.png"" class=""exp-image"">
                        <div class=""question-area"">
                            <p style=""font-size: 20px; font-weight: bold; margin: 0;"">Is there a person in this image?</p>
                        </div>
                    </div>","0","main_causal_task","7","dog_causal","","","","",""
"","","","","","html-keyboard-response","125","664619","0.0-125.0","A3225197A57D498187805738CB466F18","019ce87f-1dd2-7c3d-95fa-f7ae5b0e4ab6","019ce875-66c2-7f0b-b5e8-086c75889f84","","null","
                    <div class=""stimulus-container"">
                        <img src=""images/causal_sequence/dog_causal/dog_causal_8.png"" class=""exp-image"">
                        <div class=""question-area""></div> 
                    </div>","null","","","","","","","",""
"","","","","","html-button-response","126","665080","0.0-126.0","A3225197A57D498187805738CB466F18","019ce87f-1dd2-7c3d-95fa-f7ae5b0e4ab6","019ce875-66c2-7f0b-b5e8-086c75889f84","","460","
                    <div class=""stimulus-container"">
                        <img src=""images/causal_sequence/dog_causal/dog_causal_8.png"" class=""exp-image"">
                        <div class=""question-area"">
                            <p style=""font-size: 20px; font-weight: bold; margin: 0;"">Is there a person in this image?</p>
                        </div>
                    </div>","0","main_causal_task","8","dog_causal","","","","",""
"","","","","","html-keyboard-response","127","670092","0.0-127.0","A3225197A57D498187805738CB466F18","019ce87f-1dd2-7c3d-95fa-f7ae5b0e4ab6","019ce875-66c2-7f0b-b5e8-086c75889f84","","null","
                    <div class=""stimulus-container"">
                        <img src=""images/causal_sequence/dog_causal/dog_causal_9.png"" class=""exp-image"">
                        <div class=""question-area""></div> 
                    </div>","null","","","","","","","",""
"","","","","","html-button-response","128","670540","0.0-128.0","A3225197A57D498187805738CB466F18","019ce87f-1dd2-7c3d-95fa-f7ae5b0e4ab6","019ce875-66c2-7f0b-b5e8-086c75889f84","","447","
                    <div class=""stimulus-container"">
                        <img src=""images/causal_sequence/dog_causal/dog_causal_9.png"" class=""exp-image"">
                        <div class=""question-area"">
                            <p style=""font-size: 20px; font-weight: bold; margin: 0;"">Is there a person in this image?</p>
                        </div>
                    </div>","0","main_causal_task","9","dog_causal","","","","",""
"","","","","","instructions","129","671659","0.0-129.0","A3225197A57D498187805738CB466F18","019ce87f-1dd2-7c3d-95fa-f7ae5b0e4ab6","019ce875-66c2-7f0b-b5e8-086c75889f84","[{""page_index"":0,""viewing_time"":1119}]","1119","","","","","","","","","",""
"","","","","","instructions","130","672721","0.0-130.0","A3225197A57D498187805738CB466F18","019ce87f-1dd2-7c3d-95fa-f7ae5b0e4ab6","019ce875-66c2-7f0b-b5e8-086c75889f84","[{""page_index"":0,""viewing_time"":1062}]","1062","","","","","","","","","",""
"","","","","","html-button-response","131","676437","0.0-131.0-0.0","A3225197A57D498187805738CB466F18","019ce87f-1dd2-7c3d-95fa-f7ae5b0e4ab6","019ce875-66c2-7f0b-b5e8-086c75889f84","","3715","
                <div style=""margin-bottom:20px;""><h3>Example: Valuable Image</h3></div>
                <div class=""stimulus-container"" style=""display: flex; align-items: center; justify-content: center; gap: 30px;"">
                    <img src=""images/instructions/movie_1.png"" class=""exp-image"">
                    <div style=""font-size: 35px; font-weight: bold; color: green; border: 5px solid green; padding: 20px; border-radius: 15px; background-color: #f0fff0;"">
                        WORTH<br>$1
                    </div>
                </div>
                <div class=""question-area""><p>Was there a person in this image?</p></div>","0","","","","","","","",""
"","","","","","html-button-response","132","678892","0.0-131.0-1.0","A3225197A57D498187805738CB466F18","019ce87f-1dd2-7c3d-95fa-f7ae5b0e4ab6","019ce875-66c2-7f0b-b5e8-086c75889f84","","2454","
                <div style=""margin-bottom:20px;""><h3>Example: Neutral Image</h3></div>
                <div class=""stimulus-container"" style=""display: flex; align-items: center; justify-content: center; gap: 30px;"">
                    <img src=""images/instructions/movie_2.png"" class=""exp-image"">
                    <div style=""font-size: 35px; font-weight: bold; color: grey; border: 5px solid grey; padding: 20px; border-radius: 15px; background-color: #f0f0f0;"">
                        NEUTRAL<br>VALUE
                    </div>
                </div>
                <div class=""question-area""><p>Was there a person in this image?</p></div>","0","","","","","","","",""
"","","","","","html-keyboard-response","133","686906","0.0-132.0","A3225197A57D498187805738CB466F18","019ce87f-1dd2-7c3d-95fa-f7ae5b0e4ab6","019ce875-66c2-7f0b-b5e8-086c75889f84","","null","
            <div class=""stimulus-container"" style=""display: flex; align-items: center; justify-content: center; gap: 30px;"">
                <img src=""images/causal_sequence/museum_causal/museum_causal_5.png"" class=""exp-image"">
                <div style=""font-size: 40px; font-weight: bold; color: green; border: 5px solid green; padding: 25px; border-radius: 15px; background-color: #f0fff0;"">
                    WORTH<br>$1
                </div>
            </div>
            <div class=""question-area""></div>","null","","","","","","","",""
"","","","","","html-button-response","134","687823","0.0-133.0","A3225197A57D498187805738CB466F18","019ce87f-1dd2-7c3d-95fa-f7ae5b0e4ab6","019ce875-66c2-7f0b-b5e8-086c75889f84","","916","
            <div class=""stimulus-container"" style=""display: flex; align-items: center; justify-content: center; gap: 30px;"">
                <img src=""images/causal_sequence/museum_causal/museum_causal_5.png"" class=""exp-image"">
                <div style=""font-size: 40px; font-weight: bold; color: green; border: 5px solid green; padding: 25px; border-radius: 15px; background-color: #f0fff0;"">
                    WORTH<br>$1
                </div>
            </div>
            <div class=""question-area"">
                <p style=""font-size: 20px; font-weight: bold; margin: 0;"">Was there a person in this image?</p>
            </div>","0","part2_value_learning","","museum_causal","5","valuable","","",""
"","","","","","html-keyboard-response","135","695827","0.0-134.0","A3225197A57D498187805738CB466F18","019ce87f-1dd2-7c3d-95fa-f7ae5b0e4ab6","019ce875-66c2-7f0b-b5e8-086c75889f84","","null","
            <div class=""stimulus-container"" style=""display: flex; align-items: center; justify-content: center; gap: 30px;"">
                <img src=""images/causal_sequence/coin_causal/coin_causal_5.png"" class=""exp-image"">
                <div style=""font-size: 40px; font-weight: bold; color: green; border: 5px solid green; padding: 25px; border-radius: 15px; background-color: #f0fff0;"">
                    WORTH<br>$1
                </div>
            </div>
            <div class=""question-area""></div>","null","","","","","","","",""
"","","","","","html-button-response","136","696441","0.0-135.0","A3225197A57D498187805738CB466F18","019ce87f-1dd2-7c3d-95fa-f7ae5b0e4ab6","019ce875-66c2-7f0b-b5e8-086c75889f84","","613","
            <div class=""stimulus-container"" style=""display: flex; align-items: center; justify-content: center; gap: 30px;"">
                <img src=""images/causal_sequence/coin_causal/coin_causal_5.png"" class=""exp-image"">
                <div style=""font-size: 40px; font-weight: bold; color: green; border: 5px solid green; padding: 25px; border-radius: 15px; background-color: #f0fff0;"">
                    WORTH<br>$1
                </div>
            </div>
            <div class=""question-area"">
                <p style=""font-size: 20px; font-weight: bold; margin: 0;"">Was there a person in this image?</p>
            </div>","0","part2_value_learning","","coin_causal","5","valuable","","",""
"","","","","","html-keyboard-response","137","704457","0.0-136.0","A3225197A57D498187805738CB466F18","019ce87f-1dd2-7c3d-95fa-f7ae5b0e4ab6","019ce875-66c2-7f0b-b5e8-086c75889f84","","null","
            <div class=""stimulus-container"" style=""display: flex; align-items: center; justify-content: center; gap: 30px;"">
                <img src=""images/causal_sequence/package_causal/package_causal_6.png"" class=""exp-image"">
                <div style=""font-size: 40px; font-weight: bold; color: green; border: 5px solid green; padding: 25px; border-radius: 15px; background-color: #f0fff0;"">
                    WORTH<br>$1
                </div>
            </div>
            <div class=""question-area""></div>","null","","","","","","","",""
"","","","","","html-button-response","138","705248","0.0-137.0","A3225197A57D498187805738CB466F18","019ce87f-1dd2-7c3d-95fa-f7ae5b0e4ab6","019ce875-66c2-7f0b-b5e8-086c75889f84","","789","
            <div class=""stimulus-container"" style=""display: flex; align-items: center; justify-content: center; gap: 30px;"">
                <img src=""images/causal_sequence/package_causal/package_causal_6.png"" class=""exp-image"">
                <div style=""font-size: 40px; font-weight: bold; color: green; border: 5px solid green; padding: 25px; border-radius: 15px; background-color: #f0fff0;"">
                    WORTH<br>$1
                </div>
            </div>
            <div class=""question-area"">
                <p style=""font-size: 20px; font-weight: bold; margin: 0;"">Was there a person in this image?</p>
            </div>","0","part2_value_learning","","package_causal","6","valuable","","",""
"","","","","","html-keyboard-response","139","713249","0.0-138.0","A3225197A57D498187805738CB466F18","019ce87f-1dd2-7c3d-95fa-f7ae5b0e4ab6","019ce875-66c2-7f0b-b5e8-086c75889f84","","null","
            <div class=""stimulus-container"" style=""display: flex; align-items: center; justify-content: center; gap: 30px;"">
                <img src=""images/causal_sequence/dog_causal/dog_causal_4.png"" class=""exp-image"">
                <div style=""font-size: 40px; font-weight: bold; color: grey; border: 5px solid grey; padding: 25px; border-radius: 15px; background-color: #f0f0f0;"">
                    NEUTRAL<br>VALUE
                </div>
            </div>
            <div class=""question-area""></div>","null","","","","","","","",""
"","","","","","html-button-response","140","713769","0.0-139.0","A3225197A57D498187805738CB466F18","019ce87f-1dd2-7c3d-95fa-f7ae5b0e4ab6","019ce875-66c2-7f0b-b5e8-086c75889f84","","519","
            <div class=""stimulus-container"" style=""display: flex; align-items: center; justify-content: center; gap: 30px;"">
                <img src=""images/causal_sequence/dog_causal/dog_causal_4.png"" class=""exp-image"">
                <div style=""font-size: 40px; font-weight: bold; color: grey; border: 5px solid grey; padding: 25px; border-radius: 15px; background-color: #f0f0f0;"">
                    NEUTRAL<br>VALUE
                </div>
            </div>
            <div class=""question-area"">
                <p style=""font-size: 20px; font-weight: bold; margin: 0;"">Was there a person in this image?</p>
            </div>","0","part2_value_learning","","dog_causal","4","neutral","","",""
"","","","","","html-keyboard-response","141","721785","0.0-140.0","A3225197A57D498187805738CB466F18","019ce87f-1dd2-7c3d-95fa-f7ae5b0e4ab6","019ce875-66c2-7f0b-b5e8-086c75889f84","","null","
            <div class=""stimulus-container"" style=""display: flex; align-items: center; justify-content: center; gap: 30px;"">
                <img src=""images/causal_sequence/the_performance_causal/the_performance_causal_6.png"" class=""exp-image"">
                <div style=""font-size: 40px; font-weight: bold; color: grey; border: 5px solid grey; padding: 25px; border-radius: 15px; background-color: #f0f0f0;"">
                    NEUTRAL<br>VALUE
                </div>
            </div>
            <div class=""question-area""></div>","null","","","","","","","",""
"","","","","","html-button-response","142","722294","0.0-141.0","A3225197A57D498187805738CB466F18","019ce87f-1dd2-7c3d-95fa-f7ae5b0e4ab6","019ce875-66c2-7f0b-b5e8-086c75889f84","","509","
            <div class=""stimulus-container"" style=""display: flex; align-items: center; justify-content: center; gap: 30px;"">
                <img src=""images/causal_sequence/the_performance_causal/the_performance_causal_6.png"" class=""exp-image"">
                <div style=""font-size: 40px; font-weight: bold; color: grey; border: 5px solid grey; padding: 25px; border-radius: 15px; background-color: #f0f0f0;"">
                    NEUTRAL<br>VALUE
                </div>
            </div>
            <div class=""question-area"">
                <p style=""font-size: 20px; font-weight: bold; margin: 0;"">Was there a person in this image?</p>
            </div>","0","part2_value_learning","","the_performance_causal","6","neutral","","",""
"","","","","","html-keyboard-response","143","730301","0.0-142.0","A3225197A57D498187805738CB466F18","019ce87f-1dd2-7c3d-95fa-f7ae5b0e4ab6","019ce875-66c2-7f0b-b5e8-086c75889f84","","null","
            <div class=""stimulus-container"" style=""display: flex; align-items: center; justify-content: center; gap: 30px;"">
                <img src=""images/causal_sequence/saving_a_cat_causal/saving_a_cat_causal_4.png"" class=""exp-image"">
                <div style=""font-size: 40px; font-weight: bold; color: grey; border: 5px solid grey; padding: 25px; border-radius: 15px; background-color: #f0f0f0;"">
                    NEUTRAL<br>VALUE
                </div>
            </div>
            <div class=""question-area""></div>","null","","","","","","","",""
"","","","","","html-button-response","144","731038","0.0-143.0","A3225197A57D498187805738CB466F18","019ce87f-1dd2-7c3d-95fa-f7ae5b0e4ab6","019ce875-66c2-7f0b-b5e8-086c75889f84","","735","
            <div class=""stimulus-container"" style=""display: flex; align-items: center; justify-content: center; gap: 30px;"">
                <img src=""images/causal_sequence/saving_a_cat_causal/saving_a_cat_causal_4.png"" class=""exp-image"">
                <div style=""font-size: 40px; font-weight: bold; color: grey; border: 5px solid grey; padding: 25px; border-radius: 15px; background-color: #f0f0f0;"">
                    NEUTRAL<br>VALUE
                </div>
            </div>
            <div class=""question-area"">
                <p style=""font-size: 20px; font-weight: bold; margin: 0;"">Was there a person in this image?</p>
            </div>","0","part2_value_learning","","saving_a_cat_causal","4","neutral","","",""
"","","","","","instructions","145","732290","0.0-144.0","A3225197A57D498187805738CB466F18","019ce87f-1dd2-7c3d-95fa-f7ae5b0e4ab6","019ce875-66c2-7f0b-b5e8-086c75889f84","[{""page_index"":0,""viewing_time"":1252}]","1252","","","","","","","","","",""
"","","","","","html-keyboard-response","146","742294","0.0-145.0-0.0","A3225197A57D498187805738CB466F18","019ce87f-1dd2-7c3d-95fa-f7ae5b0e4ab6","019ce875-66c2-7f0b-b5e8-086c75889f84","","null","
                        <div style=""font-family: Arial; margin-bottom: 20px;""><h3>Which image is more valuable?</h3></div>
                        <div class=""stimulus-container"" style=""display: flex; width: 1100px; justify-content: center; gap: 50px;"">
                            <img src=""images/causal_sequence/dog_causal/dog_causal_3.png"" class=""exp-image"">
                            <img src=""images/causal_sequence/dog_causal/dog_causal_5.png"" class=""exp-image"">
                        </div>","null","","","","","","","",""
"","","","","","html-button-response","147","743237","0.0-145.0-1.0","A3225197A57D498187805738CB466F18","019ce87f-1dd2-7c3d-95fa-f7ae5b0e4ab6","019ce875-66c2-7f0b-b5e8-086c75889f84","","942","
                        <div style=""font-family: Arial; margin-bottom: 20px;""><h3>Which image is more valuable?</h3></div>
                        <div class=""stimulus-container"" style=""display: flex; width: 1100px; justify-content: center; gap: 50px;"">
                            <img src=""images/causal_sequence/dog_causal/dog_causal_3.png"" class=""exp-image"">
                            <img src=""images/causal_sequence/dog_causal/dog_causal_5.png"" class=""exp-image"">
                        </div>","0","part3_final_choice","","dog_causal","","neutral","4","3","-1"
"","","","","","html-keyboard-response","148","753241","0.0-146.0-0.0","A3225197A57D498187805738CB466F18","019ce87f-1dd2-7c3d-95fa-f7ae5b0e4ab6","019ce875-66c2-7f0b-b5e8-086c75889f84","","null","
                        <div style=""font-family: Arial; margin-bottom: 20px;""><h3>Which image is more valuable?</h3></div>
                        <div class=""stimulus-container"" style=""display: flex; width: 1100px; justify-content: center; gap: 50px;"">
                            <img src=""images/causal_sequence/saving_a_cat_causal/saving_a_cat_causal_5.png"" class=""exp-image"">
                            <img src=""images/causal_sequence/saving_a_cat_causal/saving_a_cat_causal_3.png"" class=""exp-image"">
                        </div>","null","","","","","","","",""
"","","","","","html-button-response","149","754094","0.0-146.0-1.0","A3225197A57D498187805738CB466F18","019ce87f-1dd2-7c3d-95fa-f7ae5b0e4ab6","019ce875-66c2-7f0b-b5e8-086c75889f84","","852","
                        <div style=""font-family: Arial; margin-bottom: 20px;""><h3>Which image is more valuable?</h3></div>
                        <div class=""stimulus-container"" style=""display: flex; width: 1100px; justify-content: center; gap: 50px;"">
                            <img src=""images/causal_sequence/saving_a_cat_causal/saving_a_cat_causal_5.png"" class=""exp-image"">
                            <img src=""images/causal_sequence/saving_a_cat_causal/saving_a_cat_causal_3.png"" class=""exp-image"">
                        </div>","0","part3_final_choice","","saving_a_cat_causal","","neutral","4","5","1"
"","","","","","html-keyboard-response","150","764109","0.0-147.0-0.0","A3225197A57D498187805738CB466F18","019ce87f-1dd2-7c3d-95fa-f7ae5b0e4ab6","019ce875-66c2-7f0b-b5e8-086c75889f84","","null","
                        <div style=""font-family: Arial; margin-bottom: 20px;""><h3>Which image is more valuable?</h3></div>
                        <div class=""stimulus-container"" style=""display: flex; width: 1100px; justify-content: center; gap: 50px;"">
                            <img src=""images/causal_sequence/the_performance_causal/the_performance_causal_5.png"" class=""exp-image"">
                            <img src=""images/causal_sequence/the_performance_causal/the_performance_causal_7.png"" class=""exp-image"">
                        </div>","null","","","","","","","",""
"","","","","","html-button-response","151","764768","0.0-147.0-1.0","A3225197A57D498187805738CB466F18","019ce87f-1dd2-7c3d-95fa-f7ae5b0e4ab6","019ce875-66c2-7f0b-b5e8-086c75889f84","","658","
                        <div style=""font-family: Arial; margin-bottom: 20px;""><h3>Which image is more valuable?</h3></div>
                        <div class=""stimulus-container"" style=""display: flex; width: 1100px; justify-content: center; gap: 50px;"">
                            <img src=""images/causal_sequence/the_performance_causal/the_performance_causal_5.png"" class=""exp-image"">
                            <img src=""images/causal_sequence/the_performance_causal/the_performance_causal_7.png"" class=""exp-image"">
                        </div>","1","part3_final_choice","","the_performance_causal","","neutral","6","7","1"
"","","","","","html-keyboard-response","152","774784","0.0-148.0-0.0","A3225197A57D498187805738CB466F18","019ce87f-1dd2-7c3d-95fa-f7ae5b0e4ab6","019ce875-66c2-7f0b-b5e8-086c75889f84","","null","
                        <div style=""font-family: Arial; margin-bottom: 20px;""><h3>Which image is more valuable?</h3></div>
                        <div class=""stimulus-container"" style=""display: flex; width: 1100px; justify-content: center; gap: 50px;"">
                            <img src=""images/causal_sequence/museum_causal/museum_causal_6.png"" class=""exp-image"">
                            <img src=""images/causal_sequence/museum_causal/museum_causal_4.png"" class=""exp-image"">
                        </div>","null","","","","","","","",""
"","","","","","html-button-response","153","775597","0.0-148.0-1.0","A3225197A57D498187805738CB466F18","019ce87f-1dd2-7c3d-95fa-f7ae5b0e4ab6","019ce875-66c2-7f0b-b5e8-086c75889f84","","813","
                        <div style=""font-family: Arial; margin-bottom: 20px;""><h3>Which image is more valuable?</h3></div>
                        <div class=""stimulus-container"" style=""display: flex; width: 1100px; justify-content: center; gap: 50px;"">
                            <img src=""images/causal_sequence/museum_causal/museum_causal_6.png"" class=""exp-image"">
                            <img src=""images/causal_sequence/museum_causal/museum_causal_4.png"" class=""exp-image"">
                        </div>","0","part3_final_choice","","museum_causal","","valuable","5","6","1"
"","","","","","html-keyboard-response","154","785612","0.0-149.0-0.0","A3225197A57D498187805738CB466F18","019ce87f-1dd2-7c3d-95fa-f7ae5b0e4ab6","019ce875-66c2-7f0b-b5e8-086c75889f84","","null","
                        <div style=""font-family: Arial; margin-bottom: 20px;""><h3>Which image is more valuable?</h3></div>
                        <div class=""stimulus-container"" style=""display: flex; width: 1100px; justify-content: center; gap: 50px;"">
                            <img src=""images/causal_sequence/coin_causal/coin_causal_6.png"" class=""exp-image"">
                            <img src=""images/causal_sequence/coin_causal/coin_causal_4.png"" class=""exp-image"">
                        </div>","null","","","","","","","",""
"","","","","","html-button-response","155","786075","0.0-149.0-1.0","A3225197A57D498187805738CB466F18","019ce87f-1dd2-7c3d-95fa-f7ae5b0e4ab6","019ce875-66c2-7f0b-b5e8-086c75889f84","","462","
                        <div style=""font-family: Arial; margin-bottom: 20px;""><h3>Which image is more valuable?</h3></div>
                        <div class=""stimulus-container"" style=""display: flex; width: 1100px; justify-content: center; gap: 50px;"">
                            <img src=""images/causal_sequence/coin_causal/coin_causal_6.png"" class=""exp-image"">
                            <img src=""images/causal_sequence/coin_causal/coin_causal_4.png"" class=""exp-image"">
                        </div>","1","part3_final_choice","","coin_causal","","valuable","5","4","-1"
"","","","","","html-keyboard-response","156","796085","0.0-150.0-0.0","A3225197A57D498187805738CB466F18","019ce87f-1dd2-7c3d-95fa-f7ae5b0e4ab6","019ce875-66c2-7f0b-b5e8-086c75889f84","","null","
                        <div style=""font-family: Arial; margin-bottom: 20px;""><h3>Which image is more valuable?</h3></div>
                        <div class=""stimulus-container"" style=""display: flex; width: 1100px; justify-content: center; gap: 50px;"">
                            <img src=""images/causal_sequence/package_causal/package_causal_5.png"" class=""exp-image"">
                            <img src=""images/causal_sequence/package_causal/package_causal_7.png"" class=""exp-image"">
                        </div>","null","","","","","","","",""
"","","","","","html-button-response","157","796573","0.0-150.0-1.0","A3225197A57D498187805738CB466F18","019ce87f-1dd2-7c3d-95fa-f7ae5b0e4ab6","019ce875-66c2-7f0b-b5e8-086c75889f84","","486","
                        <div style=""font-family: Arial; margin-bottom: 20px;""><h3>Which image is more valuable?</h3></div>
                        <div class=""stimulus-container"" style=""display: flex; width: 1100px; justify-content: center; gap: 50px;"">
                            <img src=""images/causal_sequence/package_causal/package_causal_5.png"" class=""exp-image"">
                            <img src=""images/causal_sequence/package_causal/package_causal_7.png"" class=""exp-image"">
                        </div>","1","part3_final_choice","","package_causal","","valuable","6","7","1"
"","","","","","survey-text","158","838748","0.0-151.0","A3225197A57D498187805738CB466F18","019ce87f-1dd2-7c3d-95fa-f7ae5b0e4ab6","019ce875-66c2-7f0b-b5e8-086c75889f84","","42167","","{""gender"":""Male"",""age"":""30"",""decision_strategy"":""I decided it based on the quality of the image and the query relative and attached to the image to determine and ultimately decide which image was more valuable."",""consistency_check"":""Yes, I used the same logic for all pairs of images.""}","demographics_and_strategy","","","","","","",""
"","","","","","instructions","159","844819","0.0-152.0","A3225197A57D498187805738CB466F18","019ce87f-1dd2-7c3d-95fa-f7ae5b0e4ab6","019ce875-66c2-7f0b-b5e8-086c75889f84","[{""page_index"":0,""viewing_time"":6071}]","6071","","","","","","","","","",""
