"success","timeout","failed_images","failed_audio","failed_video","trial_type","trial_index","time_elapsed","internal_node_id","subject_id","study_id","session_id","view_history","rt","stimulus","response","task","image_index","folder","sequence_type","valuable_image_index","reward_type","chosen_image_index","correct_choice"
"true","false","[]","[]","[]","preload","0","2342","0.0-0.0","D9BFC3FB70D94AB5A094D9678DF71AFB","019cee76-d828-7622-b26b-55ee063dad7e","019cee5f-9f1f-7e58-80c1-9ba679249cc3","","","","","","","","","","","",""
"","","","","","instructions","1","7091","0.0-1.0","D9BFC3FB70D94AB5A094D9678DF71AFB","019cee76-d828-7622-b26b-55ee063dad7e","019cee5f-9f1f-7e58-80c1-9ba679249cc3","[{""page_index"":0,""viewing_time"":4748}]","4748","","","","","","","","","",""
"","","","","","instructions","2","21012","0.0-2.0","D9BFC3FB70D94AB5A094D9678DF71AFB","019cee76-d828-7622-b26b-55ee063dad7e","019cee5f-9f1f-7e58-80c1-9ba679249cc3","[{""page_index"":0,""viewing_time"":13919}]","13920","","","","","","","","","",""
"true","","","","","fullscreen","3","24560","0.0-3.0","D9BFC3FB70D94AB5A094D9678DF71AFB","019cee76-d828-7622-b26b-55ee063dad7e","019cee5f-9f1f-7e58-80c1-9ba679249cc3","","2537","","","","","","","","","",""
"","","","","","instructions","4","33846","0.0-4.0","D9BFC3FB70D94AB5A094D9678DF71AFB","019cee76-d828-7622-b26b-55ee063dad7e","019cee5f-9f1f-7e58-80c1-9ba679249cc3","[{""page_index"":0,""viewing_time"":9285}]","9285","","","","","","","","","",""
"","","","","","instructions","5","40742","0.0-5.0","D9BFC3FB70D94AB5A094D9678DF71AFB","019cee76-d828-7622-b26b-55ee063dad7e","019cee5f-9f1f-7e58-80c1-9ba679249cc3","[{""page_index"":0,""viewing_time"":6896}]","6896","","","","","","","","","",""
"","","","","","html-keyboard-response","6","44756","0.0-6.0","D9BFC3FB70D94AB5A094D9678DF71AFB","019cee76-d828-7622-b26b-55ee063dad7e","019cee5f-9f1f-7e58-80c1-9ba679249cc3","","null","
                <div class=""stimulus-container"">
                    <img src=""images/instructions/movie_1.png"" class=""exp-image"">
                    <div class=""question-area""></div> 
                </div>","null","","","","","","","",""
"","","","","","html-button-response","7","47515","0.0-7.0","D9BFC3FB70D94AB5A094D9678DF71AFB","019cee76-d828-7622-b26b-55ee063dad7e","019cee5f-9f1f-7e58-80c1-9ba679249cc3","","2758","
                <div class=""stimulus-container"">
                    <img src=""images/instructions/movie_1.png"" class=""exp-image"">
                    <div class=""question-area"">
                        <p style=""font-size: 20px; font-weight: bold; margin: 0;"">Was there a person in this image?</p>
                    </div>
                </div>","0","example_question","1","","","","","",""
"","","","","","html-keyboard-response","8","51524","0.0-8.0","D9BFC3FB70D94AB5A094D9678DF71AFB","019cee76-d828-7622-b26b-55ee063dad7e","019cee5f-9f1f-7e58-80c1-9ba679249cc3","","null","
                <div class=""stimulus-container"">
                    <img src=""images/instructions/movie_2.png"" class=""exp-image"">
                    <div class=""question-area""></div> 
                </div>","null","","","","","","","",""
"","","","","","html-button-response","9","53557","0.0-9.0","D9BFC3FB70D94AB5A094D9678DF71AFB","019cee76-d828-7622-b26b-55ee063dad7e","019cee5f-9f1f-7e58-80c1-9ba679249cc3","","2032","
                <div class=""stimulus-container"">
                    <img src=""images/instructions/movie_2.png"" class=""exp-image"">
                    <div class=""question-area"">
                        <p style=""font-size: 20px; font-weight: bold; margin: 0;"">Was there a person in this image?</p>
                    </div>
                </div>","0","example_question","2","","","","","",""
"","","","","","html-keyboard-response","10","57562","0.0-10.0","D9BFC3FB70D94AB5A094D9678DF71AFB","019cee76-d828-7622-b26b-55ee063dad7e","019cee5f-9f1f-7e58-80c1-9ba679249cc3","","null","
                <div class=""stimulus-container"">
                    <img src=""images/instructions/movie_3.png"" class=""exp-image"">
                    <div class=""question-area""></div> 
                </div>","null","","","","","","","",""
"","","","","","html-button-response","11","59760","0.0-11.0","D9BFC3FB70D94AB5A094D9678DF71AFB","019cee76-d828-7622-b26b-55ee063dad7e","019cee5f-9f1f-7e58-80c1-9ba679249cc3","","2197","
                <div class=""stimulus-container"">
                    <img src=""images/instructions/movie_3.png"" class=""exp-image"">
                    <div class=""question-area"">
                        <p style=""font-size: 20px; font-weight: bold; margin: 0;"">Was there a person in this image?</p>
                    </div>
                </div>","0","example_question","3","","","","","",""
"","","","","","html-keyboard-response","12","63773","0.0-12.0","D9BFC3FB70D94AB5A094D9678DF71AFB","019cee76-d828-7622-b26b-55ee063dad7e","019cee5f-9f1f-7e58-80c1-9ba679249cc3","","null","
                <div class=""stimulus-container"">
                    <img src=""images/instructions/movie_4.png"" class=""exp-image"">
                    <div class=""question-area""></div> 
                </div>","null","","","","","","","",""
"","","","","","html-button-response","13","65419","0.0-13.0","D9BFC3FB70D94AB5A094D9678DF71AFB","019cee76-d828-7622-b26b-55ee063dad7e","019cee5f-9f1f-7e58-80c1-9ba679249cc3","","1645","
                <div class=""stimulus-container"">
                    <img src=""images/instructions/movie_4.png"" class=""exp-image"">
                    <div class=""question-area"">
                        <p style=""font-size: 20px; font-weight: bold; margin: 0;"">Was there a person in this image?</p>
                    </div>
                </div>","0","example_question","4","","","","","",""
"","","","","","instructions","14","67188","0.0-14.0","D9BFC3FB70D94AB5A094D9678DF71AFB","019cee76-d828-7622-b26b-55ee063dad7e","019cee5f-9f1f-7e58-80c1-9ba679249cc3","[{""page_index"":0,""viewing_time"":1769}]","1769","","","","","","","","","",""
"","","","","","instructions","15","74403","0.0-15.0","D9BFC3FB70D94AB5A094D9678DF71AFB","019cee76-d828-7622-b26b-55ee063dad7e","019cee5f-9f1f-7e58-80c1-9ba679249cc3","[{""page_index"":0,""viewing_time"":7214}]","7214","","","","","","","","","",""
"","","","","","html-keyboard-response","16","75417","0.0-16.0","D9BFC3FB70D94AB5A094D9678DF71AFB","019cee76-d828-7622-b26b-55ee063dad7e","019cee5f-9f1f-7e58-80c1-9ba679249cc3","","null","<div style=""background-color: white; width: 100vw; height: 100vh;""></div>","null","","","","","","","",""
"","","","","","html-keyboard-response","17","80423","0.0-17.0","D9BFC3FB70D94AB5A094D9678DF71AFB","019cee76-d828-7622-b26b-55ee063dad7e","019cee5f-9f1f-7e58-80c1-9ba679249cc3","","null","
                <div class=""stimulus-container"">
                    <img src=""images/schematic_sequence/flight_scheme/flight_scheme_1.png"" class=""exp-image"">
                    <div class=""question-area""></div> 
                </div>","null","","","","","","","",""
"","","","","","html-button-response","18","83439","0.0-18.0","D9BFC3FB70D94AB5A094D9678DF71AFB","019cee76-d828-7622-b26b-55ee063dad7e","019cee5f-9f1f-7e58-80c1-9ba679249cc3","","null","
                <div class=""stimulus-container"">
                    <img src=""images/schematic_sequence/flight_scheme/flight_scheme_1.png"" class=""exp-image"">
                    <div class=""question-area"">
                        <p style=""font-size: 20px; font-weight: bold; margin: 0;"">Is there a person in this image?</p>
                    </div>
                </div>","null","main_experiment_trial","1","flight_scheme","schematic_sequence","","","",""
"","","","","","html-keyboard-response","19","88446","0.0-19.0","D9BFC3FB70D94AB5A094D9678DF71AFB","019cee76-d828-7622-b26b-55ee063dad7e","019cee5f-9f1f-7e58-80c1-9ba679249cc3","","null","
                <div class=""stimulus-container"">
                    <img src=""images/schematic_sequence/flight_scheme/flight_scheme_2.png"" class=""exp-image"">
                    <div class=""question-area""></div> 
                </div>","null","","","","","","","",""
"","","","","","html-button-response","20","89794","0.0-20.0","D9BFC3FB70D94AB5A094D9678DF71AFB","019cee76-d828-7622-b26b-55ee063dad7e","019cee5f-9f1f-7e58-80c1-9ba679249cc3","","1348","
                <div class=""stimulus-container"">
                    <img src=""images/schematic_sequence/flight_scheme/flight_scheme_2.png"" class=""exp-image"">
                    <div class=""question-area"">
                        <p style=""font-size: 20px; font-weight: bold; margin: 0;"">Is there a person in this image?</p>
                    </div>
                </div>","1","main_experiment_trial","2","flight_scheme","schematic_sequence","","","",""
"","","","","","html-keyboard-response","21","94806","0.0-21.0","D9BFC3FB70D94AB5A094D9678DF71AFB","019cee76-d828-7622-b26b-55ee063dad7e","019cee5f-9f1f-7e58-80c1-9ba679249cc3","","null","
                <div class=""stimulus-container"">
                    <img src=""images/schematic_sequence/flight_scheme/flight_scheme_3.png"" class=""exp-image"">
                    <div class=""question-area""></div> 
                </div>","null","","","","","","","",""
"","","","","","html-button-response","22","95675","0.0-22.0","D9BFC3FB70D94AB5A094D9678DF71AFB","019cee76-d828-7622-b26b-55ee063dad7e","019cee5f-9f1f-7e58-80c1-9ba679249cc3","","869","
                <div class=""stimulus-container"">
                    <img src=""images/schematic_sequence/flight_scheme/flight_scheme_3.png"" class=""exp-image"">
                    <div class=""question-area"">
                        <p style=""font-size: 20px; font-weight: bold; margin: 0;"">Is there a person in this image?</p>
                    </div>
                </div>","0","main_experiment_trial","3","flight_scheme","schematic_sequence","","","",""
"","","","","","html-keyboard-response","23","100691","0.0-23.0","D9BFC3FB70D94AB5A094D9678DF71AFB","019cee76-d828-7622-b26b-55ee063dad7e","019cee5f-9f1f-7e58-80c1-9ba679249cc3","","null","
                <div class=""stimulus-container"">
                    <img src=""images/schematic_sequence/flight_scheme/flight_scheme_4.png"" class=""exp-image"">
                    <div class=""question-area""></div> 
                </div>","null","","","","","","","",""
"","","","","","html-button-response","24","101613","0.0-24.0","D9BFC3FB70D94AB5A094D9678DF71AFB","019cee76-d828-7622-b26b-55ee063dad7e","019cee5f-9f1f-7e58-80c1-9ba679249cc3","","921","
                <div class=""stimulus-container"">
                    <img src=""images/schematic_sequence/flight_scheme/flight_scheme_4.png"" class=""exp-image"">
                    <div class=""question-area"">
                        <p style=""font-size: 20px; font-weight: bold; margin: 0;"">Is there a person in this image?</p>
                    </div>
                </div>","0","main_experiment_trial","4","flight_scheme","schematic_sequence","","","",""
"","","","","","html-keyboard-response","25","106623","0.0-25.0","D9BFC3FB70D94AB5A094D9678DF71AFB","019cee76-d828-7622-b26b-55ee063dad7e","019cee5f-9f1f-7e58-80c1-9ba679249cc3","","null","
                <div class=""stimulus-container"">
                    <img src=""images/schematic_sequence/flight_scheme/flight_scheme_5.png"" class=""exp-image"">
                    <div class=""question-area""></div> 
                </div>","null","","","","","","","",""
"","","","","","html-button-response","26","107662","0.0-26.0","D9BFC3FB70D94AB5A094D9678DF71AFB","019cee76-d828-7622-b26b-55ee063dad7e","019cee5f-9f1f-7e58-80c1-9ba679249cc3","","1038","
                <div class=""stimulus-container"">
                    <img src=""images/schematic_sequence/flight_scheme/flight_scheme_5.png"" class=""exp-image"">
                    <div class=""question-area"">
                        <p style=""font-size: 20px; font-weight: bold; margin: 0;"">Is there a person in this image?</p>
                    </div>
                </div>","0","main_experiment_trial","5","flight_scheme","schematic_sequence","","","",""
"","","","","","html-keyboard-response","27","112666","0.0-27.0","D9BFC3FB70D94AB5A094D9678DF71AFB","019cee76-d828-7622-b26b-55ee063dad7e","019cee5f-9f1f-7e58-80c1-9ba679249cc3","","null","
                <div class=""stimulus-container"">
                    <img src=""images/schematic_sequence/flight_scheme/flight_scheme_6.png"" class=""exp-image"">
                    <div class=""question-area""></div> 
                </div>","null","","","","","","","",""
"","","","","","html-button-response","28","113544","0.0-28.0","D9BFC3FB70D94AB5A094D9678DF71AFB","019cee76-d828-7622-b26b-55ee063dad7e","019cee5f-9f1f-7e58-80c1-9ba679249cc3","","877","
                <div class=""stimulus-container"">
                    <img src=""images/schematic_sequence/flight_scheme/flight_scheme_6.png"" class=""exp-image"">
                    <div class=""question-area"">
                        <p style=""font-size: 20px; font-weight: bold; margin: 0;"">Is there a person in this image?</p>
                    </div>
                </div>","1","main_experiment_trial","6","flight_scheme","schematic_sequence","","","",""
"","","","","","html-keyboard-response","29","118548","0.0-29.0","D9BFC3FB70D94AB5A094D9678DF71AFB","019cee76-d828-7622-b26b-55ee063dad7e","019cee5f-9f1f-7e58-80c1-9ba679249cc3","","null","
                <div class=""stimulus-container"">
                    <img src=""images/schematic_sequence/flight_scheme/flight_scheme_7.png"" class=""exp-image"">
                    <div class=""question-area""></div> 
                </div>","null","","","","","","","",""
"","","","","","html-button-response","30","119510","0.0-30.0","D9BFC3FB70D94AB5A094D9678DF71AFB","019cee76-d828-7622-b26b-55ee063dad7e","019cee5f-9f1f-7e58-80c1-9ba679249cc3","","961","
                <div class=""stimulus-container"">
                    <img src=""images/schematic_sequence/flight_scheme/flight_scheme_7.png"" class=""exp-image"">
                    <div class=""question-area"">
                        <p style=""font-size: 20px; font-weight: bold; margin: 0;"">Is there a person in this image?</p>
                    </div>
                </div>","1","main_experiment_trial","7","flight_scheme","schematic_sequence","","","",""
"","","","","","html-keyboard-response","31","124524","0.0-31.0","D9BFC3FB70D94AB5A094D9678DF71AFB","019cee76-d828-7622-b26b-55ee063dad7e","019cee5f-9f1f-7e58-80c1-9ba679249cc3","","null","
                <div class=""stimulus-container"">
                    <img src=""images/schematic_sequence/flight_scheme/flight_scheme_8.png"" class=""exp-image"">
                    <div class=""question-area""></div> 
                </div>","null","","","","","","","",""
"","","","","","html-button-response","32","125982","0.0-32.0","D9BFC3FB70D94AB5A094D9678DF71AFB","019cee76-d828-7622-b26b-55ee063dad7e","019cee5f-9f1f-7e58-80c1-9ba679249cc3","","1457","
                <div class=""stimulus-container"">
                    <img src=""images/schematic_sequence/flight_scheme/flight_scheme_8.png"" class=""exp-image"">
                    <div class=""question-area"">
                        <p style=""font-size: 20px; font-weight: bold; margin: 0;"">Is there a person in this image?</p>
                    </div>
                </div>","1","main_experiment_trial","8","flight_scheme","schematic_sequence","","","",""
"","","","","","html-keyboard-response","33","130991","0.0-33.0","D9BFC3FB70D94AB5A094D9678DF71AFB","019cee76-d828-7622-b26b-55ee063dad7e","019cee5f-9f1f-7e58-80c1-9ba679249cc3","","null","
                <div class=""stimulus-container"">
                    <img src=""images/schematic_sequence/flight_scheme/flight_scheme_9.png"" class=""exp-image"">
                    <div class=""question-area""></div> 
                </div>","null","","","","","","","",""
"","","","","","html-button-response","34","131995","0.0-34.0","D9BFC3FB70D94AB5A094D9678DF71AFB","019cee76-d828-7622-b26b-55ee063dad7e","019cee5f-9f1f-7e58-80c1-9ba679249cc3","","1003","
                <div class=""stimulus-container"">
                    <img src=""images/schematic_sequence/flight_scheme/flight_scheme_9.png"" class=""exp-image"">
                    <div class=""question-area"">
                        <p style=""font-size: 20px; font-weight: bold; margin: 0;"">Is there a person in this image?</p>
                    </div>
                </div>","0","main_experiment_trial","9","flight_scheme","schematic_sequence","","","",""
"","","","","","html-keyboard-response","35","137005","0.0-35.0","D9BFC3FB70D94AB5A094D9678DF71AFB","019cee76-d828-7622-b26b-55ee063dad7e","019cee5f-9f1f-7e58-80c1-9ba679249cc3","","null","
                <div class=""stimulus-container"">
                    <img src=""images/schematic_sequence/flight_scheme/flight_scheme_ten.png"" class=""exp-image"">
                    <div class=""question-area""></div> 
                </div>","null","","","","","","","",""
"","","","","","html-button-response","36","137843","0.0-36.0","D9BFC3FB70D94AB5A094D9678DF71AFB","019cee76-d828-7622-b26b-55ee063dad7e","019cee5f-9f1f-7e58-80c1-9ba679249cc3","","838","
                <div class=""stimulus-container"">
                    <img src=""images/schematic_sequence/flight_scheme/flight_scheme_ten.png"" class=""exp-image"">
                    <div class=""question-area"">
                        <p style=""font-size: 20px; font-weight: bold; margin: 0;"">Is there a person in this image?</p>
                    </div>
                </div>","0","main_experiment_trial","ten","flight_scheme","schematic_sequence","","","",""
"","","","","","html-keyboard-response","37","138851","0.0-37.0","D9BFC3FB70D94AB5A094D9678DF71AFB","019cee76-d828-7622-b26b-55ee063dad7e","019cee5f-9f1f-7e58-80c1-9ba679249cc3","","null","<div style=""background-color: white; width: 100vw; height: 100vh;""></div>","null","","","","","","","",""
"","","","","","html-keyboard-response","38","143853","0.0-38.0","D9BFC3FB70D94AB5A094D9678DF71AFB","019cee76-d828-7622-b26b-55ee063dad7e","019cee5f-9f1f-7e58-80c1-9ba679249cc3","","null","
                <div class=""stimulus-container"">
                    <img src=""images/causal_sequence/saving_a_cat_causal/saving_a_cat_causal_1.png"" class=""exp-image"">
                    <div class=""question-area""></div> 
                </div>","null","","","","","","","",""
"","","","","","html-button-response","39","145343","0.0-39.0","D9BFC3FB70D94AB5A094D9678DF71AFB","019cee76-d828-7622-b26b-55ee063dad7e","019cee5f-9f1f-7e58-80c1-9ba679249cc3","","1489","
                <div class=""stimulus-container"">
                    <img src=""images/causal_sequence/saving_a_cat_causal/saving_a_cat_causal_1.png"" class=""exp-image"">
                    <div class=""question-area"">
                        <p style=""font-size: 20px; font-weight: bold; margin: 0;"">Is there a person in this image?</p>
                    </div>
                </div>","0","main_experiment_trial","1","saving_a_cat_causal","causal_sequence","","","",""
"","","","","","html-keyboard-response","40","150349","0.0-40.0","D9BFC3FB70D94AB5A094D9678DF71AFB","019cee76-d828-7622-b26b-55ee063dad7e","019cee5f-9f1f-7e58-80c1-9ba679249cc3","","null","
                <div class=""stimulus-container"">
                    <img src=""images/causal_sequence/saving_a_cat_causal/saving_a_cat_causal_2.png"" class=""exp-image"">
                    <div class=""question-area""></div> 
                </div>","null","","","","","","","",""
"","","","","","html-button-response","41","151656","0.0-41.0","D9BFC3FB70D94AB5A094D9678DF71AFB","019cee76-d828-7622-b26b-55ee063dad7e","019cee5f-9f1f-7e58-80c1-9ba679249cc3","","1306","
                <div class=""stimulus-container"">
                    <img src=""images/causal_sequence/saving_a_cat_causal/saving_a_cat_causal_2.png"" class=""exp-image"">
                    <div class=""question-area"">
                        <p style=""font-size: 20px; font-weight: bold; margin: 0;"">Is there a person in this image?</p>
                    </div>
                </div>","1","main_experiment_trial","2","saving_a_cat_causal","causal_sequence","","","",""
"","","","","","html-keyboard-response","42","156658","0.0-42.0","D9BFC3FB70D94AB5A094D9678DF71AFB","019cee76-d828-7622-b26b-55ee063dad7e","019cee5f-9f1f-7e58-80c1-9ba679249cc3","","null","
                <div class=""stimulus-container"">
                    <img src=""images/causal_sequence/saving_a_cat_causal/saving_a_cat_causal_3.png"" class=""exp-image"">
                    <div class=""question-area""></div> 
                </div>","null","","","","","","","",""
"","","","","","html-button-response","43","157810","0.0-43.0","D9BFC3FB70D94AB5A094D9678DF71AFB","019cee76-d828-7622-b26b-55ee063dad7e","019cee5f-9f1f-7e58-80c1-9ba679249cc3","","1151","
                <div class=""stimulus-container"">
                    <img src=""images/causal_sequence/saving_a_cat_causal/saving_a_cat_causal_3.png"" class=""exp-image"">
                    <div class=""question-area"">
                        <p style=""font-size: 20px; font-weight: bold; margin: 0;"">Is there a person in this image?</p>
                    </div>
                </div>","1","main_experiment_trial","3","saving_a_cat_causal","causal_sequence","","","",""
"","","","","","html-keyboard-response","44","162824","0.0-44.0","D9BFC3FB70D94AB5A094D9678DF71AFB","019cee76-d828-7622-b26b-55ee063dad7e","019cee5f-9f1f-7e58-80c1-9ba679249cc3","","null","
                <div class=""stimulus-container"">
                    <img src=""images/causal_sequence/saving_a_cat_causal/saving_a_cat_causal_4.png"" class=""exp-image"">
                    <div class=""question-area""></div> 
                </div>","null","","","","","","","",""
"","","","","","html-button-response","45","163722","0.0-45.0","D9BFC3FB70D94AB5A094D9678DF71AFB","019cee76-d828-7622-b26b-55ee063dad7e","019cee5f-9f1f-7e58-80c1-9ba679249cc3","","897","
                <div class=""stimulus-container"">
                    <img src=""images/causal_sequence/saving_a_cat_causal/saving_a_cat_causal_4.png"" class=""exp-image"">
                    <div class=""question-area"">
                        <p style=""font-size: 20px; font-weight: bold; margin: 0;"">Is there a person in this image?</p>
                    </div>
                </div>","0","main_experiment_trial","4","saving_a_cat_causal","causal_sequence","","","",""
"","","","","","html-keyboard-response","46","168732","0.0-46.0","D9BFC3FB70D94AB5A094D9678DF71AFB","019cee76-d828-7622-b26b-55ee063dad7e","019cee5f-9f1f-7e58-80c1-9ba679249cc3","","null","
                <div class=""stimulus-container"">
                    <img src=""images/causal_sequence/saving_a_cat_causal/saving_a_cat_causal_5.png"" class=""exp-image"">
                    <div class=""question-area""></div> 
                </div>","null","","","","","","","",""
"","","","","","html-button-response","47","169868","0.0-47.0","D9BFC3FB70D94AB5A094D9678DF71AFB","019cee76-d828-7622-b26b-55ee063dad7e","019cee5f-9f1f-7e58-80c1-9ba679249cc3","","1135","
                <div class=""stimulus-container"">
                    <img src=""images/causal_sequence/saving_a_cat_causal/saving_a_cat_causal_5.png"" class=""exp-image"">
                    <div class=""question-area"">
                        <p style=""font-size: 20px; font-weight: bold; margin: 0;"">Is there a person in this image?</p>
                    </div>
                </div>","0","main_experiment_trial","5","saving_a_cat_causal","causal_sequence","","","",""
"","","","","","html-keyboard-response","48","174884","0.0-48.0","D9BFC3FB70D94AB5A094D9678DF71AFB","019cee76-d828-7622-b26b-55ee063dad7e","019cee5f-9f1f-7e58-80c1-9ba679249cc3","","null","
                <div class=""stimulus-container"">
                    <img src=""images/causal_sequence/saving_a_cat_causal/saving_a_cat_causal_6.png"" class=""exp-image"">
                    <div class=""question-area""></div> 
                </div>","null","","","","","","","",""
"","","","","","html-button-response","49","176125","0.0-49.0","D9BFC3FB70D94AB5A094D9678DF71AFB","019cee76-d828-7622-b26b-55ee063dad7e","019cee5f-9f1f-7e58-80c1-9ba679249cc3","","1241","
                <div class=""stimulus-container"">
                    <img src=""images/causal_sequence/saving_a_cat_causal/saving_a_cat_causal_6.png"" class=""exp-image"">
                    <div class=""question-area"">
                        <p style=""font-size: 20px; font-weight: bold; margin: 0;"">Is there a person in this image?</p>
                    </div>
                </div>","0","main_experiment_trial","6","saving_a_cat_causal","causal_sequence","","","",""
"","","","","","html-keyboard-response","50","181138","0.0-50.0","D9BFC3FB70D94AB5A094D9678DF71AFB","019cee76-d828-7622-b26b-55ee063dad7e","019cee5f-9f1f-7e58-80c1-9ba679249cc3","","null","
                <div class=""stimulus-container"">
                    <img src=""images/causal_sequence/saving_a_cat_causal/saving_a_cat_causal_7.png"" class=""exp-image"">
                    <div class=""question-area""></div> 
                </div>","null","","","","","","","",""
"","","","","","html-button-response","51","182383","0.0-51.0","D9BFC3FB70D94AB5A094D9678DF71AFB","019cee76-d828-7622-b26b-55ee063dad7e","019cee5f-9f1f-7e58-80c1-9ba679249cc3","","1244","
                <div class=""stimulus-container"">
                    <img src=""images/causal_sequence/saving_a_cat_causal/saving_a_cat_causal_7.png"" class=""exp-image"">
                    <div class=""question-area"">
                        <p style=""font-size: 20px; font-weight: bold; margin: 0;"">Is there a person in this image?</p>
                    </div>
                </div>","0","main_experiment_trial","7","saving_a_cat_causal","causal_sequence","","","",""
"","","","","","html-keyboard-response","52","187389","0.0-52.0","D9BFC3FB70D94AB5A094D9678DF71AFB","019cee76-d828-7622-b26b-55ee063dad7e","019cee5f-9f1f-7e58-80c1-9ba679249cc3","","null","
                <div class=""stimulus-container"">
                    <img src=""images/causal_sequence/saving_a_cat_causal/saving_a_cat_causal_8.png"" class=""exp-image"">
                    <div class=""question-area""></div> 
                </div>","null","","","","","","","",""
"","","","","","html-button-response","53","188294","0.0-53.0","D9BFC3FB70D94AB5A094D9678DF71AFB","019cee76-d828-7622-b26b-55ee063dad7e","019cee5f-9f1f-7e58-80c1-9ba679249cc3","","904","
                <div class=""stimulus-container"">
                    <img src=""images/causal_sequence/saving_a_cat_causal/saving_a_cat_causal_8.png"" class=""exp-image"">
                    <div class=""question-area"">
                        <p style=""font-size: 20px; font-weight: bold; margin: 0;"">Is there a person in this image?</p>
                    </div>
                </div>","0","main_experiment_trial","8","saving_a_cat_causal","causal_sequence","","","",""
"","","","","","html-keyboard-response","54","193301","0.0-54.0","D9BFC3FB70D94AB5A094D9678DF71AFB","019cee76-d828-7622-b26b-55ee063dad7e","019cee5f-9f1f-7e58-80c1-9ba679249cc3","","null","
                <div class=""stimulus-container"">
                    <img src=""images/causal_sequence/saving_a_cat_causal/saving_a_cat_causal_9.png"" class=""exp-image"">
                    <div class=""question-area""></div> 
                </div>","null","","","","","","","",""
"","","","","","html-button-response","55","194450","0.0-55.0","D9BFC3FB70D94AB5A094D9678DF71AFB","019cee76-d828-7622-b26b-55ee063dad7e","019cee5f-9f1f-7e58-80c1-9ba679249cc3","","1149","
                <div class=""stimulus-container"">
                    <img src=""images/causal_sequence/saving_a_cat_causal/saving_a_cat_causal_9.png"" class=""exp-image"">
                    <div class=""question-area"">
                        <p style=""font-size: 20px; font-weight: bold; margin: 0;"">Is there a person in this image?</p>
                    </div>
                </div>","0","main_experiment_trial","9","saving_a_cat_causal","causal_sequence","","","",""
"","","","","","html-keyboard-response","56","199456","0.0-56.0","D9BFC3FB70D94AB5A094D9678DF71AFB","019cee76-d828-7622-b26b-55ee063dad7e","019cee5f-9f1f-7e58-80c1-9ba679249cc3","","null","
                <div class=""stimulus-container"">
                    <img src=""images/causal_sequence/saving_a_cat_causal/saving_a_cat_causal_ten.png"" class=""exp-image"">
                    <div class=""question-area""></div> 
                </div>","null","","","","","","","",""
"","","","","","html-button-response","57","200554","0.0-57.0","D9BFC3FB70D94AB5A094D9678DF71AFB","019cee76-d828-7622-b26b-55ee063dad7e","019cee5f-9f1f-7e58-80c1-9ba679249cc3","","1098","
                <div class=""stimulus-container"">
                    <img src=""images/causal_sequence/saving_a_cat_causal/saving_a_cat_causal_ten.png"" class=""exp-image"">
                    <div class=""question-area"">
                        <p style=""font-size: 20px; font-weight: bold; margin: 0;"">Is there a person in this image?</p>
                    </div>
                </div>","0","main_experiment_trial","ten","saving_a_cat_causal","causal_sequence","","","",""
"","","","","","html-keyboard-response","58","201569","0.0-58.0","D9BFC3FB70D94AB5A094D9678DF71AFB","019cee76-d828-7622-b26b-55ee063dad7e","019cee5f-9f1f-7e58-80c1-9ba679249cc3","","null","<div style=""background-color: white; width: 100vw; height: 100vh;""></div>","null","","","","","","","",""
"","","","","","html-keyboard-response","59","206585","0.0-59.0","D9BFC3FB70D94AB5A094D9678DF71AFB","019cee76-d828-7622-b26b-55ee063dad7e","019cee5f-9f1f-7e58-80c1-9ba679249cc3","","null","
                <div class=""stimulus-container"">
                    <img src=""images/schematic_sequence/restaurant_scheme/restaurant_scheme_1.png"" class=""exp-image"">
                    <div class=""question-area""></div> 
                </div>","null","","","","","","","",""
"","","","","","html-button-response","60","207873","0.0-60.0","D9BFC3FB70D94AB5A094D9678DF71AFB","019cee76-d828-7622-b26b-55ee063dad7e","019cee5f-9f1f-7e58-80c1-9ba679249cc3","","1287","
                <div class=""stimulus-container"">
                    <img src=""images/schematic_sequence/restaurant_scheme/restaurant_scheme_1.png"" class=""exp-image"">
                    <div class=""question-area"">
                        <p style=""font-size: 20px; font-weight: bold; margin: 0;"">Is there a person in this image?</p>
                    </div>
                </div>","0","main_experiment_trial","1","restaurant_scheme","schematic_sequence","","","",""
"","","","","","html-keyboard-response","61","212881","0.0-61.0","D9BFC3FB70D94AB5A094D9678DF71AFB","019cee76-d828-7622-b26b-55ee063dad7e","019cee5f-9f1f-7e58-80c1-9ba679249cc3","","null","
                <div class=""stimulus-container"">
                    <img src=""images/schematic_sequence/restaurant_scheme/restaurant_scheme_2.png"" class=""exp-image"">
                    <div class=""question-area""></div> 
                </div>","null","","","","","","","",""
"","","","","","html-button-response","62","213937","0.0-62.0","D9BFC3FB70D94AB5A094D9678DF71AFB","019cee76-d828-7622-b26b-55ee063dad7e","019cee5f-9f1f-7e58-80c1-9ba679249cc3","","1055","
                <div class=""stimulus-container"">
                    <img src=""images/schematic_sequence/restaurant_scheme/restaurant_scheme_2.png"" class=""exp-image"">
                    <div class=""question-area"">
                        <p style=""font-size: 20px; font-weight: bold; margin: 0;"">Is there a person in this image?</p>
                    </div>
                </div>","1","main_experiment_trial","2","restaurant_scheme","schematic_sequence","","","",""
"","","","","","html-keyboard-response","63","218946","0.0-63.0","D9BFC3FB70D94AB5A094D9678DF71AFB","019cee76-d828-7622-b26b-55ee063dad7e","019cee5f-9f1f-7e58-80c1-9ba679249cc3","","null","
                <div class=""stimulus-container"">
                    <img src=""images/schematic_sequence/restaurant_scheme/restaurant_scheme_3.png"" class=""exp-image"">
                    <div class=""question-area""></div> 
                </div>","null","","","","","","","",""
"","","","","","html-button-response","64","220067","0.0-64.0","D9BFC3FB70D94AB5A094D9678DF71AFB","019cee76-d828-7622-b26b-55ee063dad7e","019cee5f-9f1f-7e58-80c1-9ba679249cc3","","1121","
                <div class=""stimulus-container"">
                    <img src=""images/schematic_sequence/restaurant_scheme/restaurant_scheme_3.png"" class=""exp-image"">
                    <div class=""question-area"">
                        <p style=""font-size: 20px; font-weight: bold; margin: 0;"">Is there a person in this image?</p>
                    </div>
                </div>","1","main_experiment_trial","3","restaurant_scheme","schematic_sequence","","","",""
"","","","","","html-keyboard-response","65","225071","0.0-65.0","D9BFC3FB70D94AB5A094D9678DF71AFB","019cee76-d828-7622-b26b-55ee063dad7e","019cee5f-9f1f-7e58-80c1-9ba679249cc3","","null","
                <div class=""stimulus-container"">
                    <img src=""images/schematic_sequence/restaurant_scheme/restaurant_scheme_4.png"" class=""exp-image"">
                    <div class=""question-area""></div> 
                </div>","null","","","","","","","",""
"","","","","","html-button-response","66","225979","0.0-66.0","D9BFC3FB70D94AB5A094D9678DF71AFB","019cee76-d828-7622-b26b-55ee063dad7e","019cee5f-9f1f-7e58-80c1-9ba679249cc3","","907","
                <div class=""stimulus-container"">
                    <img src=""images/schematic_sequence/restaurant_scheme/restaurant_scheme_4.png"" class=""exp-image"">
                    <div class=""question-area"">
                        <p style=""font-size: 20px; font-weight: bold; margin: 0;"">Is there a person in this image?</p>
                    </div>
                </div>","0","main_experiment_trial","4","restaurant_scheme","schematic_sequence","","","",""
"","","","","","html-keyboard-response","67","230990","0.0-67.0","D9BFC3FB70D94AB5A094D9678DF71AFB","019cee76-d828-7622-b26b-55ee063dad7e","019cee5f-9f1f-7e58-80c1-9ba679249cc3","","null","
                <div class=""stimulus-container"">
                    <img src=""images/schematic_sequence/restaurant_scheme/restaurant_scheme_5.png"" class=""exp-image"">
                    <div class=""question-area""></div> 
                </div>","null","","","","","","","",""
"","","","","","html-button-response","68","231959","0.0-68.0","D9BFC3FB70D94AB5A094D9678DF71AFB","019cee76-d828-7622-b26b-55ee063dad7e","019cee5f-9f1f-7e58-80c1-9ba679249cc3","","968","
                <div class=""stimulus-container"">
                    <img src=""images/schematic_sequence/restaurant_scheme/restaurant_scheme_5.png"" class=""exp-image"">
                    <div class=""question-area"">
                        <p style=""font-size: 20px; font-weight: bold; margin: 0;"">Is there a person in this image?</p>
                    </div>
                </div>","0","main_experiment_trial","5","restaurant_scheme","schematic_sequence","","","",""
"","","","","","html-keyboard-response","69","236969","0.0-69.0","D9BFC3FB70D94AB5A094D9678DF71AFB","019cee76-d828-7622-b26b-55ee063dad7e","019cee5f-9f1f-7e58-80c1-9ba679249cc3","","null","
                <div class=""stimulus-container"">
                    <img src=""images/schematic_sequence/restaurant_scheme/restaurant_scheme_6.png"" class=""exp-image"">
                    <div class=""question-area""></div> 
                </div>","null","","","","","","","",""
"","","","","","html-button-response","70","238119","0.0-70.0","D9BFC3FB70D94AB5A094D9678DF71AFB","019cee76-d828-7622-b26b-55ee063dad7e","019cee5f-9f1f-7e58-80c1-9ba679249cc3","","1149","
                <div class=""stimulus-container"">
                    <img src=""images/schematic_sequence/restaurant_scheme/restaurant_scheme_6.png"" class=""exp-image"">
                    <div class=""question-area"">
                        <p style=""font-size: 20px; font-weight: bold; margin: 0;"">Is there a person in this image?</p>
                    </div>
                </div>","1","main_experiment_trial","6","restaurant_scheme","schematic_sequence","","","",""
"","","","","","html-keyboard-response","71","243128","0.0-71.0","D9BFC3FB70D94AB5A094D9678DF71AFB","019cee76-d828-7622-b26b-55ee063dad7e","019cee5f-9f1f-7e58-80c1-9ba679249cc3","","null","
                <div class=""stimulus-container"">
                    <img src=""images/schematic_sequence/restaurant_scheme/restaurant_scheme_7.png"" class=""exp-image"">
                    <div class=""question-area""></div> 
                </div>","null","","","","","","","",""
"","","","","","html-button-response","72","244557","0.0-72.0","D9BFC3FB70D94AB5A094D9678DF71AFB","019cee76-d828-7622-b26b-55ee063dad7e","019cee5f-9f1f-7e58-80c1-9ba679249cc3","","1428","
                <div class=""stimulus-container"">
                    <img src=""images/schematic_sequence/restaurant_scheme/restaurant_scheme_7.png"" class=""exp-image"">
                    <div class=""question-area"">
                        <p style=""font-size: 20px; font-weight: bold; margin: 0;"">Is there a person in this image?</p>
                    </div>
                </div>","1","main_experiment_trial","7","restaurant_scheme","schematic_sequence","","","",""
"","","","","","html-keyboard-response","73","249558","0.0-73.0","D9BFC3FB70D94AB5A094D9678DF71AFB","019cee76-d828-7622-b26b-55ee063dad7e","019cee5f-9f1f-7e58-80c1-9ba679249cc3","","null","
                <div class=""stimulus-container"">
                    <img src=""images/schematic_sequence/restaurant_scheme/restaurant_scheme_8.png"" class=""exp-image"">
                    <div class=""question-area""></div> 
                </div>","null","","","","","","","",""
"","","","","","html-button-response","74","251446","0.0-74.0","D9BFC3FB70D94AB5A094D9678DF71AFB","019cee76-d828-7622-b26b-55ee063dad7e","019cee5f-9f1f-7e58-80c1-9ba679249cc3","","1888","
                <div class=""stimulus-container"">
                    <img src=""images/schematic_sequence/restaurant_scheme/restaurant_scheme_8.png"" class=""exp-image"">
                    <div class=""question-area"">
                        <p style=""font-size: 20px; font-weight: bold; margin: 0;"">Is there a person in this image?</p>
                    </div>
                </div>","0","main_experiment_trial","8","restaurant_scheme","schematic_sequence","","","",""
"","","","","","html-keyboard-response","75","256456","0.0-75.0","D9BFC3FB70D94AB5A094D9678DF71AFB","019cee76-d828-7622-b26b-55ee063dad7e","019cee5f-9f1f-7e58-80c1-9ba679249cc3","","null","
                <div class=""stimulus-container"">
                    <img src=""images/schematic_sequence/restaurant_scheme/restaurant_scheme_9.png"" class=""exp-image"">
                    <div class=""question-area""></div> 
                </div>","null","","","","","","","",""
"","","","","","html-button-response","76","257810","0.0-76.0","D9BFC3FB70D94AB5A094D9678DF71AFB","019cee76-d828-7622-b26b-55ee063dad7e","019cee5f-9f1f-7e58-80c1-9ba679249cc3","","1353","
                <div class=""stimulus-container"">
                    <img src=""images/schematic_sequence/restaurant_scheme/restaurant_scheme_9.png"" class=""exp-image"">
                    <div class=""question-area"">
                        <p style=""font-size: 20px; font-weight: bold; margin: 0;"">Is there a person in this image?</p>
                    </div>
                </div>","0","main_experiment_trial","9","restaurant_scheme","schematic_sequence","","","",""
"","","","","","html-keyboard-response","77","262816","0.0-77.0","D9BFC3FB70D94AB5A094D9678DF71AFB","019cee76-d828-7622-b26b-55ee063dad7e","019cee5f-9f1f-7e58-80c1-9ba679249cc3","","null","
                <div class=""stimulus-container"">
                    <img src=""images/schematic_sequence/restaurant_scheme/restaurant_scheme_ten.png"" class=""exp-image"">
                    <div class=""question-area""></div> 
                </div>","null","","","","","","","",""
"","","","","","html-button-response","78","264232","0.0-78.0","D9BFC3FB70D94AB5A094D9678DF71AFB","019cee76-d828-7622-b26b-55ee063dad7e","019cee5f-9f1f-7e58-80c1-9ba679249cc3","","1416","
                <div class=""stimulus-container"">
                    <img src=""images/schematic_sequence/restaurant_scheme/restaurant_scheme_ten.png"" class=""exp-image"">
                    <div class=""question-area"">
                        <p style=""font-size: 20px; font-weight: bold; margin: 0;"">Is there a person in this image?</p>
                    </div>
                </div>","0","main_experiment_trial","ten","restaurant_scheme","schematic_sequence","","","",""
"","","","","","html-keyboard-response","79","265246","0.0-79.0","D9BFC3FB70D94AB5A094D9678DF71AFB","019cee76-d828-7622-b26b-55ee063dad7e","019cee5f-9f1f-7e58-80c1-9ba679249cc3","","null","<div style=""background-color: white; width: 100vw; height: 100vh;""></div>","null","","","","","","","",""
"","","","","","html-keyboard-response","80","270249","0.0-80.0","D9BFC3FB70D94AB5A094D9678DF71AFB","019cee76-d828-7622-b26b-55ee063dad7e","019cee5f-9f1f-7e58-80c1-9ba679249cc3","","null","
                <div class=""stimulus-container"">
                    <img src=""images/schematic_sequence/dinner_party_scheme/dinner_party_scheme_1.png"" class=""exp-image"">
                    <div class=""question-area""></div> 
                </div>","null","","","","","","","",""
"","","","","","html-button-response","81","271939","0.0-81.0","D9BFC3FB70D94AB5A094D9678DF71AFB","019cee76-d828-7622-b26b-55ee063dad7e","019cee5f-9f1f-7e58-80c1-9ba679249cc3","","1689","
                <div class=""stimulus-container"">
                    <img src=""images/schematic_sequence/dinner_party_scheme/dinner_party_scheme_1.png"" class=""exp-image"">
                    <div class=""question-area"">
                        <p style=""font-size: 20px; font-weight: bold; margin: 0;"">Is there a person in this image?</p>
                    </div>
                </div>","0","main_experiment_trial","1","dinner_party_scheme","schematic_sequence","","","",""
"","","","","","html-keyboard-response","82","276942","0.0-82.0","D9BFC3FB70D94AB5A094D9678DF71AFB","019cee76-d828-7622-b26b-55ee063dad7e","019cee5f-9f1f-7e58-80c1-9ba679249cc3","","null","
                <div class=""stimulus-container"">
                    <img src=""images/schematic_sequence/dinner_party_scheme/dinner_party_scheme_2.png"" class=""exp-image"">
                    <div class=""question-area""></div> 
                </div>","null","","","","","","","",""
"","","","","","html-button-response","83","278299","0.0-83.0","D9BFC3FB70D94AB5A094D9678DF71AFB","019cee76-d828-7622-b26b-55ee063dad7e","019cee5f-9f1f-7e58-80c1-9ba679249cc3","","1356","
                <div class=""stimulus-container"">
                    <img src=""images/schematic_sequence/dinner_party_scheme/dinner_party_scheme_2.png"" class=""exp-image"">
                    <div class=""question-area"">
                        <p style=""font-size: 20px; font-weight: bold; margin: 0;"">Is there a person in this image?</p>
                    </div>
                </div>","0","main_experiment_trial","2","dinner_party_scheme","schematic_sequence","","","",""
"","","","","","html-keyboard-response","84","283301","0.0-84.0","D9BFC3FB70D94AB5A094D9678DF71AFB","019cee76-d828-7622-b26b-55ee063dad7e","019cee5f-9f1f-7e58-80c1-9ba679249cc3","","null","
                <div class=""stimulus-container"">
                    <img src=""images/schematic_sequence/dinner_party_scheme/dinner_party_scheme_3.png"" class=""exp-image"">
                    <div class=""question-area""></div> 
                </div>","null","","","","","","","",""
"","","","","","html-button-response","85","284806","0.0-85.0","D9BFC3FB70D94AB5A094D9678DF71AFB","019cee76-d828-7622-b26b-55ee063dad7e","019cee5f-9f1f-7e58-80c1-9ba679249cc3","","1505","
                <div class=""stimulus-container"">
                    <img src=""images/schematic_sequence/dinner_party_scheme/dinner_party_scheme_3.png"" class=""exp-image"">
                    <div class=""question-area"">
                        <p style=""font-size: 20px; font-weight: bold; margin: 0;"">Is there a person in this image?</p>
                    </div>
                </div>","0","main_experiment_trial","3","dinner_party_scheme","schematic_sequence","","","",""
"","","","","","html-keyboard-response","86","289813","0.0-86.0","D9BFC3FB70D94AB5A094D9678DF71AFB","019cee76-d828-7622-b26b-55ee063dad7e","019cee5f-9f1f-7e58-80c1-9ba679249cc3","","null","
                <div class=""stimulus-container"">
                    <img src=""images/schematic_sequence/dinner_party_scheme/dinner_party_scheme_4.png"" class=""exp-image"">
                    <div class=""question-area""></div> 
                </div>","null","","","","","","","",""
"","","","","","html-button-response","87","290834","0.0-87.0","D9BFC3FB70D94AB5A094D9678DF71AFB","019cee76-d828-7622-b26b-55ee063dad7e","019cee5f-9f1f-7e58-80c1-9ba679249cc3","","1021","
                <div class=""stimulus-container"">
                    <img src=""images/schematic_sequence/dinner_party_scheme/dinner_party_scheme_4.png"" class=""exp-image"">
                    <div class=""question-area"">
                        <p style=""font-size: 20px; font-weight: bold; margin: 0;"">Is there a person in this image?</p>
                    </div>
                </div>","0","main_experiment_trial","4","dinner_party_scheme","schematic_sequence","","","",""
"","","","","","html-keyboard-response","88","295838","0.0-88.0","D9BFC3FB70D94AB5A094D9678DF71AFB","019cee76-d828-7622-b26b-55ee063dad7e","019cee5f-9f1f-7e58-80c1-9ba679249cc3","","null","
                <div class=""stimulus-container"">
                    <img src=""images/schematic_sequence/dinner_party_scheme/dinner_party_scheme_5.png"" class=""exp-image"">
                    <div class=""question-area""></div> 
                </div>","null","","","","","","","",""
"","","","","","html-button-response","89","297048","0.0-89.0","D9BFC3FB70D94AB5A094D9678DF71AFB","019cee76-d828-7622-b26b-55ee063dad7e","019cee5f-9f1f-7e58-80c1-9ba679249cc3","","1210","
                <div class=""stimulus-container"">
                    <img src=""images/schematic_sequence/dinner_party_scheme/dinner_party_scheme_5.png"" class=""exp-image"">
                    <div class=""question-area"">
                        <p style=""font-size: 20px; font-weight: bold; margin: 0;"">Is there a person in this image?</p>
                    </div>
                </div>","0","main_experiment_trial","5","dinner_party_scheme","schematic_sequence","","","",""
"","","","","","html-keyboard-response","90","302058","0.0-90.0","D9BFC3FB70D94AB5A094D9678DF71AFB","019cee76-d828-7622-b26b-55ee063dad7e","019cee5f-9f1f-7e58-80c1-9ba679249cc3","","null","
                <div class=""stimulus-container"">
                    <img src=""images/schematic_sequence/dinner_party_scheme/dinner_party_scheme_6.png"" class=""exp-image"">
                    <div class=""question-area""></div> 
                </div>","null","","","","","","","",""
"","","","","","html-button-response","91","303126","0.0-91.0","D9BFC3FB70D94AB5A094D9678DF71AFB","019cee76-d828-7622-b26b-55ee063dad7e","019cee5f-9f1f-7e58-80c1-9ba679249cc3","","1068","
                <div class=""stimulus-container"">
                    <img src=""images/schematic_sequence/dinner_party_scheme/dinner_party_scheme_6.png"" class=""exp-image"">
                    <div class=""question-area"">
                        <p style=""font-size: 20px; font-weight: bold; margin: 0;"">Is there a person in this image?</p>
                    </div>
                </div>","0","main_experiment_trial","6","dinner_party_scheme","schematic_sequence","","","",""
"","","","","","html-keyboard-response","92","308137","0.0-92.0","D9BFC3FB70D94AB5A094D9678DF71AFB","019cee76-d828-7622-b26b-55ee063dad7e","019cee5f-9f1f-7e58-80c1-9ba679249cc3","","null","
                <div class=""stimulus-container"">
                    <img src=""images/schematic_sequence/dinner_party_scheme/dinner_party_scheme_7.png"" class=""exp-image"">
                    <div class=""question-area""></div> 
                </div>","null","","","","","","","",""
"","","","","","html-button-response","93","309480","0.0-93.0","D9BFC3FB70D94AB5A094D9678DF71AFB","019cee76-d828-7622-b26b-55ee063dad7e","019cee5f-9f1f-7e58-80c1-9ba679249cc3","","1342","
                <div class=""stimulus-container"">
                    <img src=""images/schematic_sequence/dinner_party_scheme/dinner_party_scheme_7.png"" class=""exp-image"">
                    <div class=""question-area"">
                        <p style=""font-size: 20px; font-weight: bold; margin: 0;"">Is there a person in this image?</p>
                    </div>
                </div>","0","main_experiment_trial","7","dinner_party_scheme","schematic_sequence","","","",""
"","","","","","html-keyboard-response","94","314493","0.0-94.0","D9BFC3FB70D94AB5A094D9678DF71AFB","019cee76-d828-7622-b26b-55ee063dad7e","019cee5f-9f1f-7e58-80c1-9ba679249cc3","","null","
                <div class=""stimulus-container"">
                    <img src=""images/schematic_sequence/dinner_party_scheme/dinner_party_scheme_8.png"" class=""exp-image"">
                    <div class=""question-area""></div> 
                </div>","null","","","","","","","",""
"","","","","","html-button-response","95","315650","0.0-95.0","D9BFC3FB70D94AB5A094D9678DF71AFB","019cee76-d828-7622-b26b-55ee063dad7e","019cee5f-9f1f-7e58-80c1-9ba679249cc3","","1156","
                <div class=""stimulus-container"">
                    <img src=""images/schematic_sequence/dinner_party_scheme/dinner_party_scheme_8.png"" class=""exp-image"">
                    <div class=""question-area"">
                        <p style=""font-size: 20px; font-weight: bold; margin: 0;"">Is there a person in this image?</p>
                    </div>
                </div>","0","main_experiment_trial","8","dinner_party_scheme","schematic_sequence","","","",""
"","","","","","html-keyboard-response","96","320666","0.0-96.0","D9BFC3FB70D94AB5A094D9678DF71AFB","019cee76-d828-7622-b26b-55ee063dad7e","019cee5f-9f1f-7e58-80c1-9ba679249cc3","","null","
                <div class=""stimulus-container"">
                    <img src=""images/schematic_sequence/dinner_party_scheme/dinner_party_scheme_9.png"" class=""exp-image"">
                    <div class=""question-area""></div> 
                </div>","null","","","","","","","",""
"","","","","","html-button-response","97","321591","0.0-97.0","D9BFC3FB70D94AB5A094D9678DF71AFB","019cee76-d828-7622-b26b-55ee063dad7e","019cee5f-9f1f-7e58-80c1-9ba679249cc3","","924","
                <div class=""stimulus-container"">
                    <img src=""images/schematic_sequence/dinner_party_scheme/dinner_party_scheme_9.png"" class=""exp-image"">
                    <div class=""question-area"">
                        <p style=""font-size: 20px; font-weight: bold; margin: 0;"">Is there a person in this image?</p>
                    </div>
                </div>","0","main_experiment_trial","9","dinner_party_scheme","schematic_sequence","","","",""
"","","","","","html-keyboard-response","98","326605","0.0-98.0","D9BFC3FB70D94AB5A094D9678DF71AFB","019cee76-d828-7622-b26b-55ee063dad7e","019cee5f-9f1f-7e58-80c1-9ba679249cc3","","null","
                <div class=""stimulus-container"">
                    <img src=""images/schematic_sequence/dinner_party_scheme/dinner_party_scheme_ten.png"" class=""exp-image"">
                    <div class=""question-area""></div> 
                </div>","null","","","","","","","",""
"","","","","","html-button-response","99","328206","0.0-99.0","D9BFC3FB70D94AB5A094D9678DF71AFB","019cee76-d828-7622-b26b-55ee063dad7e","019cee5f-9f1f-7e58-80c1-9ba679249cc3","","1601","
                <div class=""stimulus-container"">
                    <img src=""images/schematic_sequence/dinner_party_scheme/dinner_party_scheme_ten.png"" class=""exp-image"">
                    <div class=""question-area"">
                        <p style=""font-size: 20px; font-weight: bold; margin: 0;"">Is there a person in this image?</p>
                    </div>
                </div>","0","main_experiment_trial","ten","dinner_party_scheme","schematic_sequence","","","",""
"","","","","","html-keyboard-response","100","329217","0.0-100.0","D9BFC3FB70D94AB5A094D9678DF71AFB","019cee76-d828-7622-b26b-55ee063dad7e","019cee5f-9f1f-7e58-80c1-9ba679249cc3","","null","<div style=""background-color: white; width: 100vw; height: 100vh;""></div>","null","","","","","","","",""
"","","","","","html-keyboard-response","101","334226","0.0-101.0","D9BFC3FB70D94AB5A094D9678DF71AFB","019cee76-d828-7622-b26b-55ee063dad7e","019cee5f-9f1f-7e58-80c1-9ba679249cc3","","null","
                <div class=""stimulus-container"">
                    <img src=""images/causal_sequence/package_causal/package_causal_1.png"" class=""exp-image"">
                    <div class=""question-area""></div> 
                </div>","null","","","","","","","",""
"","","","","","html-button-response","102","335503","0.0-102.0","D9BFC3FB70D94AB5A094D9678DF71AFB","019cee76-d828-7622-b26b-55ee063dad7e","019cee5f-9f1f-7e58-80c1-9ba679249cc3","","1276","
                <div class=""stimulus-container"">
                    <img src=""images/causal_sequence/package_causal/package_causal_1.png"" class=""exp-image"">
                    <div class=""question-area"">
                        <p style=""font-size: 20px; font-weight: bold; margin: 0;"">Is there a person in this image?</p>
                    </div>
                </div>","0","main_experiment_trial","1","package_causal","causal_sequence","","","",""
"","","","","","html-keyboard-response","103","340504","0.0-103.0","D9BFC3FB70D94AB5A094D9678DF71AFB","019cee76-d828-7622-b26b-55ee063dad7e","019cee5f-9f1f-7e58-80c1-9ba679249cc3","","null","
                <div class=""stimulus-container"">
                    <img src=""images/causal_sequence/package_causal/package_causal_2.png"" class=""exp-image"">
                    <div class=""question-area""></div> 
                </div>","null","","","","","","","",""
"","","","","","html-button-response","104","341731","0.0-104.0","D9BFC3FB70D94AB5A094D9678DF71AFB","019cee76-d828-7622-b26b-55ee063dad7e","019cee5f-9f1f-7e58-80c1-9ba679249cc3","","1227","
                <div class=""stimulus-container"">
                    <img src=""images/causal_sequence/package_causal/package_causal_2.png"" class=""exp-image"">
                    <div class=""question-area"">
                        <p style=""font-size: 20px; font-weight: bold; margin: 0;"">Is there a person in this image?</p>
                    </div>
                </div>","0","main_experiment_trial","2","package_causal","causal_sequence","","","",""
"","","","","","html-keyboard-response","105","346737","0.0-105.0","D9BFC3FB70D94AB5A094D9678DF71AFB","019cee76-d828-7622-b26b-55ee063dad7e","019cee5f-9f1f-7e58-80c1-9ba679249cc3","","null","
                <div class=""stimulus-container"">
                    <img src=""images/causal_sequence/package_causal/package_causal_3.png"" class=""exp-image"">
                    <div class=""question-area""></div> 
                </div>","null","","","","","","","",""
"","","","","","html-button-response","106","347852","0.0-106.0","D9BFC3FB70D94AB5A094D9678DF71AFB","019cee76-d828-7622-b26b-55ee063dad7e","019cee5f-9f1f-7e58-80c1-9ba679249cc3","","1114","
                <div class=""stimulus-container"">
                    <img src=""images/causal_sequence/package_causal/package_causal_3.png"" class=""exp-image"">
                    <div class=""question-area"">
                        <p style=""font-size: 20px; font-weight: bold; margin: 0;"">Is there a person in this image?</p>
                    </div>
                </div>","0","main_experiment_trial","3","package_causal","causal_sequence","","","",""
"","","","","","html-keyboard-response","107","352860","0.0-107.0","D9BFC3FB70D94AB5A094D9678DF71AFB","019cee76-d828-7622-b26b-55ee063dad7e","019cee5f-9f1f-7e58-80c1-9ba679249cc3","","null","
                <div class=""stimulus-container"">
                    <img src=""images/causal_sequence/package_causal/package_causal_4.png"" class=""exp-image"">
                    <div class=""question-area""></div> 
                </div>","null","","","","","","","",""
"","","","","","html-button-response","108","354284","0.0-108.0","D9BFC3FB70D94AB5A094D9678DF71AFB","019cee76-d828-7622-b26b-55ee063dad7e","019cee5f-9f1f-7e58-80c1-9ba679249cc3","","1424","
                <div class=""stimulus-container"">
                    <img src=""images/causal_sequence/package_causal/package_causal_4.png"" class=""exp-image"">
                    <div class=""question-area"">
                        <p style=""font-size: 20px; font-weight: bold; margin: 0;"">Is there a person in this image?</p>
                    </div>
                </div>","1","main_experiment_trial","4","package_causal","causal_sequence","","","",""
"","","","","","html-keyboard-response","109","359287","0.0-109.0","D9BFC3FB70D94AB5A094D9678DF71AFB","019cee76-d828-7622-b26b-55ee063dad7e","019cee5f-9f1f-7e58-80c1-9ba679249cc3","","null","
                <div class=""stimulus-container"">
                    <img src=""images/causal_sequence/package_causal/package_causal_5.png"" class=""exp-image"">
                    <div class=""question-area""></div> 
                </div>","null","","","","","","","",""
"","","","","","html-button-response","110","360650","0.0-110.0","D9BFC3FB70D94AB5A094D9678DF71AFB","019cee76-d828-7622-b26b-55ee063dad7e","019cee5f-9f1f-7e58-80c1-9ba679249cc3","","1362","
                <div class=""stimulus-container"">
                    <img src=""images/causal_sequence/package_causal/package_causal_5.png"" class=""exp-image"">
                    <div class=""question-area"">
                        <p style=""font-size: 20px; font-weight: bold; margin: 0;"">Is there a person in this image?</p>
                    </div>
                </div>","0","main_experiment_trial","5","package_causal","causal_sequence","","","",""
"","","","","","html-keyboard-response","111","365653","0.0-111.0","D9BFC3FB70D94AB5A094D9678DF71AFB","019cee76-d828-7622-b26b-55ee063dad7e","019cee5f-9f1f-7e58-80c1-9ba679249cc3","","null","
                <div class=""stimulus-container"">
                    <img src=""images/causal_sequence/package_causal/package_causal_6.png"" class=""exp-image"">
                    <div class=""question-area""></div> 
                </div>","null","","","","","","","",""
"","","","","","html-button-response","112","367732","0.0-112.0","D9BFC3FB70D94AB5A094D9678DF71AFB","019cee76-d828-7622-b26b-55ee063dad7e","019cee5f-9f1f-7e58-80c1-9ba679249cc3","","2078","
                <div class=""stimulus-container"">
                    <img src=""images/causal_sequence/package_causal/package_causal_6.png"" class=""exp-image"">
                    <div class=""question-area"">
                        <p style=""font-size: 20px; font-weight: bold; margin: 0;"">Is there a person in this image?</p>
                    </div>
                </div>","0","main_experiment_trial","6","package_causal","causal_sequence","","","",""
"","","","","","html-keyboard-response","113","372747","0.0-113.0","D9BFC3FB70D94AB5A094D9678DF71AFB","019cee76-d828-7622-b26b-55ee063dad7e","019cee5f-9f1f-7e58-80c1-9ba679249cc3","","null","
                <div class=""stimulus-container"">
                    <img src=""images/causal_sequence/package_causal/package_causal_7.png"" class=""exp-image"">
                    <div class=""question-area""></div> 
                </div>","null","","","","","","","",""
"","","","","","html-button-response","114","375404","0.0-114.0","D9BFC3FB70D94AB5A094D9678DF71AFB","019cee76-d828-7622-b26b-55ee063dad7e","019cee5f-9f1f-7e58-80c1-9ba679249cc3","","2656","
                <div class=""stimulus-container"">
                    <img src=""images/causal_sequence/package_causal/package_causal_7.png"" class=""exp-image"">
                    <div class=""question-area"">
                        <p style=""font-size: 20px; font-weight: bold; margin: 0;"">Is there a person in this image?</p>
                    </div>
                </div>","0","main_experiment_trial","7","package_causal","causal_sequence","","","",""
"","","","","","html-keyboard-response","115","380407","0.0-115.0","D9BFC3FB70D94AB5A094D9678DF71AFB","019cee76-d828-7622-b26b-55ee063dad7e","019cee5f-9f1f-7e58-80c1-9ba679249cc3","","null","
                <div class=""stimulus-container"">
                    <img src=""images/causal_sequence/package_causal/package_causal_8.png"" class=""exp-image"">
                    <div class=""question-area""></div> 
                </div>","null","","","","","","","",""
"","","","","","html-button-response","116","381348","0.0-116.0","D9BFC3FB70D94AB5A094D9678DF71AFB","019cee76-d828-7622-b26b-55ee063dad7e","019cee5f-9f1f-7e58-80c1-9ba679249cc3","","940","
                <div class=""stimulus-container"">
                    <img src=""images/causal_sequence/package_causal/package_causal_8.png"" class=""exp-image"">
                    <div class=""question-area"">
                        <p style=""font-size: 20px; font-weight: bold; margin: 0;"">Is there a person in this image?</p>
                    </div>
                </div>","0","main_experiment_trial","8","package_causal","causal_sequence","","","",""
"","","","","","html-keyboard-response","117","386354","0.0-117.0","D9BFC3FB70D94AB5A094D9678DF71AFB","019cee76-d828-7622-b26b-55ee063dad7e","019cee5f-9f1f-7e58-80c1-9ba679249cc3","","null","
                <div class=""stimulus-container"">
                    <img src=""images/causal_sequence/package_causal/package_causal_9.png"" class=""exp-image"">
                    <div class=""question-area""></div> 
                </div>","null","","","","","","","",""
"","","","","","html-button-response","118","387264","0.0-118.0","D9BFC3FB70D94AB5A094D9678DF71AFB","019cee76-d828-7622-b26b-55ee063dad7e","019cee5f-9f1f-7e58-80c1-9ba679249cc3","","910","
                <div class=""stimulus-container"">
                    <img src=""images/causal_sequence/package_causal/package_causal_9.png"" class=""exp-image"">
                    <div class=""question-area"">
                        <p style=""font-size: 20px; font-weight: bold; margin: 0;"">Is there a person in this image?</p>
                    </div>
                </div>","0","main_experiment_trial","9","package_causal","causal_sequence","","","",""
"","","","","","html-keyboard-response","119","392268","0.0-119.0","D9BFC3FB70D94AB5A094D9678DF71AFB","019cee76-d828-7622-b26b-55ee063dad7e","019cee5f-9f1f-7e58-80c1-9ba679249cc3","","null","
                <div class=""stimulus-container"">
                    <img src=""images/causal_sequence/package_causal/package_causal_ten.png"" class=""exp-image"">
                    <div class=""question-area""></div> 
                </div>","null","","","","","","","",""
"","","","","","html-button-response","120","393569","0.0-120.0","D9BFC3FB70D94AB5A094D9678DF71AFB","019cee76-d828-7622-b26b-55ee063dad7e","019cee5f-9f1f-7e58-80c1-9ba679249cc3","","1300","
                <div class=""stimulus-container"">
                    <img src=""images/causal_sequence/package_causal/package_causal_ten.png"" class=""exp-image"">
                    <div class=""question-area"">
                        <p style=""font-size: 20px; font-weight: bold; margin: 0;"">Is there a person in this image?</p>
                    </div>
                </div>","0","main_experiment_trial","ten","package_causal","causal_sequence","","","",""
"","","","","","html-keyboard-response","121","394577","0.0-121.0","D9BFC3FB70D94AB5A094D9678DF71AFB","019cee76-d828-7622-b26b-55ee063dad7e","019cee5f-9f1f-7e58-80c1-9ba679249cc3","","null","<div style=""background-color: white; width: 100vw; height: 100vh;""></div>","null","","","","","","","",""
"","","","","","html-keyboard-response","122","399589","0.0-122.0","D9BFC3FB70D94AB5A094D9678DF71AFB","019cee76-d828-7622-b26b-55ee063dad7e","019cee5f-9f1f-7e58-80c1-9ba679249cc3","","null","
                <div class=""stimulus-container"">
                    <img src=""images/schematic_sequence/hotel_scheme/hotel_scheme_1.png"" class=""exp-image"">
                    <div class=""question-area""></div> 
                </div>","null","","","","","","","",""
"","","","","","html-button-response","123","400788","0.0-123.0","D9BFC3FB70D94AB5A094D9678DF71AFB","019cee76-d828-7622-b26b-55ee063dad7e","019cee5f-9f1f-7e58-80c1-9ba679249cc3","","1199","
                <div class=""stimulus-container"">
                    <img src=""images/schematic_sequence/hotel_scheme/hotel_scheme_1.png"" class=""exp-image"">
                    <div class=""question-area"">
                        <p style=""font-size: 20px; font-weight: bold; margin: 0;"">Is there a person in this image?</p>
                    </div>
                </div>","1","main_experiment_trial","1","hotel_scheme","schematic_sequence","","","",""
"","","","","","html-keyboard-response","124","405789","0.0-124.0","D9BFC3FB70D94AB5A094D9678DF71AFB","019cee76-d828-7622-b26b-55ee063dad7e","019cee5f-9f1f-7e58-80c1-9ba679249cc3","","null","
                <div class=""stimulus-container"">
                    <img src=""images/schematic_sequence/hotel_scheme/hotel_scheme_2.png"" class=""exp-image"">
                    <div class=""question-area""></div> 
                </div>","null","","","","","","","",""
"","","","","","html-button-response","125","407689","0.0-125.0","D9BFC3FB70D94AB5A094D9678DF71AFB","019cee76-d828-7622-b26b-55ee063dad7e","019cee5f-9f1f-7e58-80c1-9ba679249cc3","","1899","
                <div class=""stimulus-container"">
                    <img src=""images/schematic_sequence/hotel_scheme/hotel_scheme_2.png"" class=""exp-image"">
                    <div class=""question-area"">
                        <p style=""font-size: 20px; font-weight: bold; margin: 0;"">Is there a person in this image?</p>
                    </div>
                </div>","0","main_experiment_trial","2","hotel_scheme","schematic_sequence","","","",""
"","","","","","html-keyboard-response","126","412700","0.0-126.0","D9BFC3FB70D94AB5A094D9678DF71AFB","019cee76-d828-7622-b26b-55ee063dad7e","019cee5f-9f1f-7e58-80c1-9ba679249cc3","","null","
                <div class=""stimulus-container"">
                    <img src=""images/schematic_sequence/hotel_scheme/hotel_scheme_3.png"" class=""exp-image"">
                    <div class=""question-area""></div> 
                </div>","null","","","","","","","",""
"","","","","","html-button-response","127","413430","0.0-127.0","D9BFC3FB70D94AB5A094D9678DF71AFB","019cee76-d828-7622-b26b-55ee063dad7e","019cee5f-9f1f-7e58-80c1-9ba679249cc3","","729","
                <div class=""stimulus-container"">
                    <img src=""images/schematic_sequence/hotel_scheme/hotel_scheme_3.png"" class=""exp-image"">
                    <div class=""question-area"">
                        <p style=""font-size: 20px; font-weight: bold; margin: 0;"">Is there a person in this image?</p>
                    </div>
                </div>","0","main_experiment_trial","3","hotel_scheme","schematic_sequence","","","",""
"","","","","","html-keyboard-response","128","418433","0.0-128.0","D9BFC3FB70D94AB5A094D9678DF71AFB","019cee76-d828-7622-b26b-55ee063dad7e","019cee5f-9f1f-7e58-80c1-9ba679249cc3","","null","
                <div class=""stimulus-container"">
                    <img src=""images/schematic_sequence/hotel_scheme/hotel_scheme_4.png"" class=""exp-image"">
                    <div class=""question-area""></div> 
                </div>","null","","","","","","","",""
"","","","","","html-button-response","129","419500","0.0-129.0","D9BFC3FB70D94AB5A094D9678DF71AFB","019cee76-d828-7622-b26b-55ee063dad7e","019cee5f-9f1f-7e58-80c1-9ba679249cc3","","1066","
                <div class=""stimulus-container"">
                    <img src=""images/schematic_sequence/hotel_scheme/hotel_scheme_4.png"" class=""exp-image"">
                    <div class=""question-area"">
                        <p style=""font-size: 20px; font-weight: bold; margin: 0;"">Is there a person in this image?</p>
                    </div>
                </div>","1","main_experiment_trial","4","hotel_scheme","schematic_sequence","","","",""
"","","","","","html-keyboard-response","130","424514","0.0-130.0","D9BFC3FB70D94AB5A094D9678DF71AFB","019cee76-d828-7622-b26b-55ee063dad7e","019cee5f-9f1f-7e58-80c1-9ba679249cc3","","null","
                <div class=""stimulus-container"">
                    <img src=""images/schematic_sequence/hotel_scheme/hotel_scheme_5.png"" class=""exp-image"">
                    <div class=""question-area""></div> 
                </div>","null","","","","","","","",""
"","","","","","html-button-response","131","425778","0.0-131.0","D9BFC3FB70D94AB5A094D9678DF71AFB","019cee76-d828-7622-b26b-55ee063dad7e","019cee5f-9f1f-7e58-80c1-9ba679249cc3","","1264","
                <div class=""stimulus-container"">
                    <img src=""images/schematic_sequence/hotel_scheme/hotel_scheme_5.png"" class=""exp-image"">
                    <div class=""question-area"">
                        <p style=""font-size: 20px; font-weight: bold; margin: 0;"">Is there a person in this image?</p>
                    </div>
                </div>","0","main_experiment_trial","5","hotel_scheme","schematic_sequence","","","",""
"","","","","","html-keyboard-response","132","430788","0.0-132.0","D9BFC3FB70D94AB5A094D9678DF71AFB","019cee76-d828-7622-b26b-55ee063dad7e","019cee5f-9f1f-7e58-80c1-9ba679249cc3","","null","
                <div class=""stimulus-container"">
                    <img src=""images/schematic_sequence/hotel_scheme/hotel_scheme_6.png"" class=""exp-image"">
                    <div class=""question-area""></div> 
                </div>","null","","","","","","","",""
"","","","","","html-button-response","133","431736","0.0-133.0","D9BFC3FB70D94AB5A094D9678DF71AFB","019cee76-d828-7622-b26b-55ee063dad7e","019cee5f-9f1f-7e58-80c1-9ba679249cc3","","947","
                <div class=""stimulus-container"">
                    <img src=""images/schematic_sequence/hotel_scheme/hotel_scheme_6.png"" class=""exp-image"">
                    <div class=""question-area"">
                        <p style=""font-size: 20px; font-weight: bold; margin: 0;"">Is there a person in this image?</p>
                    </div>
                </div>","0","main_experiment_trial","6","hotel_scheme","schematic_sequence","","","",""
"","","","","","html-keyboard-response","134","436749","0.0-134.0","D9BFC3FB70D94AB5A094D9678DF71AFB","019cee76-d828-7622-b26b-55ee063dad7e","019cee5f-9f1f-7e58-80c1-9ba679249cc3","","null","
                <div class=""stimulus-container"">
                    <img src=""images/schematic_sequence/hotel_scheme/hotel_scheme_7.png"" class=""exp-image"">
                    <div class=""question-area""></div> 
                </div>","null","","","","","","","",""
"","","","","","html-button-response","135","437486","0.0-135.0","D9BFC3FB70D94AB5A094D9678DF71AFB","019cee76-d828-7622-b26b-55ee063dad7e","019cee5f-9f1f-7e58-80c1-9ba679249cc3","","737","
                <div class=""stimulus-container"">
                    <img src=""images/schematic_sequence/hotel_scheme/hotel_scheme_7.png"" class=""exp-image"">
                    <div class=""question-area"">
                        <p style=""font-size: 20px; font-weight: bold; margin: 0;"">Is there a person in this image?</p>
                    </div>
                </div>","0","main_experiment_trial","7","hotel_scheme","schematic_sequence","","","",""
"","","","","","html-keyboard-response","136","442500","0.0-136.0","D9BFC3FB70D94AB5A094D9678DF71AFB","019cee76-d828-7622-b26b-55ee063dad7e","019cee5f-9f1f-7e58-80c1-9ba679249cc3","","null","
                <div class=""stimulus-container"">
                    <img src=""images/schematic_sequence/hotel_scheme/hotel_scheme_8.png"" class=""exp-image"">
                    <div class=""question-area""></div> 
                </div>","null","","","","","","","",""
"","","","","","html-button-response","137","443450","0.0-137.0","D9BFC3FB70D94AB5A094D9678DF71AFB","019cee76-d828-7622-b26b-55ee063dad7e","019cee5f-9f1f-7e58-80c1-9ba679249cc3","","949","
                <div class=""stimulus-container"">
                    <img src=""images/schematic_sequence/hotel_scheme/hotel_scheme_8.png"" class=""exp-image"">
                    <div class=""question-area"">
                        <p style=""font-size: 20px; font-weight: bold; margin: 0;"">Is there a person in this image?</p>
                    </div>
                </div>","0","main_experiment_trial","8","hotel_scheme","schematic_sequence","","","",""
"","","","","","html-keyboard-response","138","448465","0.0-138.0","D9BFC3FB70D94AB5A094D9678DF71AFB","019cee76-d828-7622-b26b-55ee063dad7e","019cee5f-9f1f-7e58-80c1-9ba679249cc3","","null","
                <div class=""stimulus-container"">
                    <img src=""images/schematic_sequence/hotel_scheme/hotel_scheme_9.png"" class=""exp-image"">
                    <div class=""question-area""></div> 
                </div>","null","","","","","","","",""
"","","","","","html-button-response","139","449227","0.0-139.0","D9BFC3FB70D94AB5A094D9678DF71AFB","019cee76-d828-7622-b26b-55ee063dad7e","019cee5f-9f1f-7e58-80c1-9ba679249cc3","","762","
                <div class=""stimulus-container"">
                    <img src=""images/schematic_sequence/hotel_scheme/hotel_scheme_9.png"" class=""exp-image"">
                    <div class=""question-area"">
                        <p style=""font-size: 20px; font-weight: bold; margin: 0;"">Is there a person in this image?</p>
                    </div>
                </div>","0","main_experiment_trial","9","hotel_scheme","schematic_sequence","","","",""
"","","","","","html-keyboard-response","140","454233","0.0-140.0","D9BFC3FB70D94AB5A094D9678DF71AFB","019cee76-d828-7622-b26b-55ee063dad7e","019cee5f-9f1f-7e58-80c1-9ba679249cc3","","null","
                <div class=""stimulus-container"">
                    <img src=""images/schematic_sequence/hotel_scheme/hotel_scheme_ten.png"" class=""exp-image"">
                    <div class=""question-area""></div> 
                </div>","null","","","","","","","",""
"","","","","","html-button-response","141","455239","0.0-141.0","D9BFC3FB70D94AB5A094D9678DF71AFB","019cee76-d828-7622-b26b-55ee063dad7e","019cee5f-9f1f-7e58-80c1-9ba679249cc3","","1006","
                <div class=""stimulus-container"">
                    <img src=""images/schematic_sequence/hotel_scheme/hotel_scheme_ten.png"" class=""exp-image"">
                    <div class=""question-area"">
                        <p style=""font-size: 20px; font-weight: bold; margin: 0;"">Is there a person in this image?</p>
                    </div>
                </div>","0","main_experiment_trial","ten","hotel_scheme","schematic_sequence","","","",""
"","","","","","html-keyboard-response","142","456247","0.0-142.0","D9BFC3FB70D94AB5A094D9678DF71AFB","019cee76-d828-7622-b26b-55ee063dad7e","019cee5f-9f1f-7e58-80c1-9ba679249cc3","","null","<div style=""background-color: white; width: 100vw; height: 100vh;""></div>","null","","","","","","","",""
"","","","","","html-keyboard-response","143","461257","0.0-143.0","D9BFC3FB70D94AB5A094D9678DF71AFB","019cee76-d828-7622-b26b-55ee063dad7e","019cee5f-9f1f-7e58-80c1-9ba679249cc3","","null","
                <div class=""stimulus-container"">
                    <img src=""images/causal_sequence/dog_causal/dog_causal_1.png"" class=""exp-image"">
                    <div class=""question-area""></div> 
                </div>","null","","","","","","","",""
"","","","","","html-button-response","144","462022","0.0-144.0","D9BFC3FB70D94AB5A094D9678DF71AFB","019cee76-d828-7622-b26b-55ee063dad7e","019cee5f-9f1f-7e58-80c1-9ba679249cc3","","764","
                <div class=""stimulus-container"">
                    <img src=""images/causal_sequence/dog_causal/dog_causal_1.png"" class=""exp-image"">
                    <div class=""question-area"">
                        <p style=""font-size: 20px; font-weight: bold; margin: 0;"">Is there a person in this image?</p>
                    </div>
                </div>","0","main_experiment_trial","1","dog_causal","causal_sequence","","","",""
"","","","","","html-keyboard-response","145","467033","0.0-145.0","D9BFC3FB70D94AB5A094D9678DF71AFB","019cee76-d828-7622-b26b-55ee063dad7e","019cee5f-9f1f-7e58-80c1-9ba679249cc3","","null","
                <div class=""stimulus-container"">
                    <img src=""images/causal_sequence/dog_causal/dog_causal_2.png"" class=""exp-image"">
                    <div class=""question-area""></div> 
                </div>","null","","","","","","","",""
"","","","","","html-button-response","146","467793","0.0-146.0","D9BFC3FB70D94AB5A094D9678DF71AFB","019cee76-d828-7622-b26b-55ee063dad7e","019cee5f-9f1f-7e58-80c1-9ba679249cc3","","759","
                <div class=""stimulus-container"">
                    <img src=""images/causal_sequence/dog_causal/dog_causal_2.png"" class=""exp-image"">
                    <div class=""question-area"">
                        <p style=""font-size: 20px; font-weight: bold; margin: 0;"">Is there a person in this image?</p>
                    </div>
                </div>","0","main_experiment_trial","2","dog_causal","causal_sequence","","","",""
"","","","","","html-keyboard-response","147","472804","0.0-147.0","D9BFC3FB70D94AB5A094D9678DF71AFB","019cee76-d828-7622-b26b-55ee063dad7e","019cee5f-9f1f-7e58-80c1-9ba679249cc3","","null","
                <div class=""stimulus-container"">
                    <img src=""images/causal_sequence/dog_causal/dog_causal_3.png"" class=""exp-image"">
                    <div class=""question-area""></div> 
                </div>","null","","","","","","","",""
"","","","","","html-button-response","148","473931","0.0-148.0","D9BFC3FB70D94AB5A094D9678DF71AFB","019cee76-d828-7622-b26b-55ee063dad7e","019cee5f-9f1f-7e58-80c1-9ba679249cc3","","1126","
                <div class=""stimulus-container"">
                    <img src=""images/causal_sequence/dog_causal/dog_causal_3.png"" class=""exp-image"">
                    <div class=""question-area"">
                        <p style=""font-size: 20px; font-weight: bold; margin: 0;"">Is there a person in this image?</p>
                    </div>
                </div>","0","main_experiment_trial","3","dog_causal","causal_sequence","","","",""
"","","","","","html-keyboard-response","149","478933","0.0-149.0","D9BFC3FB70D94AB5A094D9678DF71AFB","019cee76-d828-7622-b26b-55ee063dad7e","019cee5f-9f1f-7e58-80c1-9ba679249cc3","","null","
                <div class=""stimulus-container"">
                    <img src=""images/causal_sequence/dog_causal/dog_causal_4.png"" class=""exp-image"">
                    <div class=""question-area""></div> 
                </div>","null","","","","","","","",""
"","","","","","html-button-response","150","479909","0.0-150.0","D9BFC3FB70D94AB5A094D9678DF71AFB","019cee76-d828-7622-b26b-55ee063dad7e","019cee5f-9f1f-7e58-80c1-9ba679249cc3","","975","
                <div class=""stimulus-container"">
                    <img src=""images/causal_sequence/dog_causal/dog_causal_4.png"" class=""exp-image"">
                    <div class=""question-area"">
                        <p style=""font-size: 20px; font-weight: bold; margin: 0;"">Is there a person in this image?</p>
                    </div>
                </div>","0","main_experiment_trial","4","dog_causal","causal_sequence","","","",""
"","","","","","html-keyboard-response","151","484918","0.0-151.0","D9BFC3FB70D94AB5A094D9678DF71AFB","019cee76-d828-7622-b26b-55ee063dad7e","019cee5f-9f1f-7e58-80c1-9ba679249cc3","","null","
                <div class=""stimulus-container"">
                    <img src=""images/causal_sequence/dog_causal/dog_causal_5.png"" class=""exp-image"">
                    <div class=""question-area""></div> 
                </div>","null","","","","","","","",""
"","","","","","html-button-response","152","485825","0.0-152.0","D9BFC3FB70D94AB5A094D9678DF71AFB","019cee76-d828-7622-b26b-55ee063dad7e","019cee5f-9f1f-7e58-80c1-9ba679249cc3","","906","
                <div class=""stimulus-container"">
                    <img src=""images/causal_sequence/dog_causal/dog_causal_5.png"" class=""exp-image"">
                    <div class=""question-area"">
                        <p style=""font-size: 20px; font-weight: bold; margin: 0;"">Is there a person in this image?</p>
                    </div>
                </div>","0","main_experiment_trial","5","dog_causal","causal_sequence","","","",""
"","","","","","html-keyboard-response","153","490834","0.0-153.0","D9BFC3FB70D94AB5A094D9678DF71AFB","019cee76-d828-7622-b26b-55ee063dad7e","019cee5f-9f1f-7e58-80c1-9ba679249cc3","","null","
                <div class=""stimulus-container"">
                    <img src=""images/causal_sequence/dog_causal/dog_causal_6.png"" class=""exp-image"">
                    <div class=""question-area""></div> 
                </div>","null","","","","","","","",""
"","","","","","html-button-response","154","491934","0.0-154.0","D9BFC3FB70D94AB5A094D9678DF71AFB","019cee76-d828-7622-b26b-55ee063dad7e","019cee5f-9f1f-7e58-80c1-9ba679249cc3","","1099","
                <div class=""stimulus-container"">
                    <img src=""images/causal_sequence/dog_causal/dog_causal_6.png"" class=""exp-image"">
                    <div class=""question-area"">
                        <p style=""font-size: 20px; font-weight: bold; margin: 0;"">Is there a person in this image?</p>
                    </div>
                </div>","0","main_experiment_trial","6","dog_causal","causal_sequence","","","",""
"","","","","","html-keyboard-response","155","496949","0.0-155.0","D9BFC3FB70D94AB5A094D9678DF71AFB","019cee76-d828-7622-b26b-55ee063dad7e","019cee5f-9f1f-7e58-80c1-9ba679249cc3","","null","
                <div class=""stimulus-container"">
                    <img src=""images/causal_sequence/dog_causal/dog_causal_7.png"" class=""exp-image"">
                    <div class=""question-area""></div> 
                </div>","null","","","","","","","",""
"","","","","","html-button-response","156","497809","0.0-156.0","D9BFC3FB70D94AB5A094D9678DF71AFB","019cee76-d828-7622-b26b-55ee063dad7e","019cee5f-9f1f-7e58-80c1-9ba679249cc3","","860","
                <div class=""stimulus-container"">
                    <img src=""images/causal_sequence/dog_causal/dog_causal_7.png"" class=""exp-image"">
                    <div class=""question-area"">
                        <p style=""font-size: 20px; font-weight: bold; margin: 0;"">Is there a person in this image?</p>
                    </div>
                </div>","0","main_experiment_trial","7","dog_causal","causal_sequence","","","",""
"","","","","","html-keyboard-response","157","502817","0.0-157.0","D9BFC3FB70D94AB5A094D9678DF71AFB","019cee76-d828-7622-b26b-55ee063dad7e","019cee5f-9f1f-7e58-80c1-9ba679249cc3","","null","
                <div class=""stimulus-container"">
                    <img src=""images/causal_sequence/dog_causal/dog_causal_8.png"" class=""exp-image"">
                    <div class=""question-area""></div> 
                </div>","null","","","","","","","",""
"","","","","","html-button-response","158","503946","0.0-158.0","D9BFC3FB70D94AB5A094D9678DF71AFB","019cee76-d828-7622-b26b-55ee063dad7e","019cee5f-9f1f-7e58-80c1-9ba679249cc3","","1129","
                <div class=""stimulus-container"">
                    <img src=""images/causal_sequence/dog_causal/dog_causal_8.png"" class=""exp-image"">
                    <div class=""question-area"">
                        <p style=""font-size: 20px; font-weight: bold; margin: 0;"">Is there a person in this image?</p>
                    </div>
                </div>","0","main_experiment_trial","8","dog_causal","causal_sequence","","","",""
"","","","","","html-keyboard-response","159","508948","0.0-159.0","D9BFC3FB70D94AB5A094D9678DF71AFB","019cee76-d828-7622-b26b-55ee063dad7e","019cee5f-9f1f-7e58-80c1-9ba679249cc3","","null","
                <div class=""stimulus-container"">
                    <img src=""images/causal_sequence/dog_causal/dog_causal_9.png"" class=""exp-image"">
                    <div class=""question-area""></div> 
                </div>","null","","","","","","","",""
"","","","","","html-button-response","160","509564","0.0-160.0","D9BFC3FB70D94AB5A094D9678DF71AFB","019cee76-d828-7622-b26b-55ee063dad7e","019cee5f-9f1f-7e58-80c1-9ba679249cc3","","615","
                <div class=""stimulus-container"">
                    <img src=""images/causal_sequence/dog_causal/dog_causal_9.png"" class=""exp-image"">
                    <div class=""question-area"">
                        <p style=""font-size: 20px; font-weight: bold; margin: 0;"">Is there a person in this image?</p>
                    </div>
                </div>","0","main_experiment_trial","9","dog_causal","causal_sequence","","","",""
"","","","","","html-keyboard-response","161","514567","0.0-161.0","D9BFC3FB70D94AB5A094D9678DF71AFB","019cee76-d828-7622-b26b-55ee063dad7e","019cee5f-9f1f-7e58-80c1-9ba679249cc3","","null","
                <div class=""stimulus-container"">
                    <img src=""images/causal_sequence/dog_causal/dog_causal_ten.png"" class=""exp-image"">
                    <div class=""question-area""></div> 
                </div>","null","","","","","","","",""
"","","","","","html-button-response","162","515854","0.0-162.0","D9BFC3FB70D94AB5A094D9678DF71AFB","019cee76-d828-7622-b26b-55ee063dad7e","019cee5f-9f1f-7e58-80c1-9ba679249cc3","","1286","
                <div class=""stimulus-container"">
                    <img src=""images/causal_sequence/dog_causal/dog_causal_ten.png"" class=""exp-image"">
                    <div class=""question-area"">
                        <p style=""font-size: 20px; font-weight: bold; margin: 0;"">Is there a person in this image?</p>
                    </div>
                </div>","0","main_experiment_trial","ten","dog_causal","causal_sequence","","","",""
"","","","","","html-keyboard-response","163","516862","0.0-163.0","D9BFC3FB70D94AB5A094D9678DF71AFB","019cee76-d828-7622-b26b-55ee063dad7e","019cee5f-9f1f-7e58-80c1-9ba679249cc3","","null","<div style=""background-color: white; width: 100vw; height: 100vh;""></div>","null","","","","","","","",""
"","","","","","html-keyboard-response","164","521877","0.0-164.0","D9BFC3FB70D94AB5A094D9678DF71AFB","019cee76-d828-7622-b26b-55ee063dad7e","019cee5f-9f1f-7e58-80c1-9ba679249cc3","","null","
                <div class=""stimulus-container"">
                    <img src=""images/schematic_sequence/supermarket_scheme/supermarket_scheme_1.png"" class=""exp-image"">
                    <div class=""question-area""></div> 
                </div>","null","","","","","","","",""
"","","","","","html-button-response","165","523235","0.0-165.0","D9BFC3FB70D94AB5A094D9678DF71AFB","019cee76-d828-7622-b26b-55ee063dad7e","019cee5f-9f1f-7e58-80c1-9ba679249cc3","","1357","
                <div class=""stimulus-container"">
                    <img src=""images/schematic_sequence/supermarket_scheme/supermarket_scheme_1.png"" class=""exp-image"">
                    <div class=""question-area"">
                        <p style=""font-size: 20px; font-weight: bold; margin: 0;"">Is there a person in this image?</p>
                    </div>
                </div>","1","main_experiment_trial","1","supermarket_scheme","schematic_sequence","","","",""
"","","","","","html-keyboard-response","166","528246","0.0-166.0","D9BFC3FB70D94AB5A094D9678DF71AFB","019cee76-d828-7622-b26b-55ee063dad7e","019cee5f-9f1f-7e58-80c1-9ba679249cc3","","null","
                <div class=""stimulus-container"">
                    <img src=""images/schematic_sequence/supermarket_scheme/supermarket_scheme_2.png"" class=""exp-image"">
                    <div class=""question-area""></div> 
                </div>","null","","","","","","","",""
"","","","","","html-button-response","167","529220","0.0-167.0","D9BFC3FB70D94AB5A094D9678DF71AFB","019cee76-d828-7622-b26b-55ee063dad7e","019cee5f-9f1f-7e58-80c1-9ba679249cc3","","974","
                <div class=""stimulus-container"">
                    <img src=""images/schematic_sequence/supermarket_scheme/supermarket_scheme_2.png"" class=""exp-image"">
                    <div class=""question-area"">
                        <p style=""font-size: 20px; font-weight: bold; margin: 0;"">Is there a person in this image?</p>
                    </div>
                </div>","1","main_experiment_trial","2","supermarket_scheme","schematic_sequence","","","",""
"","","","","","html-keyboard-response","168","534226","0.0-168.0","D9BFC3FB70D94AB5A094D9678DF71AFB","019cee76-d828-7622-b26b-55ee063dad7e","019cee5f-9f1f-7e58-80c1-9ba679249cc3","","null","
                <div class=""stimulus-container"">
                    <img src=""images/schematic_sequence/supermarket_scheme/supermarket_scheme_3.png"" class=""exp-image"">
                    <div class=""question-area""></div> 
                </div>","null","","","","","","","",""
"","","","","","html-button-response","169","535199","0.0-169.0","D9BFC3FB70D94AB5A094D9678DF71AFB","019cee76-d828-7622-b26b-55ee063dad7e","019cee5f-9f1f-7e58-80c1-9ba679249cc3","","973","
                <div class=""stimulus-container"">
                    <img src=""images/schematic_sequence/supermarket_scheme/supermarket_scheme_3.png"" class=""exp-image"">
                    <div class=""question-area"">
                        <p style=""font-size: 20px; font-weight: bold; margin: 0;"">Is there a person in this image?</p>
                    </div>
                </div>","1","main_experiment_trial","3","supermarket_scheme","schematic_sequence","","","",""
"","","","","","html-keyboard-response","170","540215","0.0-170.0","D9BFC3FB70D94AB5A094D9678DF71AFB","019cee76-d828-7622-b26b-55ee063dad7e","019cee5f-9f1f-7e58-80c1-9ba679249cc3","","null","
                <div class=""stimulus-container"">
                    <img src=""images/schematic_sequence/supermarket_scheme/supermarket_scheme_4.png"" class=""exp-image"">
                    <div class=""question-area""></div> 
                </div>","null","","","","","","","",""
"","","","","","html-button-response","171","541241","0.0-171.0","D9BFC3FB70D94AB5A094D9678DF71AFB","019cee76-d828-7622-b26b-55ee063dad7e","019cee5f-9f1f-7e58-80c1-9ba679249cc3","","1026","
                <div class=""stimulus-container"">
                    <img src=""images/schematic_sequence/supermarket_scheme/supermarket_scheme_4.png"" class=""exp-image"">
                    <div class=""question-area"">
                        <p style=""font-size: 20px; font-weight: bold; margin: 0;"">Is there a person in this image?</p>
                    </div>
                </div>","0","main_experiment_trial","4","supermarket_scheme","schematic_sequence","","","",""
"","","","","","html-keyboard-response","172","546254","0.0-172.0","D9BFC3FB70D94AB5A094D9678DF71AFB","019cee76-d828-7622-b26b-55ee063dad7e","019cee5f-9f1f-7e58-80c1-9ba679249cc3","","null","
                <div class=""stimulus-container"">
                    <img src=""images/schematic_sequence/supermarket_scheme/supermarket_scheme_5.png"" class=""exp-image"">
                    <div class=""question-area""></div> 
                </div>","null","","","","","","","",""
"","","","","","html-button-response","173","547225","0.0-173.0","D9BFC3FB70D94AB5A094D9678DF71AFB","019cee76-d828-7622-b26b-55ee063dad7e","019cee5f-9f1f-7e58-80c1-9ba679249cc3","","971","
                <div class=""stimulus-container"">
                    <img src=""images/schematic_sequence/supermarket_scheme/supermarket_scheme_5.png"" class=""exp-image"">
                    <div class=""question-area"">
                        <p style=""font-size: 20px; font-weight: bold; margin: 0;"">Is there a person in this image?</p>
                    </div>
                </div>","1","main_experiment_trial","5","supermarket_scheme","schematic_sequence","","","",""
"","","","","","html-keyboard-response","174","552233","0.0-174.0","D9BFC3FB70D94AB5A094D9678DF71AFB","019cee76-d828-7622-b26b-55ee063dad7e","019cee5f-9f1f-7e58-80c1-9ba679249cc3","","null","
                <div class=""stimulus-container"">
                    <img src=""images/schematic_sequence/supermarket_scheme/supermarket_scheme_6.png"" class=""exp-image"">
                    <div class=""question-area""></div> 
                </div>","null","","","","","","","",""
"","","","","","html-button-response","175","553184","0.0-175.0","D9BFC3FB70D94AB5A094D9678DF71AFB","019cee76-d828-7622-b26b-55ee063dad7e","019cee5f-9f1f-7e58-80c1-9ba679249cc3","","951","
                <div class=""stimulus-container"">
                    <img src=""images/schematic_sequence/supermarket_scheme/supermarket_scheme_6.png"" class=""exp-image"">
                    <div class=""question-area"">
                        <p style=""font-size: 20px; font-weight: bold; margin: 0;"">Is there a person in this image?</p>
                    </div>
                </div>","0","main_experiment_trial","6","supermarket_scheme","schematic_sequence","","","",""
"","","","","","html-keyboard-response","176","558200","0.0-176.0","D9BFC3FB70D94AB5A094D9678DF71AFB","019cee76-d828-7622-b26b-55ee063dad7e","019cee5f-9f1f-7e58-80c1-9ba679249cc3","","null","
                <div class=""stimulus-container"">
                    <img src=""images/schematic_sequence/supermarket_scheme/supermarket_scheme_7.png"" class=""exp-image"">
                    <div class=""question-area""></div> 
                </div>","null","","","","","","","",""
"","","","","","html-button-response","177","558976","0.0-177.0","D9BFC3FB70D94AB5A094D9678DF71AFB","019cee76-d828-7622-b26b-55ee063dad7e","019cee5f-9f1f-7e58-80c1-9ba679249cc3","","776","
                <div class=""stimulus-container"">
                    <img src=""images/schematic_sequence/supermarket_scheme/supermarket_scheme_7.png"" class=""exp-image"">
                    <div class=""question-area"">
                        <p style=""font-size: 20px; font-weight: bold; margin: 0;"">Is there a person in this image?</p>
                    </div>
                </div>","0","main_experiment_trial","7","supermarket_scheme","schematic_sequence","","","",""
"","","","","","html-keyboard-response","178","563979","0.0-178.0","D9BFC3FB70D94AB5A094D9678DF71AFB","019cee76-d828-7622-b26b-55ee063dad7e","019cee5f-9f1f-7e58-80c1-9ba679249cc3","","null","
                <div class=""stimulus-container"">
                    <img src=""images/schematic_sequence/supermarket_scheme/supermarket_scheme_8.png"" class=""exp-image"">
                    <div class=""question-area""></div> 
                </div>","null","","","","","","","",""
"","","","","","html-button-response","179","564823","0.0-179.0","D9BFC3FB70D94AB5A094D9678DF71AFB","019cee76-d828-7622-b26b-55ee063dad7e","019cee5f-9f1f-7e58-80c1-9ba679249cc3","","844","
                <div class=""stimulus-container"">
                    <img src=""images/schematic_sequence/supermarket_scheme/supermarket_scheme_8.png"" class=""exp-image"">
                    <div class=""question-area"">
                        <p style=""font-size: 20px; font-weight: bold; margin: 0;"">Is there a person in this image?</p>
                    </div>
                </div>","0","main_experiment_trial","8","supermarket_scheme","schematic_sequence","","","",""
"","","","","","html-keyboard-response","180","569834","0.0-180.0","D9BFC3FB70D94AB5A094D9678DF71AFB","019cee76-d828-7622-b26b-55ee063dad7e","019cee5f-9f1f-7e58-80c1-9ba679249cc3","","null","
                <div class=""stimulus-container"">
                    <img src=""images/schematic_sequence/supermarket_scheme/supermarket_scheme_9.png"" class=""exp-image"">
                    <div class=""question-area""></div> 
                </div>","null","","","","","","","",""
"","","","","","html-button-response","181","570698","0.0-181.0","D9BFC3FB70D94AB5A094D9678DF71AFB","019cee76-d828-7622-b26b-55ee063dad7e","019cee5f-9f1f-7e58-80c1-9ba679249cc3","","863","
                <div class=""stimulus-container"">
                    <img src=""images/schematic_sequence/supermarket_scheme/supermarket_scheme_9.png"" class=""exp-image"">
                    <div class=""question-area"">
                        <p style=""font-size: 20px; font-weight: bold; margin: 0;"">Is there a person in this image?</p>
                    </div>
                </div>","0","main_experiment_trial","9","supermarket_scheme","schematic_sequence","","","",""
"","","","","","html-keyboard-response","182","575709","0.0-182.0","D9BFC3FB70D94AB5A094D9678DF71AFB","019cee76-d828-7622-b26b-55ee063dad7e","019cee5f-9f1f-7e58-80c1-9ba679249cc3","","null","
                <div class=""stimulus-container"">
                    <img src=""images/schematic_sequence/supermarket_scheme/supermarket_scheme_ten.png"" class=""exp-image"">
                    <div class=""question-area""></div> 
                </div>","null","","","","","","","",""
"","","","","","html-button-response","183","577190","0.0-183.0","D9BFC3FB70D94AB5A094D9678DF71AFB","019cee76-d828-7622-b26b-55ee063dad7e","019cee5f-9f1f-7e58-80c1-9ba679249cc3","","1481","
                <div class=""stimulus-container"">
                    <img src=""images/schematic_sequence/supermarket_scheme/supermarket_scheme_ten.png"" class=""exp-image"">
                    <div class=""question-area"">
                        <p style=""font-size: 20px; font-weight: bold; margin: 0;"">Is there a person in this image?</p>
                    </div>
                </div>","1","main_experiment_trial","ten","supermarket_scheme","schematic_sequence","","","",""
"","","","","","html-keyboard-response","184","578194","0.0-184.0","D9BFC3FB70D94AB5A094D9678DF71AFB","019cee76-d828-7622-b26b-55ee063dad7e","019cee5f-9f1f-7e58-80c1-9ba679249cc3","","null","<div style=""background-color: white; width: 100vw; height: 100vh;""></div>","null","","","","","","","",""
