"success","timeout","failed_images","failed_audio","failed_video","trial_type","trial_index","time_elapsed","internal_node_id","subject_id","study_id","session_id","view_history","rt","stimulus","response","task","image_index","folder","sequence_type","valuable_image_index","reward_type","chosen_image_index","correct_choice"
"true","false","[]","[]","[]","preload","0","1685","0.0-0.0","3707E54F77CC46269CBD944DE8D5603E","019cefb0-6077-7907-97be-ed40e213e905","019cef87-c56d-7b55-9135-c5814367ec25","","","","","","","","","","","",""
"","","","","","instructions","1","5888","0.0-1.0","3707E54F77CC46269CBD944DE8D5603E","019cefb0-6077-7907-97be-ed40e213e905","019cef87-c56d-7b55-9135-c5814367ec25","[{""page_index"":0,""viewing_time"":4203}]","4203","","","","","","","","","",""
"","","","","","instructions","2","23357","0.0-2.0","3707E54F77CC46269CBD944DE8D5603E","019cefb0-6077-7907-97be-ed40e213e905","019cef87-c56d-7b55-9135-c5814367ec25","[{""page_index"":0,""viewing_time"":17467}]","17467","","","","","","","","","",""
"true","","","","","fullscreen","3","34405","0.0-3.0","3707E54F77CC46269CBD944DE8D5603E","019cefb0-6077-7907-97be-ed40e213e905","019cef87-c56d-7b55-9135-c5814367ec25","","10045","","","","","","","","","",""
"","","","","","instructions","4","45704","0.0-4.0","3707E54F77CC46269CBD944DE8D5603E","019cefb0-6077-7907-97be-ed40e213e905","019cef87-c56d-7b55-9135-c5814367ec25","[{""page_index"":0,""viewing_time"":11299}]","11299","","","","","","","","","",""
"","","","","","instructions","5","64836","0.0-5.0","3707E54F77CC46269CBD944DE8D5603E","019cefb0-6077-7907-97be-ed40e213e905","019cef87-c56d-7b55-9135-c5814367ec25","[{""page_index"":0,""viewing_time"":19132}]","19132","","","","","","","","","",""
"","","","","","html-keyboard-response","6","68839","0.0-6.0","3707E54F77CC46269CBD944DE8D5603E","019cefb0-6077-7907-97be-ed40e213e905","019cef87-c56d-7b55-9135-c5814367ec25","","null","
                <div class=""stimulus-container"">
                    <img src=""images/instructions/movie_1.png"" class=""exp-image"">
                    <div class=""question-area""></div> 
                </div>","null","","","","","","","",""
"","","","","","html-button-response","7","71589","0.0-7.0","3707E54F77CC46269CBD944DE8D5603E","019cefb0-6077-7907-97be-ed40e213e905","019cef87-c56d-7b55-9135-c5814367ec25","","2747","
                <div class=""stimulus-container"">
                    <img src=""images/instructions/movie_1.png"" class=""exp-image"">
                    <div class=""question-area"">
                        <p style=""font-size: 20px; font-weight: bold; margin: 0;"">Was there a person in this image?</p>
                    </div>
                </div>","0","example_question","1","","","","","",""
"","","","","","html-keyboard-response","8","75591","0.0-8.0","3707E54F77CC46269CBD944DE8D5603E","019cefb0-6077-7907-97be-ed40e213e905","019cef87-c56d-7b55-9135-c5814367ec25","","null","
                <div class=""stimulus-container"">
                    <img src=""images/instructions/movie_2.png"" class=""exp-image"">
                    <div class=""question-area""></div> 
                </div>","null","","","","","","","",""
"","","","","","html-button-response","9","77106","0.0-9.0","3707E54F77CC46269CBD944DE8D5603E","019cefb0-6077-7907-97be-ed40e213e905","019cef87-c56d-7b55-9135-c5814367ec25","","1514","
                <div class=""stimulus-container"">
                    <img src=""images/instructions/movie_2.png"" class=""exp-image"">
                    <div class=""question-area"">
                        <p style=""font-size: 20px; font-weight: bold; margin: 0;"">Was there a person in this image?</p>
                    </div>
                </div>","0","example_question","2","","","","","",""
"","","","","","html-keyboard-response","10","81108","0.0-10.0","3707E54F77CC46269CBD944DE8D5603E","019cefb0-6077-7907-97be-ed40e213e905","019cef87-c56d-7b55-9135-c5814367ec25","","null","
                <div class=""stimulus-container"">
                    <img src=""images/instructions/movie_3.png"" class=""exp-image"">
                    <div class=""question-area""></div> 
                </div>","null","","","","","","","",""
"","","","","","html-button-response","11","83056","0.0-11.0","3707E54F77CC46269CBD944DE8D5603E","019cefb0-6077-7907-97be-ed40e213e905","019cef87-c56d-7b55-9135-c5814367ec25","","1946","
                <div class=""stimulus-container"">
                    <img src=""images/instructions/movie_3.png"" class=""exp-image"">
                    <div class=""question-area"">
                        <p style=""font-size: 20px; font-weight: bold; margin: 0;"">Was there a person in this image?</p>
                    </div>
                </div>","0","example_question","3","","","","","",""
"","","","","","html-keyboard-response","12","87058","0.0-12.0","3707E54F77CC46269CBD944DE8D5603E","019cefb0-6077-7907-97be-ed40e213e905","019cef87-c56d-7b55-9135-c5814367ec25","","null","
                <div class=""stimulus-container"">
                    <img src=""images/instructions/movie_4.png"" class=""exp-image"">
                    <div class=""question-area""></div> 
                </div>","null","","","","","","","",""
"","","","","","html-button-response","13","89138","0.0-13.0","3707E54F77CC46269CBD944DE8D5603E","019cefb0-6077-7907-97be-ed40e213e905","019cef87-c56d-7b55-9135-c5814367ec25","","2078","
                <div class=""stimulus-container"">
                    <img src=""images/instructions/movie_4.png"" class=""exp-image"">
                    <div class=""question-area"">
                        <p style=""font-size: 20px; font-weight: bold; margin: 0;"">Was there a person in this image?</p>
                    </div>
                </div>","0","example_question","4","","","","","",""
"","","","","","instructions","14","93342","0.0-14.0","3707E54F77CC46269CBD944DE8D5603E","019cefb0-6077-7907-97be-ed40e213e905","019cef87-c56d-7b55-9135-c5814367ec25","[{""page_index"":0,""viewing_time"":4203}]","4204","","","","","","","","","",""
"","","","","","instructions","15","106488","0.0-15.0","3707E54F77CC46269CBD944DE8D5603E","019cefb0-6077-7907-97be-ed40e213e905","019cef87-c56d-7b55-9135-c5814367ec25","[{""page_index"":0,""viewing_time"":13146}]","13146","","","","","","","","","",""
"","","","","","html-keyboard-response","16","107490","0.0-16.0","3707E54F77CC46269CBD944DE8D5603E","019cefb0-6077-7907-97be-ed40e213e905","019cef87-c56d-7b55-9135-c5814367ec25","","null","<div style=""background-color: white; width: 100vw; height: 100vh;""></div>","null","","","","","","","",""
"","","","","","html-keyboard-response","17","112493","0.0-17.0","3707E54F77CC46269CBD944DE8D5603E","019cefb0-6077-7907-97be-ed40e213e905","019cef87-c56d-7b55-9135-c5814367ec25","","null","
                <div class=""stimulus-container"">
                    <img src=""images/schematic_sequence/hotel_scheme/hotel_scheme_1.png"" class=""exp-image"">
                    <div class=""question-area""></div> 
                </div>","null","","","","","","","",""
"","","","","","html-button-response","18","115495","0.0-18.0","3707E54F77CC46269CBD944DE8D5603E","019cefb0-6077-7907-97be-ed40e213e905","019cef87-c56d-7b55-9135-c5814367ec25","","null","
                <div class=""stimulus-container"">
                    <img src=""images/schematic_sequence/hotel_scheme/hotel_scheme_1.png"" class=""exp-image"">
                    <div class=""question-area"">
                        <p style=""font-size: 20px; font-weight: bold; margin: 0;"">Is there a person in this image?</p>
                    </div>
                </div>","null","main_experiment_trial","1","hotel_scheme","schematic_sequence","","","",""
"","","","","","html-keyboard-response","19","120498","0.0-19.0","3707E54F77CC46269CBD944DE8D5603E","019cefb0-6077-7907-97be-ed40e213e905","019cef87-c56d-7b55-9135-c5814367ec25","","null","
                <div class=""stimulus-container"">
                    <img src=""images/schematic_sequence/hotel_scheme/hotel_scheme_2.png"" class=""exp-image"">
                    <div class=""question-area""></div> 
                </div>","null","","","","","","","",""
"","","","","","html-button-response","20","121605","0.0-20.0","3707E54F77CC46269CBD944DE8D5603E","019cefb0-6077-7907-97be-ed40e213e905","019cef87-c56d-7b55-9135-c5814367ec25","","1106","
                <div class=""stimulus-container"">
                    <img src=""images/schematic_sequence/hotel_scheme/hotel_scheme_2.png"" class=""exp-image"">
                    <div class=""question-area"">
                        <p style=""font-size: 20px; font-weight: bold; margin: 0;"">Is there a person in this image?</p>
                    </div>
                </div>","0","main_experiment_trial","2","hotel_scheme","schematic_sequence","","","",""
"","","","","","html-keyboard-response","21","126607","0.0-21.0","3707E54F77CC46269CBD944DE8D5603E","019cefb0-6077-7907-97be-ed40e213e905","019cef87-c56d-7b55-9135-c5814367ec25","","null","
                <div class=""stimulus-container"">
                    <img src=""images/schematic_sequence/hotel_scheme/hotel_scheme_3.png"" class=""exp-image"">
                    <div class=""question-area""></div> 
                </div>","null","","","","","","","",""
"","","","","","html-button-response","22","127638","0.0-22.0","3707E54F77CC46269CBD944DE8D5603E","019cefb0-6077-7907-97be-ed40e213e905","019cef87-c56d-7b55-9135-c5814367ec25","","1030","
                <div class=""stimulus-container"">
                    <img src=""images/schematic_sequence/hotel_scheme/hotel_scheme_3.png"" class=""exp-image"">
                    <div class=""question-area"">
                        <p style=""font-size: 20px; font-weight: bold; margin: 0;"">Is there a person in this image?</p>
                    </div>
                </div>","0","main_experiment_trial","3","hotel_scheme","schematic_sequence","","","",""
"","","","","","html-keyboard-response","23","132640","0.0-23.0","3707E54F77CC46269CBD944DE8D5603E","019cefb0-6077-7907-97be-ed40e213e905","019cef87-c56d-7b55-9135-c5814367ec25","","null","
                <div class=""stimulus-container"">
                    <img src=""images/schematic_sequence/hotel_scheme/hotel_scheme_4.png"" class=""exp-image"">
                    <div class=""question-area""></div> 
                </div>","null","","","","","","","",""
"","","","","","html-button-response","24","133722","0.0-24.0","3707E54F77CC46269CBD944DE8D5603E","019cefb0-6077-7907-97be-ed40e213e905","019cef87-c56d-7b55-9135-c5814367ec25","","1080","
                <div class=""stimulus-container"">
                    <img src=""images/schematic_sequence/hotel_scheme/hotel_scheme_4.png"" class=""exp-image"">
                    <div class=""question-area"">
                        <p style=""font-size: 20px; font-weight: bold; margin: 0;"">Is there a person in this image?</p>
                    </div>
                </div>","1","main_experiment_trial","4","hotel_scheme","schematic_sequence","","","",""
"","","","","","html-keyboard-response","25","138724","0.0-25.0","3707E54F77CC46269CBD944DE8D5603E","019cefb0-6077-7907-97be-ed40e213e905","019cef87-c56d-7b55-9135-c5814367ec25","","null","
                <div class=""stimulus-container"">
                    <img src=""images/schematic_sequence/hotel_scheme/hotel_scheme_5.png"" class=""exp-image"">
                    <div class=""question-area""></div> 
                </div>","null","","","","","","","",""
"","","","","","html-button-response","26","139837","0.0-26.0","3707E54F77CC46269CBD944DE8D5603E","019cefb0-6077-7907-97be-ed40e213e905","019cef87-c56d-7b55-9135-c5814367ec25","","1112","
                <div class=""stimulus-container"">
                    <img src=""images/schematic_sequence/hotel_scheme/hotel_scheme_5.png"" class=""exp-image"">
                    <div class=""question-area"">
                        <p style=""font-size: 20px; font-weight: bold; margin: 0;"">Is there a person in this image?</p>
                    </div>
                </div>","0","main_experiment_trial","5","hotel_scheme","schematic_sequence","","","",""
"","","","","","html-keyboard-response","27","144839","0.0-27.0","3707E54F77CC46269CBD944DE8D5603E","019cefb0-6077-7907-97be-ed40e213e905","019cef87-c56d-7b55-9135-c5814367ec25","","null","
                <div class=""stimulus-container"">
                    <img src=""images/schematic_sequence/hotel_scheme/hotel_scheme_6.png"" class=""exp-image"">
                    <div class=""question-area""></div> 
                </div>","null","","","","","","","",""
"","","","","","html-button-response","28","145689","0.0-28.0","3707E54F77CC46269CBD944DE8D5603E","019cefb0-6077-7907-97be-ed40e213e905","019cef87-c56d-7b55-9135-c5814367ec25","","849","
                <div class=""stimulus-container"">
                    <img src=""images/schematic_sequence/hotel_scheme/hotel_scheme_6.png"" class=""exp-image"">
                    <div class=""question-area"">
                        <p style=""font-size: 20px; font-weight: bold; margin: 0;"">Is there a person in this image?</p>
                    </div>
                </div>","0","main_experiment_trial","6","hotel_scheme","schematic_sequence","","","",""
"","","","","","html-keyboard-response","29","150691","0.0-29.0","3707E54F77CC46269CBD944DE8D5603E","019cefb0-6077-7907-97be-ed40e213e905","019cef87-c56d-7b55-9135-c5814367ec25","","null","
                <div class=""stimulus-container"">
                    <img src=""images/schematic_sequence/hotel_scheme/hotel_scheme_7.png"" class=""exp-image"">
                    <div class=""question-area""></div> 
                </div>","null","","","","","","","",""
"","","","","","html-button-response","30","151923","0.0-30.0","3707E54F77CC46269CBD944DE8D5603E","019cefb0-6077-7907-97be-ed40e213e905","019cef87-c56d-7b55-9135-c5814367ec25","","1231","
                <div class=""stimulus-container"">
                    <img src=""images/schematic_sequence/hotel_scheme/hotel_scheme_7.png"" class=""exp-image"">
                    <div class=""question-area"">
                        <p style=""font-size: 20px; font-weight: bold; margin: 0;"">Is there a person in this image?</p>
                    </div>
                </div>","0","main_experiment_trial","7","hotel_scheme","schematic_sequence","","","",""
"","","","","","html-keyboard-response","31","156925","0.0-31.0","3707E54F77CC46269CBD944DE8D5603E","019cefb0-6077-7907-97be-ed40e213e905","019cef87-c56d-7b55-9135-c5814367ec25","","null","
                <div class=""stimulus-container"">
                    <img src=""images/schematic_sequence/hotel_scheme/hotel_scheme_8.png"" class=""exp-image"">
                    <div class=""question-area""></div> 
                </div>","null","","","","","","","",""
"","","","","","html-button-response","32","157755","0.0-32.0","3707E54F77CC46269CBD944DE8D5603E","019cefb0-6077-7907-97be-ed40e213e905","019cef87-c56d-7b55-9135-c5814367ec25","","829","
                <div class=""stimulus-container"">
                    <img src=""images/schematic_sequence/hotel_scheme/hotel_scheme_8.png"" class=""exp-image"">
                    <div class=""question-area"">
                        <p style=""font-size: 20px; font-weight: bold; margin: 0;"">Is there a person in this image?</p>
                    </div>
                </div>","0","main_experiment_trial","8","hotel_scheme","schematic_sequence","","","",""
"","","","","","html-keyboard-response","33","162757","0.0-33.0","3707E54F77CC46269CBD944DE8D5603E","019cefb0-6077-7907-97be-ed40e213e905","019cef87-c56d-7b55-9135-c5814367ec25","","null","
                <div class=""stimulus-container"">
                    <img src=""images/schematic_sequence/hotel_scheme/hotel_scheme_9.png"" class=""exp-image"">
                    <div class=""question-area""></div> 
                </div>","null","","","","","","","",""
"","","","","","html-button-response","34","163739","0.0-34.0","3707E54F77CC46269CBD944DE8D5603E","019cefb0-6077-7907-97be-ed40e213e905","019cef87-c56d-7b55-9135-c5814367ec25","","981","
                <div class=""stimulus-container"">
                    <img src=""images/schematic_sequence/hotel_scheme/hotel_scheme_9.png"" class=""exp-image"">
                    <div class=""question-area"">
                        <p style=""font-size: 20px; font-weight: bold; margin: 0;"">Is there a person in this image?</p>
                    </div>
                </div>","0","main_experiment_trial","9","hotel_scheme","schematic_sequence","","","",""
"","","","","","html-keyboard-response","35","168741","0.0-35.0","3707E54F77CC46269CBD944DE8D5603E","019cefb0-6077-7907-97be-ed40e213e905","019cef87-c56d-7b55-9135-c5814367ec25","","null","
                <div class=""stimulus-container"">
                    <img src=""images/schematic_sequence/hotel_scheme/hotel_scheme_ten.png"" class=""exp-image"">
                    <div class=""question-area""></div> 
                </div>","null","","","","","","","",""
"","","","","","html-button-response","36","169624","0.0-36.0","3707E54F77CC46269CBD944DE8D5603E","019cefb0-6077-7907-97be-ed40e213e905","019cef87-c56d-7b55-9135-c5814367ec25","","881","
                <div class=""stimulus-container"">
                    <img src=""images/schematic_sequence/hotel_scheme/hotel_scheme_ten.png"" class=""exp-image"">
                    <div class=""question-area"">
                        <p style=""font-size: 20px; font-weight: bold; margin: 0;"">Is there a person in this image?</p>
                    </div>
                </div>","0","main_experiment_trial","ten","hotel_scheme","schematic_sequence","","","",""
"","","","","","html-keyboard-response","37","170625","0.0-37.0","3707E54F77CC46269CBD944DE8D5603E","019cefb0-6077-7907-97be-ed40e213e905","019cef87-c56d-7b55-9135-c5814367ec25","","null","<div style=""background-color: white; width: 100vw; height: 100vh;""></div>","null","","","","","","","",""
"","","","","","html-keyboard-response","38","175628","0.0-38.0","3707E54F77CC46269CBD944DE8D5603E","019cefb0-6077-7907-97be-ed40e213e905","019cef87-c56d-7b55-9135-c5814367ec25","","null","
                <div class=""stimulus-container"">
                    <img src=""images/causal_sequence/package_causal/package_causal_1.png"" class=""exp-image"">
                    <div class=""question-area""></div> 
                </div>","null","","","","","","","",""
"","","","","","html-button-response","39","176406","0.0-39.0","3707E54F77CC46269CBD944DE8D5603E","019cefb0-6077-7907-97be-ed40e213e905","019cef87-c56d-7b55-9135-c5814367ec25","","777","
                <div class=""stimulus-container"">
                    <img src=""images/causal_sequence/package_causal/package_causal_1.png"" class=""exp-image"">
                    <div class=""question-area"">
                        <p style=""font-size: 20px; font-weight: bold; margin: 0;"">Is there a person in this image?</p>
                    </div>
                </div>","0","main_experiment_trial","1","package_causal","causal_sequence","","","",""
"","","","","","html-keyboard-response","40","181408","0.0-40.0","3707E54F77CC46269CBD944DE8D5603E","019cefb0-6077-7907-97be-ed40e213e905","019cef87-c56d-7b55-9135-c5814367ec25","","null","
                <div class=""stimulus-container"">
                    <img src=""images/causal_sequence/package_causal/package_causal_2.png"" class=""exp-image"">
                    <div class=""question-area""></div> 
                </div>","null","","","","","","","",""
"","","","","","html-button-response","41","182205","0.0-41.0","3707E54F77CC46269CBD944DE8D5603E","019cefb0-6077-7907-97be-ed40e213e905","019cef87-c56d-7b55-9135-c5814367ec25","","796","
                <div class=""stimulus-container"">
                    <img src=""images/causal_sequence/package_causal/package_causal_2.png"" class=""exp-image"">
                    <div class=""question-area"">
                        <p style=""font-size: 20px; font-weight: bold; margin: 0;"">Is there a person in this image?</p>
                    </div>
                </div>","0","main_experiment_trial","2","package_causal","causal_sequence","","","",""
"","","","","","html-keyboard-response","42","187207","0.0-42.0","3707E54F77CC46269CBD944DE8D5603E","019cefb0-6077-7907-97be-ed40e213e905","019cef87-c56d-7b55-9135-c5814367ec25","","null","
                <div class=""stimulus-container"">
                    <img src=""images/causal_sequence/package_causal/package_causal_3.png"" class=""exp-image"">
                    <div class=""question-area""></div> 
                </div>","null","","","","","","","",""
"","","","","","html-button-response","43","187991","0.0-43.0","3707E54F77CC46269CBD944DE8D5603E","019cefb0-6077-7907-97be-ed40e213e905","019cef87-c56d-7b55-9135-c5814367ec25","","782","
                <div class=""stimulus-container"">
                    <img src=""images/causal_sequence/package_causal/package_causal_3.png"" class=""exp-image"">
                    <div class=""question-area"">
                        <p style=""font-size: 20px; font-weight: bold; margin: 0;"">Is there a person in this image?</p>
                    </div>
                </div>","0","main_experiment_trial","3","package_causal","causal_sequence","","","",""
"","","","","","html-keyboard-response","44","192994","0.0-44.0","3707E54F77CC46269CBD944DE8D5603E","019cefb0-6077-7907-97be-ed40e213e905","019cef87-c56d-7b55-9135-c5814367ec25","","null","
                <div class=""stimulus-container"">
                    <img src=""images/causal_sequence/package_causal/package_causal_4.png"" class=""exp-image"">
                    <div class=""question-area""></div> 
                </div>","null","","","","","","","",""
"","","","","","html-button-response","45","193905","0.0-45.0","3707E54F77CC46269CBD944DE8D5603E","019cefb0-6077-7907-97be-ed40e213e905","019cef87-c56d-7b55-9135-c5814367ec25","","910","
                <div class=""stimulus-container"">
                    <img src=""images/causal_sequence/package_causal/package_causal_4.png"" class=""exp-image"">
                    <div class=""question-area"">
                        <p style=""font-size: 20px; font-weight: bold; margin: 0;"">Is there a person in this image?</p>
                    </div>
                </div>","1","main_experiment_trial","4","package_causal","causal_sequence","","","",""
"","","","","","html-keyboard-response","46","198907","0.0-46.0","3707E54F77CC46269CBD944DE8D5603E","019cefb0-6077-7907-97be-ed40e213e905","019cef87-c56d-7b55-9135-c5814367ec25","","null","
                <div class=""stimulus-container"">
                    <img src=""images/causal_sequence/package_causal/package_causal_5.png"" class=""exp-image"">
                    <div class=""question-area""></div> 
                </div>","null","","","","","","","",""
"","","","","","html-button-response","47","199705","0.0-47.0","3707E54F77CC46269CBD944DE8D5603E","019cefb0-6077-7907-97be-ed40e213e905","019cef87-c56d-7b55-9135-c5814367ec25","","796","
                <div class=""stimulus-container"">
                    <img src=""images/causal_sequence/package_causal/package_causal_5.png"" class=""exp-image"">
                    <div class=""question-area"">
                        <p style=""font-size: 20px; font-weight: bold; margin: 0;"">Is there a person in this image?</p>
                    </div>
                </div>","0","main_experiment_trial","5","package_causal","causal_sequence","","","",""
"","","","","","html-keyboard-response","48","204707","0.0-48.0","3707E54F77CC46269CBD944DE8D5603E","019cefb0-6077-7907-97be-ed40e213e905","019cef87-c56d-7b55-9135-c5814367ec25","","null","
                <div class=""stimulus-container"">
                    <img src=""images/causal_sequence/package_causal/package_causal_6.png"" class=""exp-image"">
                    <div class=""question-area""></div> 
                </div>","null","","","","","","","",""
"","","","","","html-button-response","49","205689","0.0-49.0","3707E54F77CC46269CBD944DE8D5603E","019cefb0-6077-7907-97be-ed40e213e905","019cef87-c56d-7b55-9135-c5814367ec25","","980","
                <div class=""stimulus-container"">
                    <img src=""images/causal_sequence/package_causal/package_causal_6.png"" class=""exp-image"">
                    <div class=""question-area"">
                        <p style=""font-size: 20px; font-weight: bold; margin: 0;"">Is there a person in this image?</p>
                    </div>
                </div>","0","main_experiment_trial","6","package_causal","causal_sequence","","","",""
"","","","","","html-keyboard-response","50","210691","0.0-50.0","3707E54F77CC46269CBD944DE8D5603E","019cefb0-6077-7907-97be-ed40e213e905","019cef87-c56d-7b55-9135-c5814367ec25","","null","
                <div class=""stimulus-container"">
                    <img src=""images/causal_sequence/package_causal/package_causal_7.png"" class=""exp-image"">
                    <div class=""question-area""></div> 
                </div>","null","","","","","","","",""
"","","","","","html-button-response","51","211905","0.0-51.0","3707E54F77CC46269CBD944DE8D5603E","019cefb0-6077-7907-97be-ed40e213e905","019cef87-c56d-7b55-9135-c5814367ec25","","1213","
                <div class=""stimulus-container"">
                    <img src=""images/causal_sequence/package_causal/package_causal_7.png"" class=""exp-image"">
                    <div class=""question-area"">
                        <p style=""font-size: 20px; font-weight: bold; margin: 0;"">Is there a person in this image?</p>
                    </div>
                </div>","0","main_experiment_trial","7","package_causal","causal_sequence","","","",""
"","","","","","html-keyboard-response","52","216907","0.0-52.0","3707E54F77CC46269CBD944DE8D5603E","019cefb0-6077-7907-97be-ed40e213e905","019cef87-c56d-7b55-9135-c5814367ec25","","null","
                <div class=""stimulus-container"">
                    <img src=""images/causal_sequence/package_causal/package_causal_8.png"" class=""exp-image"">
                    <div class=""question-area""></div> 
                </div>","null","","","","","","","",""
"","","","","","html-button-response","53","217972","0.0-53.0","3707E54F77CC46269CBD944DE8D5603E","019cefb0-6077-7907-97be-ed40e213e905","019cef87-c56d-7b55-9135-c5814367ec25","","1063","
                <div class=""stimulus-container"">
                    <img src=""images/causal_sequence/package_causal/package_causal_8.png"" class=""exp-image"">
                    <div class=""question-area"">
                        <p style=""font-size: 20px; font-weight: bold; margin: 0;"">Is there a person in this image?</p>
                    </div>
                </div>","0","main_experiment_trial","8","package_causal","causal_sequence","","","",""
"","","","","","html-keyboard-response","54","222974","0.0-54.0","3707E54F77CC46269CBD944DE8D5603E","019cefb0-6077-7907-97be-ed40e213e905","019cef87-c56d-7b55-9135-c5814367ec25","","null","
                <div class=""stimulus-container"">
                    <img src=""images/causal_sequence/package_causal/package_causal_9.png"" class=""exp-image"">
                    <div class=""question-area""></div> 
                </div>","null","","","","","","","",""
"","","","","","html-button-response","55","223572","0.0-55.0","3707E54F77CC46269CBD944DE8D5603E","019cefb0-6077-7907-97be-ed40e213e905","019cef87-c56d-7b55-9135-c5814367ec25","","597","
                <div class=""stimulus-container"">
                    <img src=""images/causal_sequence/package_causal/package_causal_9.png"" class=""exp-image"">
                    <div class=""question-area"">
                        <p style=""font-size: 20px; font-weight: bold; margin: 0;"">Is there a person in this image?</p>
                    </div>
                </div>","0","main_experiment_trial","9","package_causal","causal_sequence","","","",""
"","","","","","html-keyboard-response","56","228574","0.0-56.0","3707E54F77CC46269CBD944DE8D5603E","019cefb0-6077-7907-97be-ed40e213e905","019cef87-c56d-7b55-9135-c5814367ec25","","null","
                <div class=""stimulus-container"">
                    <img src=""images/causal_sequence/package_causal/package_causal_ten.png"" class=""exp-image"">
                    <div class=""question-area""></div> 
                </div>","null","","","","","","","",""
"","","","","","html-button-response","57","229189","0.0-57.0","3707E54F77CC46269CBD944DE8D5603E","019cefb0-6077-7907-97be-ed40e213e905","019cef87-c56d-7b55-9135-c5814367ec25","","613","
                <div class=""stimulus-container"">
                    <img src=""images/causal_sequence/package_causal/package_causal_ten.png"" class=""exp-image"">
                    <div class=""question-area"">
                        <p style=""font-size: 20px; font-weight: bold; margin: 0;"">Is there a person in this image?</p>
                    </div>
                </div>","0","main_experiment_trial","ten","package_causal","causal_sequence","","","",""
"","","","","","html-keyboard-response","58","230191","0.0-58.0","3707E54F77CC46269CBD944DE8D5603E","019cefb0-6077-7907-97be-ed40e213e905","019cef87-c56d-7b55-9135-c5814367ec25","","null","<div style=""background-color: white; width: 100vw; height: 100vh;""></div>","null","","","","","","","",""
"","","","","","html-keyboard-response","59","235193","0.0-59.0","3707E54F77CC46269CBD944DE8D5603E","019cefb0-6077-7907-97be-ed40e213e905","019cef87-c56d-7b55-9135-c5814367ec25","","null","
                <div class=""stimulus-container"">
                    <img src=""images/schematic_sequence/restaurant_scheme/restaurant_scheme_1.png"" class=""exp-image"">
                    <div class=""question-area""></div> 
                </div>","null","","","","","","","",""
"","","","","","html-button-response","60","235973","0.0-60.0","3707E54F77CC46269CBD944DE8D5603E","019cefb0-6077-7907-97be-ed40e213e905","019cef87-c56d-7b55-9135-c5814367ec25","","778","
                <div class=""stimulus-container"">
                    <img src=""images/schematic_sequence/restaurant_scheme/restaurant_scheme_1.png"" class=""exp-image"">
                    <div class=""question-area"">
                        <p style=""font-size: 20px; font-weight: bold; margin: 0;"">Is there a person in this image?</p>
                    </div>
                </div>","0","main_experiment_trial","1","restaurant_scheme","schematic_sequence","","","",""
"","","","","","html-keyboard-response","61","240975","0.0-61.0","3707E54F77CC46269CBD944DE8D5603E","019cefb0-6077-7907-97be-ed40e213e905","019cef87-c56d-7b55-9135-c5814367ec25","","null","
                <div class=""stimulus-container"">
                    <img src=""images/schematic_sequence/restaurant_scheme/restaurant_scheme_2.png"" class=""exp-image"">
                    <div class=""question-area""></div> 
                </div>","null","","","","","","","",""
"","","","","","html-button-response","62","241825","0.0-62.0","3707E54F77CC46269CBD944DE8D5603E","019cefb0-6077-7907-97be-ed40e213e905","019cef87-c56d-7b55-9135-c5814367ec25","","848","
                <div class=""stimulus-container"">
                    <img src=""images/schematic_sequence/restaurant_scheme/restaurant_scheme_2.png"" class=""exp-image"">
                    <div class=""question-area"">
                        <p style=""font-size: 20px; font-weight: bold; margin: 0;"">Is there a person in this image?</p>
                    </div>
                </div>","1","main_experiment_trial","2","restaurant_scheme","schematic_sequence","","","",""
"","","","","","html-keyboard-response","63","246827","0.0-63.0","3707E54F77CC46269CBD944DE8D5603E","019cefb0-6077-7907-97be-ed40e213e905","019cef87-c56d-7b55-9135-c5814367ec25","","null","
                <div class=""stimulus-container"">
                    <img src=""images/schematic_sequence/restaurant_scheme/restaurant_scheme_3.png"" class=""exp-image"">
                    <div class=""question-area""></div> 
                </div>","null","","","","","","","",""
"","","","","","html-button-response","64","247821","0.0-64.0","3707E54F77CC46269CBD944DE8D5603E","019cefb0-6077-7907-97be-ed40e213e905","019cef87-c56d-7b55-9135-c5814367ec25","","994","
                <div class=""stimulus-container"">
                    <img src=""images/schematic_sequence/restaurant_scheme/restaurant_scheme_3.png"" class=""exp-image"">
                    <div class=""question-area"">
                        <p style=""font-size: 20px; font-weight: bold; margin: 0;"">Is there a person in this image?</p>
                    </div>
                </div>","1","main_experiment_trial","3","restaurant_scheme","schematic_sequence","","","",""
"","","","","","html-keyboard-response","65","252824","0.0-65.0","3707E54F77CC46269CBD944DE8D5603E","019cefb0-6077-7907-97be-ed40e213e905","019cef87-c56d-7b55-9135-c5814367ec25","","null","
                <div class=""stimulus-container"">
                    <img src=""images/schematic_sequence/restaurant_scheme/restaurant_scheme_4.png"" class=""exp-image"">
                    <div class=""question-area""></div> 
                </div>","null","","","","","","","",""
"","","","","","html-button-response","66","253522","0.0-66.0","3707E54F77CC46269CBD944DE8D5603E","019cefb0-6077-7907-97be-ed40e213e905","019cef87-c56d-7b55-9135-c5814367ec25","","696","
                <div class=""stimulus-container"">
                    <img src=""images/schematic_sequence/restaurant_scheme/restaurant_scheme_4.png"" class=""exp-image"">
                    <div class=""question-area"">
                        <p style=""font-size: 20px; font-weight: bold; margin: 0;"">Is there a person in this image?</p>
                    </div>
                </div>","0","main_experiment_trial","4","restaurant_scheme","schematic_sequence","","","",""
"","","","","","html-keyboard-response","67","258524","0.0-67.0","3707E54F77CC46269CBD944DE8D5603E","019cefb0-6077-7907-97be-ed40e213e905","019cef87-c56d-7b55-9135-c5814367ec25","","null","
                <div class=""stimulus-container"">
                    <img src=""images/schematic_sequence/restaurant_scheme/restaurant_scheme_5.png"" class=""exp-image"">
                    <div class=""question-area""></div> 
                </div>","null","","","","","","","",""
"","","","","","html-button-response","68","259855","0.0-68.0","3707E54F77CC46269CBD944DE8D5603E","019cefb0-6077-7907-97be-ed40e213e905","019cef87-c56d-7b55-9135-c5814367ec25","","1329","
                <div class=""stimulus-container"">
                    <img src=""images/schematic_sequence/restaurant_scheme/restaurant_scheme_5.png"" class=""exp-image"">
                    <div class=""question-area"">
                        <p style=""font-size: 20px; font-weight: bold; margin: 0;"">Is there a person in this image?</p>
                    </div>
                </div>","0","main_experiment_trial","5","restaurant_scheme","schematic_sequence","","","",""
"","","","","","html-keyboard-response","69","264857","0.0-69.0","3707E54F77CC46269CBD944DE8D5603E","019cefb0-6077-7907-97be-ed40e213e905","019cef87-c56d-7b55-9135-c5814367ec25","","null","
                <div class=""stimulus-container"">
                    <img src=""images/schematic_sequence/restaurant_scheme/restaurant_scheme_6.png"" class=""exp-image"">
                    <div class=""question-area""></div> 
                </div>","null","","","","","","","",""
"","","","","","html-button-response","70","265691","0.0-70.0","3707E54F77CC46269CBD944DE8D5603E","019cefb0-6077-7907-97be-ed40e213e905","019cef87-c56d-7b55-9135-c5814367ec25","","832","
                <div class=""stimulus-container"">
                    <img src=""images/schematic_sequence/restaurant_scheme/restaurant_scheme_6.png"" class=""exp-image"">
                    <div class=""question-area"">
                        <p style=""font-size: 20px; font-weight: bold; margin: 0;"">Is there a person in this image?</p>
                    </div>
                </div>","1","main_experiment_trial","6","restaurant_scheme","schematic_sequence","","","",""
"","","","","","html-keyboard-response","71","270693","0.0-71.0","3707E54F77CC46269CBD944DE8D5603E","019cefb0-6077-7907-97be-ed40e213e905","019cef87-c56d-7b55-9135-c5814367ec25","","null","
                <div class=""stimulus-container"">
                    <img src=""images/schematic_sequence/restaurant_scheme/restaurant_scheme_7.png"" class=""exp-image"">
                    <div class=""question-area""></div> 
                </div>","null","","","","","","","",""
"","","","","","html-button-response","72","272070","0.0-72.0","3707E54F77CC46269CBD944DE8D5603E","019cefb0-6077-7907-97be-ed40e213e905","019cef87-c56d-7b55-9135-c5814367ec25","","1375","
                <div class=""stimulus-container"">
                    <img src=""images/schematic_sequence/restaurant_scheme/restaurant_scheme_7.png"" class=""exp-image"">
                    <div class=""question-area"">
                        <p style=""font-size: 20px; font-weight: bold; margin: 0;"">Is there a person in this image?</p>
                    </div>
                </div>","1","main_experiment_trial","7","restaurant_scheme","schematic_sequence","","","",""
"","","","","","html-keyboard-response","73","277072","0.0-73.0","3707E54F77CC46269CBD944DE8D5603E","019cefb0-6077-7907-97be-ed40e213e905","019cef87-c56d-7b55-9135-c5814367ec25","","null","
                <div class=""stimulus-container"">
                    <img src=""images/schematic_sequence/restaurant_scheme/restaurant_scheme_8.png"" class=""exp-image"">
                    <div class=""question-area""></div> 
                </div>","null","","","","","","","",""
"","","","","","html-button-response","74","278292","0.0-74.0","3707E54F77CC46269CBD944DE8D5603E","019cefb0-6077-7907-97be-ed40e213e905","019cef87-c56d-7b55-9135-c5814367ec25","","1218","
                <div class=""stimulus-container"">
                    <img src=""images/schematic_sequence/restaurant_scheme/restaurant_scheme_8.png"" class=""exp-image"">
                    <div class=""question-area"">
                        <p style=""font-size: 20px; font-weight: bold; margin: 0;"">Is there a person in this image?</p>
                    </div>
                </div>","1","main_experiment_trial","8","restaurant_scheme","schematic_sequence","","","",""
"","","","","","html-keyboard-response","75","283293","0.0-75.0","3707E54F77CC46269CBD944DE8D5603E","019cefb0-6077-7907-97be-ed40e213e905","019cef87-c56d-7b55-9135-c5814367ec25","","null","
                <div class=""stimulus-container"">
                    <img src=""images/schematic_sequence/restaurant_scheme/restaurant_scheme_9.png"" class=""exp-image"">
                    <div class=""question-area""></div> 
                </div>","null","","","","","","","",""
"","","","","","html-button-response","76","284355","0.0-76.0","3707E54F77CC46269CBD944DE8D5603E","019cefb0-6077-7907-97be-ed40e213e905","019cef87-c56d-7b55-9135-c5814367ec25","","1060","
                <div class=""stimulus-container"">
                    <img src=""images/schematic_sequence/restaurant_scheme/restaurant_scheme_9.png"" class=""exp-image"">
                    <div class=""question-area"">
                        <p style=""font-size: 20px; font-weight: bold; margin: 0;"">Is there a person in this image?</p>
                    </div>
                </div>","0","main_experiment_trial","9","restaurant_scheme","schematic_sequence","","","",""
"","","","","","html-keyboard-response","77","289357","0.0-77.0","3707E54F77CC46269CBD944DE8D5603E","019cefb0-6077-7907-97be-ed40e213e905","019cef87-c56d-7b55-9135-c5814367ec25","","null","
                <div class=""stimulus-container"">
                    <img src=""images/schematic_sequence/restaurant_scheme/restaurant_scheme_ten.png"" class=""exp-image"">
                    <div class=""question-area""></div> 
                </div>","null","","","","","","","",""
"","","","","","html-button-response","78","290105","0.0-78.0","3707E54F77CC46269CBD944DE8D5603E","019cefb0-6077-7907-97be-ed40e213e905","019cef87-c56d-7b55-9135-c5814367ec25","","746","
                <div class=""stimulus-container"">
                    <img src=""images/schematic_sequence/restaurant_scheme/restaurant_scheme_ten.png"" class=""exp-image"">
                    <div class=""question-area"">
                        <p style=""font-size: 20px; font-weight: bold; margin: 0;"">Is there a person in this image?</p>
                    </div>
                </div>","0","main_experiment_trial","ten","restaurant_scheme","schematic_sequence","","","",""
"","","","","","html-keyboard-response","79","291107","0.0-79.0","3707E54F77CC46269CBD944DE8D5603E","019cefb0-6077-7907-97be-ed40e213e905","019cef87-c56d-7b55-9135-c5814367ec25","","null","<div style=""background-color: white; width: 100vw; height: 100vh;""></div>","null","","","","","","","",""
"","","","","","html-keyboard-response","80","296109","0.0-80.0","3707E54F77CC46269CBD944DE8D5603E","019cefb0-6077-7907-97be-ed40e213e905","019cef87-c56d-7b55-9135-c5814367ec25","","null","
                <div class=""stimulus-container"">
                    <img src=""images/causal_sequence/dog_causal/dog_causal_1.png"" class=""exp-image"">
                    <div class=""question-area""></div> 
                </div>","null","","","","","","","",""
"","","","","","html-button-response","81","297355","0.0-81.0","3707E54F77CC46269CBD944DE8D5603E","019cefb0-6077-7907-97be-ed40e213e905","019cef87-c56d-7b55-9135-c5814367ec25","","1244","
                <div class=""stimulus-container"">
                    <img src=""images/causal_sequence/dog_causal/dog_causal_1.png"" class=""exp-image"">
                    <div class=""question-area"">
                        <p style=""font-size: 20px; font-weight: bold; margin: 0;"">Is there a person in this image?</p>
                    </div>
                </div>","0","main_experiment_trial","1","dog_causal","causal_sequence","","","",""
"","","","","","html-keyboard-response","82","302357","0.0-82.0","3707E54F77CC46269CBD944DE8D5603E","019cefb0-6077-7907-97be-ed40e213e905","019cef87-c56d-7b55-9135-c5814367ec25","","null","
                <div class=""stimulus-container"">
                    <img src=""images/causal_sequence/dog_causal/dog_causal_2.png"" class=""exp-image"">
                    <div class=""question-area""></div> 
                </div>","null","","","","","","","",""
"","","","","","html-button-response","83","302938","0.0-83.0","3707E54F77CC46269CBD944DE8D5603E","019cefb0-6077-7907-97be-ed40e213e905","019cef87-c56d-7b55-9135-c5814367ec25","","581","
                <div class=""stimulus-container"">
                    <img src=""images/causal_sequence/dog_causal/dog_causal_2.png"" class=""exp-image"">
                    <div class=""question-area"">
                        <p style=""font-size: 20px; font-weight: bold; margin: 0;"">Is there a person in this image?</p>
                    </div>
                </div>","0","main_experiment_trial","2","dog_causal","causal_sequence","","","",""
"","","","","","html-keyboard-response","84","307940","0.0-84.0","3707E54F77CC46269CBD944DE8D5603E","019cefb0-6077-7907-97be-ed40e213e905","019cef87-c56d-7b55-9135-c5814367ec25","","null","
                <div class=""stimulus-container"">
                    <img src=""images/causal_sequence/dog_causal/dog_causal_3.png"" class=""exp-image"">
                    <div class=""question-area""></div> 
                </div>","null","","","","","","","",""
"","","","","","html-button-response","85","309022","0.0-85.0","3707E54F77CC46269CBD944DE8D5603E","019cefb0-6077-7907-97be-ed40e213e905","019cef87-c56d-7b55-9135-c5814367ec25","","1080","
                <div class=""stimulus-container"">
                    <img src=""images/causal_sequence/dog_causal/dog_causal_3.png"" class=""exp-image"">
                    <div class=""question-area"">
                        <p style=""font-size: 20px; font-weight: bold; margin: 0;"">Is there a person in this image?</p>
                    </div>
                </div>","0","main_experiment_trial","3","dog_causal","causal_sequence","","","",""
"","","","","","html-keyboard-response","86","314024","0.0-86.0","3707E54F77CC46269CBD944DE8D5603E","019cefb0-6077-7907-97be-ed40e213e905","019cef87-c56d-7b55-9135-c5814367ec25","","null","
                <div class=""stimulus-container"">
                    <img src=""images/causal_sequence/dog_causal/dog_causal_4.png"" class=""exp-image"">
                    <div class=""question-area""></div> 
                </div>","null","","","","","","","",""
"","","","","","html-button-response","87","314855","0.0-87.0","3707E54F77CC46269CBD944DE8D5603E","019cefb0-6077-7907-97be-ed40e213e905","019cef87-c56d-7b55-9135-c5814367ec25","","829","
                <div class=""stimulus-container"">
                    <img src=""images/causal_sequence/dog_causal/dog_causal_4.png"" class=""exp-image"">
                    <div class=""question-area"">
                        <p style=""font-size: 20px; font-weight: bold; margin: 0;"">Is there a person in this image?</p>
                    </div>
                </div>","0","main_experiment_trial","4","dog_causal","causal_sequence","","","",""
"","","","","","html-keyboard-response","88","319857","0.0-88.0","3707E54F77CC46269CBD944DE8D5603E","019cefb0-6077-7907-97be-ed40e213e905","019cef87-c56d-7b55-9135-c5814367ec25","","null","
                <div class=""stimulus-container"">
                    <img src=""images/causal_sequence/dog_causal/dog_causal_5.png"" class=""exp-image"">
                    <div class=""question-area""></div> 
                </div>","null","","","","","","","",""
"","","","","","html-button-response","89","321188","0.0-89.0","3707E54F77CC46269CBD944DE8D5603E","019cefb0-6077-7907-97be-ed40e213e905","019cef87-c56d-7b55-9135-c5814367ec25","","1329","
                <div class=""stimulus-container"">
                    <img src=""images/causal_sequence/dog_causal/dog_causal_5.png"" class=""exp-image"">
                    <div class=""question-area"">
                        <p style=""font-size: 20px; font-weight: bold; margin: 0;"">Is there a person in this image?</p>
                    </div>
                </div>","0","main_experiment_trial","5","dog_causal","causal_sequence","","","",""
"","","","","","html-keyboard-response","90","326190","0.0-90.0","3707E54F77CC46269CBD944DE8D5603E","019cefb0-6077-7907-97be-ed40e213e905","019cef87-c56d-7b55-9135-c5814367ec25","","null","
                <div class=""stimulus-container"">
                    <img src=""images/causal_sequence/dog_causal/dog_causal_6.png"" class=""exp-image"">
                    <div class=""question-area""></div> 
                </div>","null","","","","","","","",""
"","","","","","html-button-response","91","327421","0.0-91.0","3707E54F77CC46269CBD944DE8D5603E","019cefb0-6077-7907-97be-ed40e213e905","019cef87-c56d-7b55-9135-c5814367ec25","","1229","
                <div class=""stimulus-container"">
                    <img src=""images/causal_sequence/dog_causal/dog_causal_6.png"" class=""exp-image"">
                    <div class=""question-area"">
                        <p style=""font-size: 20px; font-weight: bold; margin: 0;"">Is there a person in this image?</p>
                    </div>
                </div>","0","main_experiment_trial","6","dog_causal","causal_sequence","","","",""
"","","","","","html-keyboard-response","92","332423","0.0-92.0","3707E54F77CC46269CBD944DE8D5603E","019cefb0-6077-7907-97be-ed40e213e905","019cef87-c56d-7b55-9135-c5814367ec25","","null","
                <div class=""stimulus-container"">
                    <img src=""images/causal_sequence/dog_causal/dog_causal_7.png"" class=""exp-image"">
                    <div class=""question-area""></div> 
                </div>","null","","","","","","","",""
"","","","","","html-button-response","93","333605","0.0-93.0","3707E54F77CC46269CBD944DE8D5603E","019cefb0-6077-7907-97be-ed40e213e905","019cef87-c56d-7b55-9135-c5814367ec25","","1181","
                <div class=""stimulus-container"">
                    <img src=""images/causal_sequence/dog_causal/dog_causal_7.png"" class=""exp-image"">
                    <div class=""question-area"">
                        <p style=""font-size: 20px; font-weight: bold; margin: 0;"">Is there a person in this image?</p>
                    </div>
                </div>","0","main_experiment_trial","7","dog_causal","causal_sequence","","","",""
"","","","","","html-keyboard-response","94","338607","0.0-94.0","3707E54F77CC46269CBD944DE8D5603E","019cefb0-6077-7907-97be-ed40e213e905","019cef87-c56d-7b55-9135-c5814367ec25","","null","
                <div class=""stimulus-container"">
                    <img src=""images/causal_sequence/dog_causal/dog_causal_8.png"" class=""exp-image"">
                    <div class=""question-area""></div> 
                </div>","null","","","","","","","",""
"","","","","","html-button-response","95","339771","0.0-95.0","3707E54F77CC46269CBD944DE8D5603E","019cefb0-6077-7907-97be-ed40e213e905","019cef87-c56d-7b55-9135-c5814367ec25","","1163","
                <div class=""stimulus-container"">
                    <img src=""images/causal_sequence/dog_causal/dog_causal_8.png"" class=""exp-image"">
                    <div class=""question-area"">
                        <p style=""font-size: 20px; font-weight: bold; margin: 0;"">Is there a person in this image?</p>
                    </div>
                </div>","0","main_experiment_trial","8","dog_causal","causal_sequence","","","",""
"","","","","","html-keyboard-response","96","344773","0.0-96.0","3707E54F77CC46269CBD944DE8D5603E","019cefb0-6077-7907-97be-ed40e213e905","019cef87-c56d-7b55-9135-c5814367ec25","","null","
                <div class=""stimulus-container"">
                    <img src=""images/causal_sequence/dog_causal/dog_causal_9.png"" class=""exp-image"">
                    <div class=""question-area""></div> 
                </div>","null","","","","","","","",""
"","","","","","html-button-response","97","345721","0.0-97.0","3707E54F77CC46269CBD944DE8D5603E","019cefb0-6077-7907-97be-ed40e213e905","019cef87-c56d-7b55-9135-c5814367ec25","","946","
                <div class=""stimulus-container"">
                    <img src=""images/causal_sequence/dog_causal/dog_causal_9.png"" class=""exp-image"">
                    <div class=""question-area"">
                        <p style=""font-size: 20px; font-weight: bold; margin: 0;"">Is there a person in this image?</p>
                    </div>
                </div>","0","main_experiment_trial","9","dog_causal","causal_sequence","","","",""
"","","","","","html-keyboard-response","98","350723","0.0-98.0","3707E54F77CC46269CBD944DE8D5603E","019cefb0-6077-7907-97be-ed40e213e905","019cef87-c56d-7b55-9135-c5814367ec25","","null","
                <div class=""stimulus-container"">
                    <img src=""images/causal_sequence/dog_causal/dog_causal_ten.png"" class=""exp-image"">
                    <div class=""question-area""></div> 
                </div>","null","","","","","","","",""
"","","","","","html-button-response","99","352772","0.0-99.0","3707E54F77CC46269CBD944DE8D5603E","019cefb0-6077-7907-97be-ed40e213e905","019cef87-c56d-7b55-9135-c5814367ec25","","2048","
                <div class=""stimulus-container"">
                    <img src=""images/causal_sequence/dog_causal/dog_causal_ten.png"" class=""exp-image"">
                    <div class=""question-area"">
                        <p style=""font-size: 20px; font-weight: bold; margin: 0;"">Is there a person in this image?</p>
                    </div>
                </div>","0","main_experiment_trial","ten","dog_causal","causal_sequence","","","",""
"","","","","","html-keyboard-response","100","353773","0.0-100.0","3707E54F77CC46269CBD944DE8D5603E","019cefb0-6077-7907-97be-ed40e213e905","019cef87-c56d-7b55-9135-c5814367ec25","","null","<div style=""background-color: white; width: 100vw; height: 100vh;""></div>","null","","","","","","","",""
"","","","","","html-keyboard-response","101","358775","0.0-101.0","3707E54F77CC46269CBD944DE8D5603E","019cefb0-6077-7907-97be-ed40e213e905","019cef87-c56d-7b55-9135-c5814367ec25","","null","
                <div class=""stimulus-container"">
                    <img src=""images/causal_sequence/museum_causal/museum_causal_1.png"" class=""exp-image"">
                    <div class=""question-area""></div> 
                </div>","null","","","","","","","",""
"","","","","","html-button-response","102","360072","0.0-102.0","3707E54F77CC46269CBD944DE8D5603E","019cefb0-6077-7907-97be-ed40e213e905","019cef87-c56d-7b55-9135-c5814367ec25","","1295","
                <div class=""stimulus-container"">
                    <img src=""images/causal_sequence/museum_causal/museum_causal_1.png"" class=""exp-image"">
                    <div class=""question-area"">
                        <p style=""font-size: 20px; font-weight: bold; margin: 0;"">Is there a person in this image?</p>
                    </div>
                </div>","0","main_experiment_trial","1","museum_causal","causal_sequence","","","",""
"","","","","","html-keyboard-response","103","365074","0.0-103.0","3707E54F77CC46269CBD944DE8D5603E","019cefb0-6077-7907-97be-ed40e213e905","019cef87-c56d-7b55-9135-c5814367ec25","","null","
                <div class=""stimulus-container"">
                    <img src=""images/causal_sequence/museum_causal/museum_causal_2.png"" class=""exp-image"">
                    <div class=""question-area""></div> 
                </div>","null","","","","","","","",""
"","","","","","html-button-response","104","365838","0.0-104.0","3707E54F77CC46269CBD944DE8D5603E","019cefb0-6077-7907-97be-ed40e213e905","019cef87-c56d-7b55-9135-c5814367ec25","","762","
                <div class=""stimulus-container"">
                    <img src=""images/causal_sequence/museum_causal/museum_causal_2.png"" class=""exp-image"">
                    <div class=""question-area"">
                        <p style=""font-size: 20px; font-weight: bold; margin: 0;"">Is there a person in this image?</p>
                    </div>
                </div>","1","main_experiment_trial","2","museum_causal","causal_sequence","","","",""
"","","","","","html-keyboard-response","105","370840","0.0-105.0","3707E54F77CC46269CBD944DE8D5603E","019cefb0-6077-7907-97be-ed40e213e905","019cef87-c56d-7b55-9135-c5814367ec25","","null","
                <div class=""stimulus-container"">
                    <img src=""images/causal_sequence/museum_causal/museum_causal_3.png"" class=""exp-image"">
                    <div class=""question-area""></div> 
                </div>","null","","","","","","","",""
"","","","","","html-button-response","106","371769","0.0-106.0","3707E54F77CC46269CBD944DE8D5603E","019cefb0-6077-7907-97be-ed40e213e905","019cef87-c56d-7b55-9135-c5814367ec25","","928","
                <div class=""stimulus-container"">
                    <img src=""images/causal_sequence/museum_causal/museum_causal_3.png"" class=""exp-image"">
                    <div class=""question-area"">
                        <p style=""font-size: 20px; font-weight: bold; margin: 0;"">Is there a person in this image?</p>
                    </div>
                </div>","0","main_experiment_trial","3","museum_causal","causal_sequence","","","",""
"","","","","","html-keyboard-response","107","376771","0.0-107.0","3707E54F77CC46269CBD944DE8D5603E","019cefb0-6077-7907-97be-ed40e213e905","019cef87-c56d-7b55-9135-c5814367ec25","","null","
                <div class=""stimulus-container"">
                    <img src=""images/causal_sequence/museum_causal/museum_causal_4.png"" class=""exp-image"">
                    <div class=""question-area""></div> 
                </div>","null","","","","","","","",""
"","","","","","html-button-response","108","378387","0.0-108.0","3707E54F77CC46269CBD944DE8D5603E","019cefb0-6077-7907-97be-ed40e213e905","019cef87-c56d-7b55-9135-c5814367ec25","","1615","
                <div class=""stimulus-container"">
                    <img src=""images/causal_sequence/museum_causal/museum_causal_4.png"" class=""exp-image"">
                    <div class=""question-area"">
                        <p style=""font-size: 20px; font-weight: bold; margin: 0;"">Is there a person in this image?</p>
                    </div>
                </div>","1","main_experiment_trial","4","museum_causal","causal_sequence","","","",""
"","","","","","html-keyboard-response","109","383389","0.0-109.0","3707E54F77CC46269CBD944DE8D5603E","019cefb0-6077-7907-97be-ed40e213e905","019cef87-c56d-7b55-9135-c5814367ec25","","null","
                <div class=""stimulus-container"">
                    <img src=""images/causal_sequence/museum_causal/museum_causal_5.png"" class=""exp-image"">
                    <div class=""question-area""></div> 
                </div>","null","","","","","","","",""
"","","","","","html-button-response","110","384721","0.0-110.0","3707E54F77CC46269CBD944DE8D5603E","019cefb0-6077-7907-97be-ed40e213e905","019cef87-c56d-7b55-9135-c5814367ec25","","1331","
                <div class=""stimulus-container"">
                    <img src=""images/causal_sequence/museum_causal/museum_causal_5.png"" class=""exp-image"">
                    <div class=""question-area"">
                        <p style=""font-size: 20px; font-weight: bold; margin: 0;"">Is there a person in this image?</p>
                    </div>
                </div>","0","main_experiment_trial","5","museum_causal","causal_sequence","","","",""
"","","","","","html-keyboard-response","111","389724","0.0-111.0","3707E54F77CC46269CBD944DE8D5603E","019cefb0-6077-7907-97be-ed40e213e905","019cef87-c56d-7b55-9135-c5814367ec25","","null","
                <div class=""stimulus-container"">
                    <img src=""images/causal_sequence/museum_causal/museum_causal_6.png"" class=""exp-image"">
                    <div class=""question-area""></div> 
                </div>","null","","","","","","","",""
"","","","","","html-button-response","112","391177","0.0-112.0","3707E54F77CC46269CBD944DE8D5603E","019cefb0-6077-7907-97be-ed40e213e905","019cef87-c56d-7b55-9135-c5814367ec25","","1451","
                <div class=""stimulus-container"">
                    <img src=""images/causal_sequence/museum_causal/museum_causal_6.png"" class=""exp-image"">
                    <div class=""question-area"">
                        <p style=""font-size: 20px; font-weight: bold; margin: 0;"">Is there a person in this image?</p>
                    </div>
                </div>","0","main_experiment_trial","6","museum_causal","causal_sequence","","","",""
"","","","","","html-keyboard-response","113","396179","0.0-113.0","3707E54F77CC46269CBD944DE8D5603E","019cefb0-6077-7907-97be-ed40e213e905","019cef87-c56d-7b55-9135-c5814367ec25","","null","
                <div class=""stimulus-container"">
                    <img src=""images/causal_sequence/museum_causal/museum_causal_7.png"" class=""exp-image"">
                    <div class=""question-area""></div> 
                </div>","null","","","","","","","",""
"","","","","","html-button-response","114","397840","0.0-114.0","3707E54F77CC46269CBD944DE8D5603E","019cefb0-6077-7907-97be-ed40e213e905","019cef87-c56d-7b55-9135-c5814367ec25","","1660","
                <div class=""stimulus-container"">
                    <img src=""images/causal_sequence/museum_causal/museum_causal_7.png"" class=""exp-image"">
                    <div class=""question-area"">
                        <p style=""font-size: 20px; font-weight: bold; margin: 0;"">Is there a person in this image?</p>
                    </div>
                </div>","1","main_experiment_trial","7","museum_causal","causal_sequence","","","",""
"","","","","","html-keyboard-response","115","402842","0.0-115.0","3707E54F77CC46269CBD944DE8D5603E","019cefb0-6077-7907-97be-ed40e213e905","019cef87-c56d-7b55-9135-c5814367ec25","","null","
                <div class=""stimulus-container"">
                    <img src=""images/causal_sequence/museum_causal/museum_causal_8.png"" class=""exp-image"">
                    <div class=""question-area""></div> 
                </div>","null","","","","","","","",""
"","","","","","html-button-response","116","404604","0.0-116.0","3707E54F77CC46269CBD944DE8D5603E","019cefb0-6077-7907-97be-ed40e213e905","019cef87-c56d-7b55-9135-c5814367ec25","","1762","
                <div class=""stimulus-container"">
                    <img src=""images/causal_sequence/museum_causal/museum_causal_8.png"" class=""exp-image"">
                    <div class=""question-area"">
                        <p style=""font-size: 20px; font-weight: bold; margin: 0;"">Is there a person in this image?</p>
                    </div>
                </div>","0","main_experiment_trial","8","museum_causal","causal_sequence","","","",""
"","","","","","html-keyboard-response","117","409606","0.0-117.0","3707E54F77CC46269CBD944DE8D5603E","019cefb0-6077-7907-97be-ed40e213e905","019cef87-c56d-7b55-9135-c5814367ec25","","null","
                <div class=""stimulus-container"">
                    <img src=""images/causal_sequence/museum_causal/museum_causal_9.png"" class=""exp-image"">
                    <div class=""question-area""></div> 
                </div>","null","","","","","","","",""
"","","","","","html-button-response","118","410589","0.0-118.0","3707E54F77CC46269CBD944DE8D5603E","019cefb0-6077-7907-97be-ed40e213e905","019cef87-c56d-7b55-9135-c5814367ec25","","981","
                <div class=""stimulus-container"">
                    <img src=""images/causal_sequence/museum_causal/museum_causal_9.png"" class=""exp-image"">
                    <div class=""question-area"">
                        <p style=""font-size: 20px; font-weight: bold; margin: 0;"">Is there a person in this image?</p>
                    </div>
                </div>","1","main_experiment_trial","9","museum_causal","causal_sequence","","","",""
"","","","","","html-keyboard-response","119","415592","0.0-119.0","3707E54F77CC46269CBD944DE8D5603E","019cefb0-6077-7907-97be-ed40e213e905","019cef87-c56d-7b55-9135-c5814367ec25","","null","
                <div class=""stimulus-container"">
                    <img src=""images/causal_sequence/museum_causal/museum_causal_ten.png"" class=""exp-image"">
                    <div class=""question-area""></div> 
                </div>","null","","","","","","","",""
"","","","","","html-button-response","120","418272","0.0-120.0","3707E54F77CC46269CBD944DE8D5603E","019cefb0-6077-7907-97be-ed40e213e905","019cef87-c56d-7b55-9135-c5814367ec25","","2678","
                <div class=""stimulus-container"">
                    <img src=""images/causal_sequence/museum_causal/museum_causal_ten.png"" class=""exp-image"">
                    <div class=""question-area"">
                        <p style=""font-size: 20px; font-weight: bold; margin: 0;"">Is there a person in this image?</p>
                    </div>
                </div>","0","main_experiment_trial","ten","museum_causal","causal_sequence","","","",""
"","","","","","html-keyboard-response","121","419274","0.0-121.0","3707E54F77CC46269CBD944DE8D5603E","019cefb0-6077-7907-97be-ed40e213e905","019cef87-c56d-7b55-9135-c5814367ec25","","null","<div style=""background-color: white; width: 100vw; height: 100vh;""></div>","null","","","","","","","",""
"","","","","","html-keyboard-response","122","424276","0.0-122.0","3707E54F77CC46269CBD944DE8D5603E","019cefb0-6077-7907-97be-ed40e213e905","019cef87-c56d-7b55-9135-c5814367ec25","","null","
                <div class=""stimulus-container"">
                    <img src=""images/schematic_sequence/flight_scheme/flight_scheme_1.png"" class=""exp-image"">
                    <div class=""question-area""></div> 
                </div>","null","","","","","","","",""
"","","","","","html-button-response","123","425038","0.0-123.0","3707E54F77CC46269CBD944DE8D5603E","019cefb0-6077-7907-97be-ed40e213e905","019cef87-c56d-7b55-9135-c5814367ec25","","760","
                <div class=""stimulus-container"">
                    <img src=""images/schematic_sequence/flight_scheme/flight_scheme_1.png"" class=""exp-image"">
                    <div class=""question-area"">
                        <p style=""font-size: 20px; font-weight: bold; margin: 0;"">Is there a person in this image?</p>
                    </div>
                </div>","1","main_experiment_trial","1","flight_scheme","schematic_sequence","","","",""
"","","","","","html-keyboard-response","124","430040","0.0-124.0","3707E54F77CC46269CBD944DE8D5603E","019cefb0-6077-7907-97be-ed40e213e905","019cef87-c56d-7b55-9135-c5814367ec25","","null","
                <div class=""stimulus-container"">
                    <img src=""images/schematic_sequence/flight_scheme/flight_scheme_2.png"" class=""exp-image"">
                    <div class=""question-area""></div> 
                </div>","null","","","","","","","",""
"","","","","","html-button-response","125","431038","0.0-125.0","3707E54F77CC46269CBD944DE8D5603E","019cefb0-6077-7907-97be-ed40e213e905","019cef87-c56d-7b55-9135-c5814367ec25","","997","
                <div class=""stimulus-container"">
                    <img src=""images/schematic_sequence/flight_scheme/flight_scheme_2.png"" class=""exp-image"">
                    <div class=""question-area"">
                        <p style=""font-size: 20px; font-weight: bold; margin: 0;"">Is there a person in this image?</p>
                    </div>
                </div>","1","main_experiment_trial","2","flight_scheme","schematic_sequence","","","",""
"","","","","","html-keyboard-response","126","436039","0.0-126.0","3707E54F77CC46269CBD944DE8D5603E","019cefb0-6077-7907-97be-ed40e213e905","019cef87-c56d-7b55-9135-c5814367ec25","","null","
                <div class=""stimulus-container"">
                    <img src=""images/schematic_sequence/flight_scheme/flight_scheme_3.png"" class=""exp-image"">
                    <div class=""question-area""></div> 
                </div>","null","","","","","","","",""
"","","","","","html-button-response","127","436954","0.0-127.0","3707E54F77CC46269CBD944DE8D5603E","019cefb0-6077-7907-97be-ed40e213e905","019cef87-c56d-7b55-9135-c5814367ec25","","913","
                <div class=""stimulus-container"">
                    <img src=""images/schematic_sequence/flight_scheme/flight_scheme_3.png"" class=""exp-image"">
                    <div class=""question-area"">
                        <p style=""font-size: 20px; font-weight: bold; margin: 0;"">Is there a person in this image?</p>
                    </div>
                </div>","0","main_experiment_trial","3","flight_scheme","schematic_sequence","","","",""
"","","","","","html-keyboard-response","128","441956","0.0-128.0","3707E54F77CC46269CBD944DE8D5603E","019cefb0-6077-7907-97be-ed40e213e905","019cef87-c56d-7b55-9135-c5814367ec25","","null","
                <div class=""stimulus-container"">
                    <img src=""images/schematic_sequence/flight_scheme/flight_scheme_4.png"" class=""exp-image"">
                    <div class=""question-area""></div> 
                </div>","null","","","","","","","",""
"","","","","","html-button-response","129","442839","0.0-129.0","3707E54F77CC46269CBD944DE8D5603E","019cefb0-6077-7907-97be-ed40e213e905","019cef87-c56d-7b55-9135-c5814367ec25","","882","
                <div class=""stimulus-container"">
                    <img src=""images/schematic_sequence/flight_scheme/flight_scheme_4.png"" class=""exp-image"">
                    <div class=""question-area"">
                        <p style=""font-size: 20px; font-weight: bold; margin: 0;"">Is there a person in this image?</p>
                    </div>
                </div>","0","main_experiment_trial","4","flight_scheme","schematic_sequence","","","",""
"","","","","","html-keyboard-response","130","447841","0.0-130.0","3707E54F77CC46269CBD944DE8D5603E","019cefb0-6077-7907-97be-ed40e213e905","019cef87-c56d-7b55-9135-c5814367ec25","","null","
                <div class=""stimulus-container"">
                    <img src=""images/schematic_sequence/flight_scheme/flight_scheme_5.png"" class=""exp-image"">
                    <div class=""question-area""></div> 
                </div>","null","","","","","","","",""
"","","","","","html-button-response","131","448642","0.0-131.0","3707E54F77CC46269CBD944DE8D5603E","019cefb0-6077-7907-97be-ed40e213e905","019cef87-c56d-7b55-9135-c5814367ec25","","799","
                <div class=""stimulus-container"">
                    <img src=""images/schematic_sequence/flight_scheme/flight_scheme_5.png"" class=""exp-image"">
                    <div class=""question-area"">
                        <p style=""font-size: 20px; font-weight: bold; margin: 0;"">Is there a person in this image?</p>
                    </div>
                </div>","0","main_experiment_trial","5","flight_scheme","schematic_sequence","","","",""
"","","","","","html-keyboard-response","132","453644","0.0-132.0","3707E54F77CC46269CBD944DE8D5603E","019cefb0-6077-7907-97be-ed40e213e905","019cef87-c56d-7b55-9135-c5814367ec25","","null","
                <div class=""stimulus-container"">
                    <img src=""images/schematic_sequence/flight_scheme/flight_scheme_6.png"" class=""exp-image"">
                    <div class=""question-area""></div> 
                </div>","null","","","","","","","",""
"","","","","","html-button-response","133","454552","0.0-133.0","3707E54F77CC46269CBD944DE8D5603E","019cefb0-6077-7907-97be-ed40e213e905","019cef87-c56d-7b55-9135-c5814367ec25","","907","
                <div class=""stimulus-container"">
                    <img src=""images/schematic_sequence/flight_scheme/flight_scheme_6.png"" class=""exp-image"">
                    <div class=""question-area"">
                        <p style=""font-size: 20px; font-weight: bold; margin: 0;"">Is there a person in this image?</p>
                    </div>
                </div>","1","main_experiment_trial","6","flight_scheme","schematic_sequence","","","",""
"","","","","","html-keyboard-response","134","459554","0.0-134.0","3707E54F77CC46269CBD944DE8D5603E","019cefb0-6077-7907-97be-ed40e213e905","019cef87-c56d-7b55-9135-c5814367ec25","","null","
                <div class=""stimulus-container"">
                    <img src=""images/schematic_sequence/flight_scheme/flight_scheme_7.png"" class=""exp-image"">
                    <div class=""question-area""></div> 
                </div>","null","","","","","","","",""
"","","","","","html-button-response","135","460289","0.0-135.0","3707E54F77CC46269CBD944DE8D5603E","019cefb0-6077-7907-97be-ed40e213e905","019cef87-c56d-7b55-9135-c5814367ec25","","734","
                <div class=""stimulus-container"">
                    <img src=""images/schematic_sequence/flight_scheme/flight_scheme_7.png"" class=""exp-image"">
                    <div class=""question-area"">
                        <p style=""font-size: 20px; font-weight: bold; margin: 0;"">Is there a person in this image?</p>
                    </div>
                </div>","1","main_experiment_trial","7","flight_scheme","schematic_sequence","","","",""
"","","","","","html-keyboard-response","136","465292","0.0-136.0","3707E54F77CC46269CBD944DE8D5603E","019cefb0-6077-7907-97be-ed40e213e905","019cef87-c56d-7b55-9135-c5814367ec25","","null","
                <div class=""stimulus-container"">
                    <img src=""images/schematic_sequence/flight_scheme/flight_scheme_8.png"" class=""exp-image"">
                    <div class=""question-area""></div> 
                </div>","null","","","","","","","",""
"","","","","","html-button-response","137","466469","0.0-137.0","3707E54F77CC46269CBD944DE8D5603E","019cefb0-6077-7907-97be-ed40e213e905","019cef87-c56d-7b55-9135-c5814367ec25","","1177","
                <div class=""stimulus-container"">
                    <img src=""images/schematic_sequence/flight_scheme/flight_scheme_8.png"" class=""exp-image"">
                    <div class=""question-area"">
                        <p style=""font-size: 20px; font-weight: bold; margin: 0;"">Is there a person in this image?</p>
                    </div>
                </div>","1","main_experiment_trial","8","flight_scheme","schematic_sequence","","","",""
"","","","","","html-keyboard-response","138","471472","0.0-138.0","3707E54F77CC46269CBD944DE8D5603E","019cefb0-6077-7907-97be-ed40e213e905","019cef87-c56d-7b55-9135-c5814367ec25","","null","
                <div class=""stimulus-container"">
                    <img src=""images/schematic_sequence/flight_scheme/flight_scheme_9.png"" class=""exp-image"">
                    <div class=""question-area""></div> 
                </div>","null","","","","","","","",""
"","","","","","html-button-response","139","472539","0.0-139.0","3707E54F77CC46269CBD944DE8D5603E","019cefb0-6077-7907-97be-ed40e213e905","019cef87-c56d-7b55-9135-c5814367ec25","","1066","
                <div class=""stimulus-container"">
                    <img src=""images/schematic_sequence/flight_scheme/flight_scheme_9.png"" class=""exp-image"">
                    <div class=""question-area"">
                        <p style=""font-size: 20px; font-weight: bold; margin: 0;"">Is there a person in this image?</p>
                    </div>
                </div>","0","main_experiment_trial","9","flight_scheme","schematic_sequence","","","",""
"","","","","","html-keyboard-response","140","477541","0.0-140.0","3707E54F77CC46269CBD944DE8D5603E","019cefb0-6077-7907-97be-ed40e213e905","019cef87-c56d-7b55-9135-c5814367ec25","","null","
                <div class=""stimulus-container"">
                    <img src=""images/schematic_sequence/flight_scheme/flight_scheme_ten.png"" class=""exp-image"">
                    <div class=""question-area""></div> 
                </div>","null","","","","","","","",""
"","","","","","html-button-response","141","478238","0.0-141.0","3707E54F77CC46269CBD944DE8D5603E","019cefb0-6077-7907-97be-ed40e213e905","019cef87-c56d-7b55-9135-c5814367ec25","","695","
                <div class=""stimulus-container"">
                    <img src=""images/schematic_sequence/flight_scheme/flight_scheme_ten.png"" class=""exp-image"">
                    <div class=""question-area"">
                        <p style=""font-size: 20px; font-weight: bold; margin: 0;"">Is there a person in this image?</p>
                    </div>
                </div>","0","main_experiment_trial","ten","flight_scheme","schematic_sequence","","","",""
"","","","","","html-keyboard-response","142","479240","0.0-142.0","3707E54F77CC46269CBD944DE8D5603E","019cefb0-6077-7907-97be-ed40e213e905","019cef87-c56d-7b55-9135-c5814367ec25","","null","<div style=""background-color: white; width: 100vw; height: 100vh;""></div>","null","","","","","","","",""
"","","","","","html-keyboard-response","143","484242","0.0-143.0","3707E54F77CC46269CBD944DE8D5603E","019cefb0-6077-7907-97be-ed40e213e905","019cef87-c56d-7b55-9135-c5814367ec25","","null","
                <div class=""stimulus-container"">
                    <img src=""images/schematic_sequence/supermarket_scheme/supermarket_scheme_1.png"" class=""exp-image"">
                    <div class=""question-area""></div> 
                </div>","null","","","","","","","",""
"","","","","","html-button-response","144","484988","0.0-144.0","3707E54F77CC46269CBD944DE8D5603E","019cefb0-6077-7907-97be-ed40e213e905","019cef87-c56d-7b55-9135-c5814367ec25","","745","
                <div class=""stimulus-container"">
                    <img src=""images/schematic_sequence/supermarket_scheme/supermarket_scheme_1.png"" class=""exp-image"">
                    <div class=""question-area"">
                        <p style=""font-size: 20px; font-weight: bold; margin: 0;"">Is there a person in this image?</p>
                    </div>
                </div>","1","main_experiment_trial","1","supermarket_scheme","schematic_sequence","","","",""
"","","","","","html-keyboard-response","145","489990","0.0-145.0","3707E54F77CC46269CBD944DE8D5603E","019cefb0-6077-7907-97be-ed40e213e905","019cef87-c56d-7b55-9135-c5814367ec25","","null","
                <div class=""stimulus-container"">
                    <img src=""images/schematic_sequence/supermarket_scheme/supermarket_scheme_2.png"" class=""exp-image"">
                    <div class=""question-area""></div> 
                </div>","null","","","","","","","",""
"","","","","","html-button-response","146","490622","0.0-146.0","3707E54F77CC46269CBD944DE8D5603E","019cefb0-6077-7907-97be-ed40e213e905","019cef87-c56d-7b55-9135-c5814367ec25","","631","
                <div class=""stimulus-container"">
                    <img src=""images/schematic_sequence/supermarket_scheme/supermarket_scheme_2.png"" class=""exp-image"">
                    <div class=""question-area"">
                        <p style=""font-size: 20px; font-weight: bold; margin: 0;"">Is there a person in this image?</p>
                    </div>
                </div>","1","main_experiment_trial","2","supermarket_scheme","schematic_sequence","","","",""
"","","","","","html-keyboard-response","147","495624","0.0-147.0","3707E54F77CC46269CBD944DE8D5603E","019cefb0-6077-7907-97be-ed40e213e905","019cef87-c56d-7b55-9135-c5814367ec25","","null","
                <div class=""stimulus-container"">
                    <img src=""images/schematic_sequence/supermarket_scheme/supermarket_scheme_3.png"" class=""exp-image"">
                    <div class=""question-area""></div> 
                </div>","null","","","","","","","",""
"","","","","","html-button-response","148","496121","0.0-148.0","3707E54F77CC46269CBD944DE8D5603E","019cefb0-6077-7907-97be-ed40e213e905","019cef87-c56d-7b55-9135-c5814367ec25","","495","
                <div class=""stimulus-container"">
                    <img src=""images/schematic_sequence/supermarket_scheme/supermarket_scheme_3.png"" class=""exp-image"">
                    <div class=""question-area"">
                        <p style=""font-size: 20px; font-weight: bold; margin: 0;"">Is there a person in this image?</p>
                    </div>
                </div>","1","main_experiment_trial","3","supermarket_scheme","schematic_sequence","","","",""
"","","","","","html-keyboard-response","149","501123","0.0-149.0","3707E54F77CC46269CBD944DE8D5603E","019cefb0-6077-7907-97be-ed40e213e905","019cef87-c56d-7b55-9135-c5814367ec25","","null","
                <div class=""stimulus-container"">
                    <img src=""images/schematic_sequence/supermarket_scheme/supermarket_scheme_4.png"" class=""exp-image"">
                    <div class=""question-area""></div> 
                </div>","null","","","","","","","",""
"","","","","","html-button-response","150","502057","0.0-150.0","3707E54F77CC46269CBD944DE8D5603E","019cefb0-6077-7907-97be-ed40e213e905","019cef87-c56d-7b55-9135-c5814367ec25","","933","
                <div class=""stimulus-container"">
                    <img src=""images/schematic_sequence/supermarket_scheme/supermarket_scheme_4.png"" class=""exp-image"">
                    <div class=""question-area"">
                        <p style=""font-size: 20px; font-weight: bold; margin: 0;"">Is there a person in this image?</p>
                    </div>
                </div>","0","main_experiment_trial","4","supermarket_scheme","schematic_sequence","","","",""
"","","","","","html-keyboard-response","151","507059","0.0-151.0","3707E54F77CC46269CBD944DE8D5603E","019cefb0-6077-7907-97be-ed40e213e905","019cef87-c56d-7b55-9135-c5814367ec25","","null","
                <div class=""stimulus-container"">
                    <img src=""images/schematic_sequence/supermarket_scheme/supermarket_scheme_5.png"" class=""exp-image"">
                    <div class=""question-area""></div> 
                </div>","null","","","","","","","",""
"","","","","","html-button-response","152","508137","0.0-152.0","3707E54F77CC46269CBD944DE8D5603E","019cefb0-6077-7907-97be-ed40e213e905","019cef87-c56d-7b55-9135-c5814367ec25","","1077","
                <div class=""stimulus-container"">
                    <img src=""images/schematic_sequence/supermarket_scheme/supermarket_scheme_5.png"" class=""exp-image"">
                    <div class=""question-area"">
                        <p style=""font-size: 20px; font-weight: bold; margin: 0;"">Is there a person in this image?</p>
                    </div>
                </div>","1","main_experiment_trial","5","supermarket_scheme","schematic_sequence","","","",""
"","","","","","html-keyboard-response","153","513140","0.0-153.0","3707E54F77CC46269CBD944DE8D5603E","019cefb0-6077-7907-97be-ed40e213e905","019cef87-c56d-7b55-9135-c5814367ec25","","null","
                <div class=""stimulus-container"">
                    <img src=""images/schematic_sequence/supermarket_scheme/supermarket_scheme_6.png"" class=""exp-image"">
                    <div class=""question-area""></div> 
                </div>","null","","","","","","","",""
"","","","","","html-button-response","154","514088","0.0-154.0","3707E54F77CC46269CBD944DE8D5603E","019cefb0-6077-7907-97be-ed40e213e905","019cef87-c56d-7b55-9135-c5814367ec25","","947","
                <div class=""stimulus-container"">
                    <img src=""images/schematic_sequence/supermarket_scheme/supermarket_scheme_6.png"" class=""exp-image"">
                    <div class=""question-area"">
                        <p style=""font-size: 20px; font-weight: bold; margin: 0;"">Is there a person in this image?</p>
                    </div>
                </div>","0","main_experiment_trial","6","supermarket_scheme","schematic_sequence","","","",""
"","","","","","html-keyboard-response","155","519090","0.0-155.0","3707E54F77CC46269CBD944DE8D5603E","019cefb0-6077-7907-97be-ed40e213e905","019cef87-c56d-7b55-9135-c5814367ec25","","null","
                <div class=""stimulus-container"">
                    <img src=""images/schematic_sequence/supermarket_scheme/supermarket_scheme_7.png"" class=""exp-image"">
                    <div class=""question-area""></div> 
                </div>","null","","","","","","","",""
"","","","","","html-button-response","156","519857","0.0-156.0","3707E54F77CC46269CBD944DE8D5603E","019cefb0-6077-7907-97be-ed40e213e905","019cef87-c56d-7b55-9135-c5814367ec25","","765","
                <div class=""stimulus-container"">
                    <img src=""images/schematic_sequence/supermarket_scheme/supermarket_scheme_7.png"" class=""exp-image"">
                    <div class=""question-area"">
                        <p style=""font-size: 20px; font-weight: bold; margin: 0;"">Is there a person in this image?</p>
                    </div>
                </div>","0","main_experiment_trial","7","supermarket_scheme","schematic_sequence","","","",""
"","","","","","html-keyboard-response","157","524859","0.0-157.0","3707E54F77CC46269CBD944DE8D5603E","019cefb0-6077-7907-97be-ed40e213e905","019cef87-c56d-7b55-9135-c5814367ec25","","null","
                <div class=""stimulus-container"">
                    <img src=""images/schematic_sequence/supermarket_scheme/supermarket_scheme_8.png"" class=""exp-image"">
                    <div class=""question-area""></div> 
                </div>","null","","","","","","","",""
"","","","","","html-button-response","158","525472","0.0-158.0","3707E54F77CC46269CBD944DE8D5603E","019cefb0-6077-7907-97be-ed40e213e905","019cef87-c56d-7b55-9135-c5814367ec25","","611","
                <div class=""stimulus-container"">
                    <img src=""images/schematic_sequence/supermarket_scheme/supermarket_scheme_8.png"" class=""exp-image"">
                    <div class=""question-area"">
                        <p style=""font-size: 20px; font-weight: bold; margin: 0;"">Is there a person in this image?</p>
                    </div>
                </div>","0","main_experiment_trial","8","supermarket_scheme","schematic_sequence","","","",""
"","","","","","html-keyboard-response","159","530474","0.0-159.0","3707E54F77CC46269CBD944DE8D5603E","019cefb0-6077-7907-97be-ed40e213e905","019cef87-c56d-7b55-9135-c5814367ec25","","null","
                <div class=""stimulus-container"">
                    <img src=""images/schematic_sequence/supermarket_scheme/supermarket_scheme_9.png"" class=""exp-image"">
                    <div class=""question-area""></div> 
                </div>","null","","","","","","","",""
"","","","","","html-button-response","160","531038","0.0-160.0","3707E54F77CC46269CBD944DE8D5603E","019cefb0-6077-7907-97be-ed40e213e905","019cef87-c56d-7b55-9135-c5814367ec25","","563","
                <div class=""stimulus-container"">
                    <img src=""images/schematic_sequence/supermarket_scheme/supermarket_scheme_9.png"" class=""exp-image"">
                    <div class=""question-area"">
                        <p style=""font-size: 20px; font-weight: bold; margin: 0;"">Is there a person in this image?</p>
                    </div>
                </div>","0","main_experiment_trial","9","supermarket_scheme","schematic_sequence","","","",""
"","","","","","html-keyboard-response","161","536040","0.0-161.0","3707E54F77CC46269CBD944DE8D5603E","019cefb0-6077-7907-97be-ed40e213e905","019cef87-c56d-7b55-9135-c5814367ec25","","null","
                <div class=""stimulus-container"">
                    <img src=""images/schematic_sequence/supermarket_scheme/supermarket_scheme_ten.png"" class=""exp-image"">
                    <div class=""question-area""></div> 
                </div>","null","","","","","","","",""
"","","","","","html-button-response","162","536703","0.0-162.0","3707E54F77CC46269CBD944DE8D5603E","019cefb0-6077-7907-97be-ed40e213e905","019cef87-c56d-7b55-9135-c5814367ec25","","661","
                <div class=""stimulus-container"">
                    <img src=""images/schematic_sequence/supermarket_scheme/supermarket_scheme_ten.png"" class=""exp-image"">
                    <div class=""question-area"">
                        <p style=""font-size: 20px; font-weight: bold; margin: 0;"">Is there a person in this image?</p>
                    </div>
                </div>","1","main_experiment_trial","ten","supermarket_scheme","schematic_sequence","","","",""
"","","","","","html-keyboard-response","163","537705","0.0-163.0","3707E54F77CC46269CBD944DE8D5603E","019cefb0-6077-7907-97be-ed40e213e905","019cef87-c56d-7b55-9135-c5814367ec25","","null","<div style=""background-color: white; width: 100vw; height: 100vh;""></div>","null","","","","","","","",""
"","","","","","html-keyboard-response","164","542707","0.0-164.0","3707E54F77CC46269CBD944DE8D5603E","019cefb0-6077-7907-97be-ed40e213e905","019cef87-c56d-7b55-9135-c5814367ec25","","null","
                <div class=""stimulus-container"">
                    <img src=""images/causal_sequence/coin_causal/coin_causal_1.png"" class=""exp-image"">
                    <div class=""question-area""></div> 
                </div>","null","","","","","","","",""
"","","","","","html-button-response","165","543752","0.0-165.0","3707E54F77CC46269CBD944DE8D5603E","019cefb0-6077-7907-97be-ed40e213e905","019cef87-c56d-7b55-9135-c5814367ec25","","1043","
                <div class=""stimulus-container"">
                    <img src=""images/causal_sequence/coin_causal/coin_causal_1.png"" class=""exp-image"">
                    <div class=""question-area"">
                        <p style=""font-size: 20px; font-weight: bold; margin: 0;"">Is there a person in this image?</p>
                    </div>
                </div>","0","main_experiment_trial","1","coin_causal","causal_sequence","","","",""
"","","","","","html-keyboard-response","166","548754","0.0-166.0","3707E54F77CC46269CBD944DE8D5603E","019cefb0-6077-7907-97be-ed40e213e905","019cef87-c56d-7b55-9135-c5814367ec25","","null","
                <div class=""stimulus-container"">
                    <img src=""images/causal_sequence/coin_causal/coin_causal_2.png"" class=""exp-image"">
                    <div class=""question-area""></div> 
                </div>","null","","","","","","","",""
"","","","","","html-button-response","167","549454","0.0-167.0","3707E54F77CC46269CBD944DE8D5603E","019cefb0-6077-7907-97be-ed40e213e905","019cef87-c56d-7b55-9135-c5814367ec25","","699","
                <div class=""stimulus-container"">
                    <img src=""images/causal_sequence/coin_causal/coin_causal_2.png"" class=""exp-image"">
                    <div class=""question-area"">
                        <p style=""font-size: 20px; font-weight: bold; margin: 0;"">Is there a person in this image?</p>
                    </div>
                </div>","0","main_experiment_trial","2","coin_causal","causal_sequence","","","",""
"","","","","","html-keyboard-response","168","554456","0.0-168.0","3707E54F77CC46269CBD944DE8D5603E","019cefb0-6077-7907-97be-ed40e213e905","019cef87-c56d-7b55-9135-c5814367ec25","","null","
                <div class=""stimulus-container"">
                    <img src=""images/causal_sequence/coin_causal/coin_causal_3.png"" class=""exp-image"">
                    <div class=""question-area""></div> 
                </div>","null","","","","","","","",""
"","","","","","html-button-response","169","554987","0.0-169.0","3707E54F77CC46269CBD944DE8D5603E","019cefb0-6077-7907-97be-ed40e213e905","019cef87-c56d-7b55-9135-c5814367ec25","","530","
                <div class=""stimulus-container"">
                    <img src=""images/causal_sequence/coin_causal/coin_causal_3.png"" class=""exp-image"">
                    <div class=""question-area"">
                        <p style=""font-size: 20px; font-weight: bold; margin: 0;"">Is there a person in this image?</p>
                    </div>
                </div>","0","main_experiment_trial","3","coin_causal","causal_sequence","","","",""
"","","","","","html-keyboard-response","170","559989","0.0-170.0","3707E54F77CC46269CBD944DE8D5603E","019cefb0-6077-7907-97be-ed40e213e905","019cef87-c56d-7b55-9135-c5814367ec25","","null","
                <div class=""stimulus-container"">
                    <img src=""images/causal_sequence/coin_causal/coin_causal_4.png"" class=""exp-image"">
                    <div class=""question-area""></div> 
                </div>","null","","","","","","","",""
"","","","","","html-button-response","171","560608","0.0-171.0","3707E54F77CC46269CBD944DE8D5603E","019cefb0-6077-7907-97be-ed40e213e905","019cef87-c56d-7b55-9135-c5814367ec25","","618","
                <div class=""stimulus-container"">
                    <img src=""images/causal_sequence/coin_causal/coin_causal_4.png"" class=""exp-image"">
                    <div class=""question-area"">
                        <p style=""font-size: 20px; font-weight: bold; margin: 0;"">Is there a person in this image?</p>
                    </div>
                </div>","0","main_experiment_trial","4","coin_causal","causal_sequence","","","",""
"","","","","","html-keyboard-response","172","565610","0.0-172.0","3707E54F77CC46269CBD944DE8D5603E","019cefb0-6077-7907-97be-ed40e213e905","019cef87-c56d-7b55-9135-c5814367ec25","","null","
                <div class=""stimulus-container"">
                    <img src=""images/causal_sequence/coin_causal/coin_causal_5.png"" class=""exp-image"">
                    <div class=""question-area""></div> 
                </div>","null","","","","","","","",""
"","","","","","html-button-response","173","566137","0.0-173.0","3707E54F77CC46269CBD944DE8D5603E","019cefb0-6077-7907-97be-ed40e213e905","019cef87-c56d-7b55-9135-c5814367ec25","","525","
                <div class=""stimulus-container"">
                    <img src=""images/causal_sequence/coin_causal/coin_causal_5.png"" class=""exp-image"">
                    <div class=""question-area"">
                        <p style=""font-size: 20px; font-weight: bold; margin: 0;"">Is there a person in this image?</p>
                    </div>
                </div>","0","main_experiment_trial","5","coin_causal","causal_sequence","","","",""
"","","","","","html-keyboard-response","174","571140","0.0-174.0","3707E54F77CC46269CBD944DE8D5603E","019cefb0-6077-7907-97be-ed40e213e905","019cef87-c56d-7b55-9135-c5814367ec25","","null","
                <div class=""stimulus-container"">
                    <img src=""images/causal_sequence/coin_causal/coin_causal_6.png"" class=""exp-image"">
                    <div class=""question-area""></div> 
                </div>","null","","","","","","","",""
"","","","","","html-button-response","175","571669","0.0-175.0","3707E54F77CC46269CBD944DE8D5603E","019cefb0-6077-7907-97be-ed40e213e905","019cef87-c56d-7b55-9135-c5814367ec25","","528","
                <div class=""stimulus-container"">
                    <img src=""images/causal_sequence/coin_causal/coin_causal_6.png"" class=""exp-image"">
                    <div class=""question-area"">
                        <p style=""font-size: 20px; font-weight: bold; margin: 0;"">Is there a person in this image?</p>
                    </div>
                </div>","0","main_experiment_trial","6","coin_causal","causal_sequence","","","",""
"","","","","","html-keyboard-response","176","576671","0.0-176.0","3707E54F77CC46269CBD944DE8D5603E","019cefb0-6077-7907-97be-ed40e213e905","019cef87-c56d-7b55-9135-c5814367ec25","","null","
                <div class=""stimulus-container"">
                    <img src=""images/causal_sequence/coin_causal/coin_causal_7.png"" class=""exp-image"">
                    <div class=""question-area""></div> 
                </div>","null","","","","","","","",""
"","","","","","html-button-response","177","577555","0.0-177.0","3707E54F77CC46269CBD944DE8D5603E","019cefb0-6077-7907-97be-ed40e213e905","019cef87-c56d-7b55-9135-c5814367ec25","","883","
                <div class=""stimulus-container"">
                    <img src=""images/causal_sequence/coin_causal/coin_causal_7.png"" class=""exp-image"">
                    <div class=""question-area"">
                        <p style=""font-size: 20px; font-weight: bold; margin: 0;"">Is there a person in this image?</p>
                    </div>
                </div>","1","main_experiment_trial","7","coin_causal","causal_sequence","","","",""
"","","","","","html-keyboard-response","178","582557","0.0-178.0","3707E54F77CC46269CBD944DE8D5603E","019cefb0-6077-7907-97be-ed40e213e905","019cef87-c56d-7b55-9135-c5814367ec25","","null","
                <div class=""stimulus-container"">
                    <img src=""images/causal_sequence/coin_causal/coin_causal_8.png"" class=""exp-image"">
                    <div class=""question-area""></div> 
                </div>","null","","","","","","","",""
"","","","","","html-button-response","179","583438","0.0-179.0","3707E54F77CC46269CBD944DE8D5603E","019cefb0-6077-7907-97be-ed40e213e905","019cef87-c56d-7b55-9135-c5814367ec25","","880","
                <div class=""stimulus-container"">
                    <img src=""images/causal_sequence/coin_causal/coin_causal_8.png"" class=""exp-image"">
                    <div class=""question-area"">
                        <p style=""font-size: 20px; font-weight: bold; margin: 0;"">Is there a person in this image?</p>
                    </div>
                </div>","0","main_experiment_trial","8","coin_causal","causal_sequence","","","",""
"","","","","","html-keyboard-response","180","588440","0.0-180.0","3707E54F77CC46269CBD944DE8D5603E","019cefb0-6077-7907-97be-ed40e213e905","019cef87-c56d-7b55-9135-c5814367ec25","","null","
                <div class=""stimulus-container"">
                    <img src=""images/causal_sequence/coin_causal/coin_causal_9.png"" class=""exp-image"">
                    <div class=""question-area""></div> 
                </div>","null","","","","","","","",""
"","","","","","html-button-response","181","588986","0.0-181.0","3707E54F77CC46269CBD944DE8D5603E","019cefb0-6077-7907-97be-ed40e213e905","019cef87-c56d-7b55-9135-c5814367ec25","","544","
                <div class=""stimulus-container"">
                    <img src=""images/causal_sequence/coin_causal/coin_causal_9.png"" class=""exp-image"">
                    <div class=""question-area"">
                        <p style=""font-size: 20px; font-weight: bold; margin: 0;"">Is there a person in this image?</p>
                    </div>
                </div>","0","main_experiment_trial","9","coin_causal","causal_sequence","","","",""
"","","","","","html-keyboard-response","182","593989","0.0-182.0","3707E54F77CC46269CBD944DE8D5603E","019cefb0-6077-7907-97be-ed40e213e905","019cef87-c56d-7b55-9135-c5814367ec25","","null","
                <div class=""stimulus-container"">
                    <img src=""images/causal_sequence/coin_causal/coin_causal_ten.png"" class=""exp-image"">
                    <div class=""question-area""></div> 
                </div>","null","","","","","","","",""
"","","","","","html-button-response","183","594670","0.0-183.0","3707E54F77CC46269CBD944DE8D5603E","019cefb0-6077-7907-97be-ed40e213e905","019cef87-c56d-7b55-9135-c5814367ec25","","680","
                <div class=""stimulus-container"">
                    <img src=""images/causal_sequence/coin_causal/coin_causal_ten.png"" class=""exp-image"">
                    <div class=""question-area"">
                        <p style=""font-size: 20px; font-weight: bold; margin: 0;"">Is there a person in this image?</p>
                    </div>
                </div>","0","main_experiment_trial","ten","coin_causal","causal_sequence","","","",""
"","","","","","html-keyboard-response","184","595672","0.0-184.0","3707E54F77CC46269CBD944DE8D5603E","019cefb0-6077-7907-97be-ed40e213e905","019cef87-c56d-7b55-9135-c5814367ec25","","null","<div style=""background-color: white; width: 100vw; height: 100vh;""></div>","null","","","","","","","",""
"","","","","","html-keyboard-response","185","600674","0.0-185.0","3707E54F77CC46269CBD944DE8D5603E","019cefb0-6077-7907-97be-ed40e213e905","019cef87-c56d-7b55-9135-c5814367ec25","","null","
                <div class=""stimulus-container"">
                    <img src=""images/causal_sequence/the_performance_causal/the_performance_causal_1.png"" class=""exp-image"">
                    <div class=""question-area""></div> 
                </div>","null","","","","","","","",""
"","","","","","html-button-response","186","601272","0.0-186.0","3707E54F77CC46269CBD944DE8D5603E","019cefb0-6077-7907-97be-ed40e213e905","019cef87-c56d-7b55-9135-c5814367ec25","","597","
                <div class=""stimulus-container"">
                    <img src=""images/causal_sequence/the_performance_causal/the_performance_causal_1.png"" class=""exp-image"">
                    <div class=""question-area"">
