"success","timeout","failed_images","failed_audio","failed_video","trial_type","trial_index","time_elapsed","internal_node_id","subject_id","study_id","session_id","view_history","rt","stimulus","response","task","image_index","folder","sequence_type","valuable_image_index","reward_type","correct_choice","chosen_image_index","target_X"
"true","false","[]","[]","[]","preload","0","5220","0.0-0.0","8143DFE6B5C64739A3FD3BAF963163D5","019cf81d-7edf-7486-b0e6-5e7b0c0b8f4e","019cf80d-4266-7117-8a51-54e13c84aca4","","","","","","","","","","","","",""
"","","","","","instructions","1","7859","0.0-1.0","8143DFE6B5C64739A3FD3BAF963163D5","019cf81d-7edf-7486-b0e6-5e7b0c0b8f4e","019cf80d-4266-7117-8a51-54e13c84aca4","[{""page_index"":0,""viewing_time"":2637}]","2638","","","","","","","","","","",""
"","","","","","instructions","2","10664","0.0-2.0","8143DFE6B5C64739A3FD3BAF963163D5","019cf81d-7edf-7486-b0e6-5e7b0c0b8f4e","019cf80d-4266-7117-8a51-54e13c84aca4","[{""page_index"":0,""viewing_time"":2804}]","2805","","","","","","","","","","",""
"true","","","","","fullscreen","3","13082","0.0-3.0","8143DFE6B5C64739A3FD3BAF963163D5","019cf81d-7edf-7486-b0e6-5e7b0c0b8f4e","019cf80d-4266-7117-8a51-54e13c84aca4","","1405","","","","","","","","","","",""
"","","","","","instructions","4","19836","0.0-4.0","8143DFE6B5C64739A3FD3BAF963163D5","019cf81d-7edf-7486-b0e6-5e7b0c0b8f4e","019cf80d-4266-7117-8a51-54e13c84aca4","[{""page_index"":0,""viewing_time"":6753}]","6753","","","","","","","","","","",""
"","","","","","instructions","5","26050","0.0-5.0","8143DFE6B5C64739A3FD3BAF963163D5","019cf81d-7edf-7486-b0e6-5e7b0c0b8f4e","019cf80d-4266-7117-8a51-54e13c84aca4","[{""page_index"":0,""viewing_time"":6214}]","6214","","","","","","","","","","",""
"","","","","","html-keyboard-response","6","30067","0.0-6.0","8143DFE6B5C64739A3FD3BAF963163D5","019cf81d-7edf-7486-b0e6-5e7b0c0b8f4e","019cf80d-4266-7117-8a51-54e13c84aca4","","null","
                <div class=""stimulus-container"">
                    <img src=""images/instructions/movie_1.png"" class=""exp-image"">
                    <div class=""question-area""></div> 
                </div>","null","","","","","","","","",""
"","","","","","html-button-response","7","31953","0.0-7.0","8143DFE6B5C64739A3FD3BAF963163D5","019cf81d-7edf-7486-b0e6-5e7b0c0b8f4e","019cf80d-4266-7117-8a51-54e13c84aca4","","1883","
                <div class=""stimulus-container"">
                    <img src=""images/instructions/movie_1.png"" class=""exp-image"">
                    <div class=""question-area"">
                        <p style=""font-size: 20px; font-weight: bold; margin: 0;"">Was there a person in this image?</p>
                    </div>
                </div>","0","example_question","1","","","","","","",""
"","","","","","html-keyboard-response","8","35957","0.0-8.0","8143DFE6B5C64739A3FD3BAF963163D5","019cf81d-7edf-7486-b0e6-5e7b0c0b8f4e","019cf80d-4266-7117-8a51-54e13c84aca4","","null","
                <div class=""stimulus-container"">
                    <img src=""images/instructions/movie_2.png"" class=""exp-image"">
                    <div class=""question-area""></div> 
                </div>","null","","","","","","","","",""
"","","","","","html-button-response","9","36526","0.0-9.0","8143DFE6B5C64739A3FD3BAF963163D5","019cf81d-7edf-7486-b0e6-5e7b0c0b8f4e","019cf80d-4266-7117-8a51-54e13c84aca4","","568","
                <div class=""stimulus-container"">
                    <img src=""images/instructions/movie_2.png"" class=""exp-image"">
                    <div class=""question-area"">
                        <p style=""font-size: 20px; font-weight: bold; margin: 0;"">Was there a person in this image?</p>
                    </div>
                </div>","1","example_question","2","","","","","","",""
"","","","","","html-keyboard-response","10","40532","0.0-10.0","8143DFE6B5C64739A3FD3BAF963163D5","019cf81d-7edf-7486-b0e6-5e7b0c0b8f4e","019cf80d-4266-7117-8a51-54e13c84aca4","","null","
                <div class=""stimulus-container"">
                    <img src=""images/instructions/movie_3.png"" class=""exp-image"">
                    <div class=""question-area""></div> 
                </div>","null","","","","","","","","",""
"","","","","","html-button-response","11","41559","0.0-11.0","8143DFE6B5C64739A3FD3BAF963163D5","019cf81d-7edf-7486-b0e6-5e7b0c0b8f4e","019cf80d-4266-7117-8a51-54e13c84aca4","","1025","
                <div class=""stimulus-container"">
                    <img src=""images/instructions/movie_3.png"" class=""exp-image"">
                    <div class=""question-area"">
                        <p style=""font-size: 20px; font-weight: bold; margin: 0;"">Was there a person in this image?</p>
                    </div>
                </div>","0","example_question","3","","","","","","",""
"","","","","","html-keyboard-response","12","45570","0.0-12.0","8143DFE6B5C64739A3FD3BAF963163D5","019cf81d-7edf-7486-b0e6-5e7b0c0b8f4e","019cf80d-4266-7117-8a51-54e13c84aca4","","null","
                <div class=""stimulus-container"">
                    <img src=""images/instructions/movie_4.png"" class=""exp-image"">
                    <div class=""question-area""></div> 
                </div>","null","","","","","","","","",""
"","","","","","html-button-response","13","46165","0.0-13.0","8143DFE6B5C64739A3FD3BAF963163D5","019cf81d-7edf-7486-b0e6-5e7b0c0b8f4e","019cf80d-4266-7117-8a51-54e13c84aca4","","594","
                <div class=""stimulus-container"">
                    <img src=""images/instructions/movie_4.png"" class=""exp-image"">
                    <div class=""question-area"">
                        <p style=""font-size: 20px; font-weight: bold; margin: 0;"">Was there a person in this image?</p>
                    </div>
                </div>","0","example_question","4","","","","","","",""
"","","","","","instructions","14","48986","0.0-14.0","8143DFE6B5C64739A3FD3BAF963163D5","019cf81d-7edf-7486-b0e6-5e7b0c0b8f4e","019cf80d-4266-7117-8a51-54e13c84aca4","[{""page_index"":0,""viewing_time"":2820}]","2821","","","","","","","","","","",""
"","","","","","instructions","15","52089","0.0-15.0","8143DFE6B5C64739A3FD3BAF963163D5","019cf81d-7edf-7486-b0e6-5e7b0c0b8f4e","019cf80d-4266-7117-8a51-54e13c84aca4","[{""page_index"":0,""viewing_time"":3101}]","3102","","","","","","","","","","",""
"","","","","","html-keyboard-response","16","53109","0.0-16.0","8143DFE6B5C64739A3FD3BAF963163D5","019cf81d-7edf-7486-b0e6-5e7b0c0b8f4e","019cf80d-4266-7117-8a51-54e13c84aca4","","null","<div style=""background-color: white; width: 100vw; height: 100vh;""></div>","null","","","","","","","","",""
"","","","","","html-keyboard-response","17","58115","0.0-17.0","8143DFE6B5C64739A3FD3BAF963163D5","019cf81d-7edf-7486-b0e6-5e7b0c0b8f4e","019cf80d-4266-7117-8a51-54e13c84aca4","","null","
                <div class=""stimulus-container"">
                    <img src=""images/schematic_sequence/hotel_scheme/hotel_scheme_1.png"" class=""exp-image"">
                    <div class=""question-area""></div> 
                </div>","null","","","","","","","","",""
"","","","","","html-button-response","18","60477","0.0-18.0","8143DFE6B5C64739A3FD3BAF963163D5","019cf81d-7edf-7486-b0e6-5e7b0c0b8f4e","019cf80d-4266-7117-8a51-54e13c84aca4","","2360","
                <div class=""stimulus-container"">
                    <img src=""images/schematic_sequence/hotel_scheme/hotel_scheme_1.png"" class=""exp-image"">
                    <div class=""question-area"">
                        <p style=""font-size: 20px; font-weight: bold; margin: 0;"">Is there a person in this image?</p>
                    </div>
                </div>","1","main_experiment_trial","1","hotel_scheme","schematic_sequence","","","","",""
"","","","","","html-keyboard-response","19","65487","0.0-19.0","8143DFE6B5C64739A3FD3BAF963163D5","019cf81d-7edf-7486-b0e6-5e7b0c0b8f4e","019cf80d-4266-7117-8a51-54e13c84aca4","","null","
                <div class=""stimulus-container"">
                    <img src=""images/schematic_sequence/hotel_scheme/hotel_scheme_2.png"" class=""exp-image"">
                    <div class=""question-area""></div> 
                </div>","null","","","","","","","","",""
"","","","","","html-button-response","20","66368","0.0-20.0","8143DFE6B5C64739A3FD3BAF963163D5","019cf81d-7edf-7486-b0e6-5e7b0c0b8f4e","019cf80d-4266-7117-8a51-54e13c84aca4","","880","
                <div class=""stimulus-container"">
                    <img src=""images/schematic_sequence/hotel_scheme/hotel_scheme_2.png"" class=""exp-image"">
                    <div class=""question-area"">
                        <p style=""font-size: 20px; font-weight: bold; margin: 0;"">Is there a person in this image?</p>
                    </div>
                </div>","0","main_experiment_trial","2","hotel_scheme","schematic_sequence","","","","",""
"","","","","","html-keyboard-response","21","71379","0.0-21.0","8143DFE6B5C64739A3FD3BAF963163D5","019cf81d-7edf-7486-b0e6-5e7b0c0b8f4e","019cf80d-4266-7117-8a51-54e13c84aca4","","null","
                <div class=""stimulus-container"">
                    <img src=""images/schematic_sequence/hotel_scheme/hotel_scheme_3.png"" class=""exp-image"">
                    <div class=""question-area""></div> 
                </div>","null","","","","","","","","",""
"","","","","","html-button-response","22","72699","0.0-22.0","8143DFE6B5C64739A3FD3BAF963163D5","019cf81d-7edf-7486-b0e6-5e7b0c0b8f4e","019cf80d-4266-7117-8a51-54e13c84aca4","","1320","
                <div class=""stimulus-container"">
                    <img src=""images/schematic_sequence/hotel_scheme/hotel_scheme_3.png"" class=""exp-image"">
                    <div class=""question-area"">
                        <p style=""font-size: 20px; font-weight: bold; margin: 0;"">Is there a person in this image?</p>
                    </div>
                </div>","0","main_experiment_trial","3","hotel_scheme","schematic_sequence","","","","",""
"","","","","","html-keyboard-response","23","77707","0.0-23.0","8143DFE6B5C64739A3FD3BAF963163D5","019cf81d-7edf-7486-b0e6-5e7b0c0b8f4e","019cf80d-4266-7117-8a51-54e13c84aca4","","null","
                <div class=""stimulus-container"">
                    <img src=""images/schematic_sequence/hotel_scheme/hotel_scheme_4.png"" class=""exp-image"">
                    <div class=""question-area""></div> 
                </div>","null","","","","","","","","",""
"","","","","","html-button-response","24","78469","0.0-24.0","8143DFE6B5C64739A3FD3BAF963163D5","019cf81d-7edf-7486-b0e6-5e7b0c0b8f4e","019cf80d-4266-7117-8a51-54e13c84aca4","","761","
                <div class=""stimulus-container"">
                    <img src=""images/schematic_sequence/hotel_scheme/hotel_scheme_4.png"" class=""exp-image"">
                    <div class=""question-area"">
                        <p style=""font-size: 20px; font-weight: bold; margin: 0;"">Is there a person in this image?</p>
                    </div>
                </div>","1","main_experiment_trial","4","hotel_scheme","schematic_sequence","","","","",""
"","","","","","html-keyboard-response","25","83473","0.0-25.0","8143DFE6B5C64739A3FD3BAF963163D5","019cf81d-7edf-7486-b0e6-5e7b0c0b8f4e","019cf80d-4266-7117-8a51-54e13c84aca4","","null","
                <div class=""stimulus-container"">
                    <img src=""images/schematic_sequence/hotel_scheme/hotel_scheme_5.png"" class=""exp-image"">
                    <div class=""question-area""></div> 
                </div>","null","","","","","","","","",""
"","","","","","html-button-response","26","85546","0.0-26.0","8143DFE6B5C64739A3FD3BAF963163D5","019cf81d-7edf-7486-b0e6-5e7b0c0b8f4e","019cf80d-4266-7117-8a51-54e13c84aca4","","2072","
                <div class=""stimulus-container"">
                    <img src=""images/schematic_sequence/hotel_scheme/hotel_scheme_5.png"" class=""exp-image"">
                    <div class=""question-area"">
                        <p style=""font-size: 20px; font-weight: bold; margin: 0;"">Is there a person in this image?</p>
                    </div>
                </div>","0","main_experiment_trial","5","hotel_scheme","schematic_sequence","","","","",""
"","","","","","html-keyboard-response","27","90551","0.0-27.0","8143DFE6B5C64739A3FD3BAF963163D5","019cf81d-7edf-7486-b0e6-5e7b0c0b8f4e","019cf80d-4266-7117-8a51-54e13c84aca4","","null","
                <div class=""stimulus-container"">
                    <img src=""images/schematic_sequence/hotel_scheme/hotel_scheme_6.png"" class=""exp-image"">
                    <div class=""question-area""></div> 
                </div>","null","","","","","","","","",""
"","","","","","html-button-response","28","93079","0.0-28.0","8143DFE6B5C64739A3FD3BAF963163D5","019cf81d-7edf-7486-b0e6-5e7b0c0b8f4e","019cf80d-4266-7117-8a51-54e13c84aca4","","2527","
                <div class=""stimulus-container"">
                    <img src=""images/schematic_sequence/hotel_scheme/hotel_scheme_6.png"" class=""exp-image"">
                    <div class=""question-area"">
                        <p style=""font-size: 20px; font-weight: bold; margin: 0;"">Is there a person in this image?</p>
                    </div>
                </div>","0","main_experiment_trial","6","hotel_scheme","schematic_sequence","","","","",""
"","","","","","html-keyboard-response","29","98092","0.0-29.0","8143DFE6B5C64739A3FD3BAF963163D5","019cf81d-7edf-7486-b0e6-5e7b0c0b8f4e","019cf80d-4266-7117-8a51-54e13c84aca4","","null","
                <div class=""stimulus-container"">
                    <img src=""images/schematic_sequence/hotel_scheme/hotel_scheme_7.png"" class=""exp-image"">
                    <div class=""question-area""></div> 
                </div>","null","","","","","","","","",""
"","","","","","html-button-response","30","99275","0.0-30.0","8143DFE6B5C64739A3FD3BAF963163D5","019cf81d-7edf-7486-b0e6-5e7b0c0b8f4e","019cf80d-4266-7117-8a51-54e13c84aca4","","1182","
                <div class=""stimulus-container"">
                    <img src=""images/schematic_sequence/hotel_scheme/hotel_scheme_7.png"" class=""exp-image"">
                    <div class=""question-area"">
                        <p style=""font-size: 20px; font-weight: bold; margin: 0;"">Is there a person in this image?</p>
                    </div>
                </div>","0","main_experiment_trial","7","hotel_scheme","schematic_sequence","","","","",""
"","","","","","html-keyboard-response","31","104287","0.0-31.0","8143DFE6B5C64739A3FD3BAF963163D5","019cf81d-7edf-7486-b0e6-5e7b0c0b8f4e","019cf80d-4266-7117-8a51-54e13c84aca4","","null","
                <div class=""stimulus-container"">
                    <img src=""images/schematic_sequence/hotel_scheme/hotel_scheme_8.png"" class=""exp-image"">
                    <div class=""question-area""></div> 
                </div>","null","","","","","","","","",""
"","","","","","html-button-response","32","105458","0.0-32.0","8143DFE6B5C64739A3FD3BAF963163D5","019cf81d-7edf-7486-b0e6-5e7b0c0b8f4e","019cf80d-4266-7117-8a51-54e13c84aca4","","1170","
                <div class=""stimulus-container"">
                    <img src=""images/schematic_sequence/hotel_scheme/hotel_scheme_8.png"" class=""exp-image"">
                    <div class=""question-area"">
                        <p style=""font-size: 20px; font-weight: bold; margin: 0;"">Is there a person in this image?</p>
                    </div>
                </div>","0","main_experiment_trial","8","hotel_scheme","schematic_sequence","","","","",""
"","","","","","html-keyboard-response","33","110462","0.0-33.0","8143DFE6B5C64739A3FD3BAF963163D5","019cf81d-7edf-7486-b0e6-5e7b0c0b8f4e","019cf80d-4266-7117-8a51-54e13c84aca4","","null","
                <div class=""stimulus-container"">
                    <img src=""images/schematic_sequence/hotel_scheme/hotel_scheme_9.png"" class=""exp-image"">
                    <div class=""question-area""></div> 
                </div>","null","","","","","","","","",""
"","","","","","html-button-response","34","111499","0.0-34.0","8143DFE6B5C64739A3FD3BAF963163D5","019cf81d-7edf-7486-b0e6-5e7b0c0b8f4e","019cf80d-4266-7117-8a51-54e13c84aca4","","1035","
                <div class=""stimulus-container"">
                    <img src=""images/schematic_sequence/hotel_scheme/hotel_scheme_9.png"" class=""exp-image"">
                    <div class=""question-area"">
                        <p style=""font-size: 20px; font-weight: bold; margin: 0;"">Is there a person in this image?</p>
                    </div>
                </div>","0","main_experiment_trial","9","hotel_scheme","schematic_sequence","","","","",""
"","","","","","html-keyboard-response","35","116516","0.0-35.0","8143DFE6B5C64739A3FD3BAF963163D5","019cf81d-7edf-7486-b0e6-5e7b0c0b8f4e","019cf80d-4266-7117-8a51-54e13c84aca4","","null","
                <div class=""stimulus-container"">
                    <img src=""images/schematic_sequence/hotel_scheme/hotel_scheme_ten.png"" class=""exp-image"">
                    <div class=""question-area""></div> 
                </div>","null","","","","","","","","",""
"","","","","","html-button-response","36","117860","0.0-36.0","8143DFE6B5C64739A3FD3BAF963163D5","019cf81d-7edf-7486-b0e6-5e7b0c0b8f4e","019cf80d-4266-7117-8a51-54e13c84aca4","","1343","
                <div class=""stimulus-container"">
                    <img src=""images/schematic_sequence/hotel_scheme/hotel_scheme_ten.png"" class=""exp-image"">
                    <div class=""question-area"">
                        <p style=""font-size: 20px; font-weight: bold; margin: 0;"">Is there a person in this image?</p>
                    </div>
                </div>","0","main_experiment_trial","ten","hotel_scheme","schematic_sequence","","","","",""
"","","","","","html-keyboard-response","37","118867","0.0-37.0","8143DFE6B5C64739A3FD3BAF963163D5","019cf81d-7edf-7486-b0e6-5e7b0c0b8f4e","019cf80d-4266-7117-8a51-54e13c84aca4","","null","<div style=""background-color: white; width: 100vw; height: 100vh;""></div>","null","","","","","","","","",""
"","","","","","html-keyboard-response","38","123877","0.0-38.0","8143DFE6B5C64739A3FD3BAF963163D5","019cf81d-7edf-7486-b0e6-5e7b0c0b8f4e","019cf80d-4266-7117-8a51-54e13c84aca4","","null","
                <div class=""stimulus-container"">
                    <img src=""images/schematic_sequence/dinner_party_scheme/dinner_party_scheme_1.png"" class=""exp-image"">
                    <div class=""question-area""></div> 
                </div>","null","","","","","","","","",""
"","","","","","html-button-response","39","125020","0.0-39.0","8143DFE6B5C64739A3FD3BAF963163D5","019cf81d-7edf-7486-b0e6-5e7b0c0b8f4e","019cf80d-4266-7117-8a51-54e13c84aca4","","1141","
                <div class=""stimulus-container"">
                    <img src=""images/schematic_sequence/dinner_party_scheme/dinner_party_scheme_1.png"" class=""exp-image"">
                    <div class=""question-area"">
                        <p style=""font-size: 20px; font-weight: bold; margin: 0;"">Is there a person in this image?</p>
                    </div>
                </div>","0","main_experiment_trial","1","dinner_party_scheme","schematic_sequence","","","","",""
"","","","","","html-keyboard-response","40","130032","0.0-40.0","8143DFE6B5C64739A3FD3BAF963163D5","019cf81d-7edf-7486-b0e6-5e7b0c0b8f4e","019cf80d-4266-7117-8a51-54e13c84aca4","","null","
                <div class=""stimulus-container"">
                    <img src=""images/schematic_sequence/dinner_party_scheme/dinner_party_scheme_2.png"" class=""exp-image"">
                    <div class=""question-area""></div> 
                </div>","null","","","","","","","","",""
"","","","","","html-button-response","41","131704","0.0-41.0","8143DFE6B5C64739A3FD3BAF963163D5","019cf81d-7edf-7486-b0e6-5e7b0c0b8f4e","019cf80d-4266-7117-8a51-54e13c84aca4","","1670","
                <div class=""stimulus-container"">
                    <img src=""images/schematic_sequence/dinner_party_scheme/dinner_party_scheme_2.png"" class=""exp-image"">
                    <div class=""question-area"">
                        <p style=""font-size: 20px; font-weight: bold; margin: 0;"">Is there a person in this image?</p>
                    </div>
                </div>","0","main_experiment_trial","2","dinner_party_scheme","schematic_sequence","","","","",""
"","","","","","html-keyboard-response","42","136712","0.0-42.0","8143DFE6B5C64739A3FD3BAF963163D5","019cf81d-7edf-7486-b0e6-5e7b0c0b8f4e","019cf80d-4266-7117-8a51-54e13c84aca4","","null","
                <div class=""stimulus-container"">
                    <img src=""images/schematic_sequence/dinner_party_scheme/dinner_party_scheme_3.png"" class=""exp-image"">
                    <div class=""question-area""></div> 
                </div>","null","","","","","","","","",""
"","","","","","html-button-response","43","137465","0.0-43.0","8143DFE6B5C64739A3FD3BAF963163D5","019cf81d-7edf-7486-b0e6-5e7b0c0b8f4e","019cf80d-4266-7117-8a51-54e13c84aca4","","752","
                <div class=""stimulus-container"">
                    <img src=""images/schematic_sequence/dinner_party_scheme/dinner_party_scheme_3.png"" class=""exp-image"">
                    <div class=""question-area"">
                        <p style=""font-size: 20px; font-weight: bold; margin: 0;"">Is there a person in this image?</p>
                    </div>
                </div>","0","main_experiment_trial","3","dinner_party_scheme","schematic_sequence","","","","",""
"","","","","","html-keyboard-response","44","142481","0.0-44.0","8143DFE6B5C64739A3FD3BAF963163D5","019cf81d-7edf-7486-b0e6-5e7b0c0b8f4e","019cf80d-4266-7117-8a51-54e13c84aca4","","null","
                <div class=""stimulus-container"">
                    <img src=""images/schematic_sequence/dinner_party_scheme/dinner_party_scheme_4.png"" class=""exp-image"">
                    <div class=""question-area""></div> 
                </div>","null","","","","","","","","",""
"","","","","","html-button-response","45","143100","0.0-45.0","8143DFE6B5C64739A3FD3BAF963163D5","019cf81d-7edf-7486-b0e6-5e7b0c0b8f4e","019cf80d-4266-7117-8a51-54e13c84aca4","","617","
                <div class=""stimulus-container"">
                    <img src=""images/schematic_sequence/dinner_party_scheme/dinner_party_scheme_4.png"" class=""exp-image"">
                    <div class=""question-area"">
                        <p style=""font-size: 20px; font-weight: bold; margin: 0;"">Is there a person in this image?</p>
                    </div>
                </div>","0","main_experiment_trial","4","dinner_party_scheme","schematic_sequence","","","","",""
"","","","","","html-keyboard-response","46","148114","0.0-46.0","8143DFE6B5C64739A3FD3BAF963163D5","019cf81d-7edf-7486-b0e6-5e7b0c0b8f4e","019cf80d-4266-7117-8a51-54e13c84aca4","","null","
                <div class=""stimulus-container"">
                    <img src=""images/schematic_sequence/dinner_party_scheme/dinner_party_scheme_5.png"" class=""exp-image"">
                    <div class=""question-area""></div> 
                </div>","null","","","","","","","","",""
"","","","","","html-button-response","47","148589","0.0-47.0","8143DFE6B5C64739A3FD3BAF963163D5","019cf81d-7edf-7486-b0e6-5e7b0c0b8f4e","019cf80d-4266-7117-8a51-54e13c84aca4","","473","
                <div class=""stimulus-container"">
                    <img src=""images/schematic_sequence/dinner_party_scheme/dinner_party_scheme_5.png"" class=""exp-image"">
                    <div class=""question-area"">
                        <p style=""font-size: 20px; font-weight: bold; margin: 0;"">Is there a person in this image?</p>
                    </div>
                </div>","0","main_experiment_trial","5","dinner_party_scheme","schematic_sequence","","","","",""
"","","","","","html-keyboard-response","48","153592","0.0-48.0","8143DFE6B5C64739A3FD3BAF963163D5","019cf81d-7edf-7486-b0e6-5e7b0c0b8f4e","019cf80d-4266-7117-8a51-54e13c84aca4","","null","
                <div class=""stimulus-container"">
                    <img src=""images/schematic_sequence/dinner_party_scheme/dinner_party_scheme_6.png"" class=""exp-image"">
                    <div class=""question-area""></div> 
                </div>","null","","","","","","","","",""
"","","","","","html-button-response","49","154503","0.0-49.0","8143DFE6B5C64739A3FD3BAF963163D5","019cf81d-7edf-7486-b0e6-5e7b0c0b8f4e","019cf80d-4266-7117-8a51-54e13c84aca4","","910","
                <div class=""stimulus-container"">
                    <img src=""images/schematic_sequence/dinner_party_scheme/dinner_party_scheme_6.png"" class=""exp-image"">
                    <div class=""question-area"">
                        <p style=""font-size: 20px; font-weight: bold; margin: 0;"">Is there a person in this image?</p>
                    </div>
                </div>","0","main_experiment_trial","6","dinner_party_scheme","schematic_sequence","","","","",""
"","","","","","html-keyboard-response","50","159522","0.0-50.0","8143DFE6B5C64739A3FD3BAF963163D5","019cf81d-7edf-7486-b0e6-5e7b0c0b8f4e","019cf80d-4266-7117-8a51-54e13c84aca4","","null","
                <div class=""stimulus-container"">
                    <img src=""images/schematic_sequence/dinner_party_scheme/dinner_party_scheme_7.png"" class=""exp-image"">
                    <div class=""question-area""></div> 
                </div>","null","","","","","","","","",""
"","","","","","html-button-response","51","162307","0.0-51.0","8143DFE6B5C64739A3FD3BAF963163D5","019cf81d-7edf-7486-b0e6-5e7b0c0b8f4e","019cf80d-4266-7117-8a51-54e13c84aca4","","2783","
                <div class=""stimulus-container"">
                    <img src=""images/schematic_sequence/dinner_party_scheme/dinner_party_scheme_7.png"" class=""exp-image"">
                    <div class=""question-area"">
                        <p style=""font-size: 20px; font-weight: bold; margin: 0;"">Is there a person in this image?</p>
                    </div>
                </div>","0","main_experiment_trial","7","dinner_party_scheme","schematic_sequence","","","","",""
"","","","","","html-keyboard-response","52","167312","0.0-52.0","8143DFE6B5C64739A3FD3BAF963163D5","019cf81d-7edf-7486-b0e6-5e7b0c0b8f4e","019cf80d-4266-7117-8a51-54e13c84aca4","","null","
                <div class=""stimulus-container"">
                    <img src=""images/schematic_sequence/dinner_party_scheme/dinner_party_scheme_8.png"" class=""exp-image"">
                    <div class=""question-area""></div> 
                </div>","null","","","","","","","","",""
"","","","","","html-button-response","53","168026","0.0-53.0","8143DFE6B5C64739A3FD3BAF963163D5","019cf81d-7edf-7486-b0e6-5e7b0c0b8f4e","019cf80d-4266-7117-8a51-54e13c84aca4","","713","
                <div class=""stimulus-container"">
                    <img src=""images/schematic_sequence/dinner_party_scheme/dinner_party_scheme_8.png"" class=""exp-image"">
                    <div class=""question-area"">
                        <p style=""font-size: 20px; font-weight: bold; margin: 0;"">Is there a person in this image?</p>
                    </div>
                </div>","0","main_experiment_trial","8","dinner_party_scheme","schematic_sequence","","","","",""
"","","","","","html-keyboard-response","54","173038","0.0-54.0","8143DFE6B5C64739A3FD3BAF963163D5","019cf81d-7edf-7486-b0e6-5e7b0c0b8f4e","019cf80d-4266-7117-8a51-54e13c84aca4","","null","
                <div class=""stimulus-container"">
                    <img src=""images/schematic_sequence/dinner_party_scheme/dinner_party_scheme_9.png"" class=""exp-image"">
                    <div class=""question-area""></div> 
                </div>","null","","","","","","","","",""
"","","","","","html-button-response","55","173825","0.0-55.0","8143DFE6B5C64739A3FD3BAF963163D5","019cf81d-7edf-7486-b0e6-5e7b0c0b8f4e","019cf80d-4266-7117-8a51-54e13c84aca4","","785","
                <div class=""stimulus-container"">
                    <img src=""images/schematic_sequence/dinner_party_scheme/dinner_party_scheme_9.png"" class=""exp-image"">
                    <div class=""question-area"">
                        <p style=""font-size: 20px; font-weight: bold; margin: 0;"">Is there a person in this image?</p>
                    </div>
                </div>","0","main_experiment_trial","9","dinner_party_scheme","schematic_sequence","","","","",""
"","","","","","html-keyboard-response","56","178833","0.0-56.0","8143DFE6B5C64739A3FD3BAF963163D5","019cf81d-7edf-7486-b0e6-5e7b0c0b8f4e","019cf80d-4266-7117-8a51-54e13c84aca4","","null","
                <div class=""stimulus-container"">
                    <img src=""images/schematic_sequence/dinner_party_scheme/dinner_party_scheme_ten.png"" class=""exp-image"">
                    <div class=""question-area""></div> 
                </div>","null","","","","","","","","",""
"","","","","","html-button-response","57","180061","0.0-57.0","8143DFE6B5C64739A3FD3BAF963163D5","019cf81d-7edf-7486-b0e6-5e7b0c0b8f4e","019cf80d-4266-7117-8a51-54e13c84aca4","","1226","
                <div class=""stimulus-container"">
                    <img src=""images/schematic_sequence/dinner_party_scheme/dinner_party_scheme_ten.png"" class=""exp-image"">
                    <div class=""question-area"">
                        <p style=""font-size: 20px; font-weight: bold; margin: 0;"">Is there a person in this image?</p>
                    </div>
                </div>","0","main_experiment_trial","ten","dinner_party_scheme","schematic_sequence","","","","",""
"","","","","","html-keyboard-response","58","181067","0.0-58.0","8143DFE6B5C64739A3FD3BAF963163D5","019cf81d-7edf-7486-b0e6-5e7b0c0b8f4e","019cf80d-4266-7117-8a51-54e13c84aca4","","null","<div style=""background-color: white; width: 100vw; height: 100vh;""></div>","null","","","","","","","","",""
"","","","","","html-keyboard-response","59","186069","0.0-59.0","8143DFE6B5C64739A3FD3BAF963163D5","019cf81d-7edf-7486-b0e6-5e7b0c0b8f4e","019cf80d-4266-7117-8a51-54e13c84aca4","","null","
                <div class=""stimulus-container"">
                    <img src=""images/schematic_sequence/interview_scheme/interview_scheme_1.png"" class=""exp-image"">
                    <div class=""question-area""></div> 
                </div>","null","","","","","","","","",""
"","","","","","html-button-response","60","187899","0.0-60.0","8143DFE6B5C64739A3FD3BAF963163D5","019cf81d-7edf-7486-b0e6-5e7b0c0b8f4e","019cf80d-4266-7117-8a51-54e13c84aca4","","1828","
                <div class=""stimulus-container"">
                    <img src=""images/schematic_sequence/interview_scheme/interview_scheme_1.png"" class=""exp-image"">
                    <div class=""question-area"">
                        <p style=""font-size: 20px; font-weight: bold; margin: 0;"">Is there a person in this image?</p>
                    </div>
                </div>","1","main_experiment_trial","1","interview_scheme","schematic_sequence","","","","",""
"","","","","","html-keyboard-response","61","192912","0.0-61.0","8143DFE6B5C64739A3FD3BAF963163D5","019cf81d-7edf-7486-b0e6-5e7b0c0b8f4e","019cf80d-4266-7117-8a51-54e13c84aca4","","null","
                <div class=""stimulus-container"">
                    <img src=""images/schematic_sequence/interview_scheme/interview_scheme_2.png"" class=""exp-image"">
                    <div class=""question-area""></div> 
                </div>","null","","","","","","","","",""
"","","","","","html-button-response","62","195123","0.0-62.0","8143DFE6B5C64739A3FD3BAF963163D5","019cf81d-7edf-7486-b0e6-5e7b0c0b8f4e","019cf80d-4266-7117-8a51-54e13c84aca4","","2209","
                <div class=""stimulus-container"">
                    <img src=""images/schematic_sequence/interview_scheme/interview_scheme_2.png"" class=""exp-image"">
                    <div class=""question-area"">
                        <p style=""font-size: 20px; font-weight: bold; margin: 0;"">Is there a person in this image?</p>
                    </div>
                </div>","1","main_experiment_trial","2","interview_scheme","schematic_sequence","","","","",""
"","","","","","html-keyboard-response","63","200137","0.0-63.0","8143DFE6B5C64739A3FD3BAF963163D5","019cf81d-7edf-7486-b0e6-5e7b0c0b8f4e","019cf80d-4266-7117-8a51-54e13c84aca4","","null","
                <div class=""stimulus-container"">
                    <img src=""images/schematic_sequence/interview_scheme/interview_scheme_3.png"" class=""exp-image"">
                    <div class=""question-area""></div> 
                </div>","null","","","","","","","","",""
"","","","","","html-button-response","64","201194","0.0-64.0","8143DFE6B5C64739A3FD3BAF963163D5","019cf81d-7edf-7486-b0e6-5e7b0c0b8f4e","019cf80d-4266-7117-8a51-54e13c84aca4","","1054","
                <div class=""stimulus-container"">
                    <img src=""images/schematic_sequence/interview_scheme/interview_scheme_3.png"" class=""exp-image"">
                    <div class=""question-area"">
                        <p style=""font-size: 20px; font-weight: bold; margin: 0;"">Is there a person in this image?</p>
                    </div>
                </div>","1","main_experiment_trial","3","interview_scheme","schematic_sequence","","","","",""
"","","","","","html-keyboard-response","65","206212","0.0-65.0","8143DFE6B5C64739A3FD3BAF963163D5","019cf81d-7edf-7486-b0e6-5e7b0c0b8f4e","019cf80d-4266-7117-8a51-54e13c84aca4","","null","
                <div class=""stimulus-container"">
                    <img src=""images/schematic_sequence/interview_scheme/interview_scheme_4.png"" class=""exp-image"">
                    <div class=""question-area""></div> 
                </div>","null","","","","","","","","",""
"","","","","","html-button-response","66","206993","0.0-66.0","8143DFE6B5C64739A3FD3BAF963163D5","019cf81d-7edf-7486-b0e6-5e7b0c0b8f4e","019cf80d-4266-7117-8a51-54e13c84aca4","","780","
                <div class=""stimulus-container"">
                    <img src=""images/schematic_sequence/interview_scheme/interview_scheme_4.png"" class=""exp-image"">
                    <div class=""question-area"">
                        <p style=""font-size: 20px; font-weight: bold; margin: 0;"">Is there a person in this image?</p>
                    </div>
                </div>","1","main_experiment_trial","4","interview_scheme","schematic_sequence","","","","",""
"","","","","","html-keyboard-response","67","212009","0.0-67.0","8143DFE6B5C64739A3FD3BAF963163D5","019cf81d-7edf-7486-b0e6-5e7b0c0b8f4e","019cf80d-4266-7117-8a51-54e13c84aca4","","null","
                <div class=""stimulus-container"">
                    <img src=""images/schematic_sequence/interview_scheme/interview_scheme_5.png"" class=""exp-image"">
                    <div class=""question-area""></div> 
                </div>","null","","","","","","","","",""
"","","","","","html-button-response","68","212882","0.0-68.0","8143DFE6B5C64739A3FD3BAF963163D5","019cf81d-7edf-7486-b0e6-5e7b0c0b8f4e","019cf80d-4266-7117-8a51-54e13c84aca4","","871","
                <div class=""stimulus-container"">
                    <img src=""images/schematic_sequence/interview_scheme/interview_scheme_5.png"" class=""exp-image"">
                    <div class=""question-area"">
                        <p style=""font-size: 20px; font-weight: bold; margin: 0;"">Is there a person in this image?</p>
                    </div>
                </div>","0","main_experiment_trial","5","interview_scheme","schematic_sequence","","","","",""
"","","","","","html-keyboard-response","69","217885","0.0-69.0","8143DFE6B5C64739A3FD3BAF963163D5","019cf81d-7edf-7486-b0e6-5e7b0c0b8f4e","019cf80d-4266-7117-8a51-54e13c84aca4","","null","
                <div class=""stimulus-container"">
                    <img src=""images/schematic_sequence/interview_scheme/interview_scheme_6.png"" class=""exp-image"">
                    <div class=""question-area""></div> 
                </div>","null","","","","","","","","",""
"","","","","","html-button-response","70","219602","0.0-70.0","8143DFE6B5C64739A3FD3BAF963163D5","019cf81d-7edf-7486-b0e6-5e7b0c0b8f4e","019cf80d-4266-7117-8a51-54e13c84aca4","","1716","
                <div class=""stimulus-container"">
                    <img src=""images/schematic_sequence/interview_scheme/interview_scheme_6.png"" class=""exp-image"">
                    <div class=""question-area"">
                        <p style=""font-size: 20px; font-weight: bold; margin: 0;"">Is there a person in this image?</p>
                    </div>
                </div>","0","main_experiment_trial","6","interview_scheme","schematic_sequence","","","","",""
"","","","","","html-keyboard-response","71","224616","0.0-71.0","8143DFE6B5C64739A3FD3BAF963163D5","019cf81d-7edf-7486-b0e6-5e7b0c0b8f4e","019cf80d-4266-7117-8a51-54e13c84aca4","","null","
                <div class=""stimulus-container"">
                    <img src=""images/schematic_sequence/interview_scheme/interview_scheme_7.png"" class=""exp-image"">
                    <div class=""question-area""></div> 
                </div>","null","","","","","","","","",""
"","","","","","html-button-response","72","225475","0.0-72.0","8143DFE6B5C64739A3FD3BAF963163D5","019cf81d-7edf-7486-b0e6-5e7b0c0b8f4e","019cf80d-4266-7117-8a51-54e13c84aca4","","857","
                <div class=""stimulus-container"">
                    <img src=""images/schematic_sequence/interview_scheme/interview_scheme_7.png"" class=""exp-image"">
                    <div class=""question-area"">
                        <p style=""font-size: 20px; font-weight: bold; margin: 0;"">Is there a person in this image?</p>
                    </div>
                </div>","0","main_experiment_trial","7","interview_scheme","schematic_sequence","","","","",""
"","","","","","html-keyboard-response","73","230477","0.0-73.0","8143DFE6B5C64739A3FD3BAF963163D5","019cf81d-7edf-7486-b0e6-5e7b0c0b8f4e","019cf80d-4266-7117-8a51-54e13c84aca4","","null","
                <div class=""stimulus-container"">
                    <img src=""images/schematic_sequence/interview_scheme/interview_scheme_8.png"" class=""exp-image"">
                    <div class=""question-area""></div> 
                </div>","null","","","","","","","","",""
"","","","","","html-button-response","74","232729","0.0-74.0","8143DFE6B5C64739A3FD3BAF963163D5","019cf81d-7edf-7486-b0e6-5e7b0c0b8f4e","019cf80d-4266-7117-8a51-54e13c84aca4","","2250","
                <div class=""stimulus-container"">
                    <img src=""images/schematic_sequence/interview_scheme/interview_scheme_8.png"" class=""exp-image"">
                    <div class=""question-area"">
                        <p style=""font-size: 20px; font-weight: bold; margin: 0;"">Is there a person in this image?</p>
                    </div>
                </div>","0","main_experiment_trial","8","interview_scheme","schematic_sequence","","","","",""
"","","","","","html-keyboard-response","75","237744","0.0-75.0","8143DFE6B5C64739A3FD3BAF963163D5","019cf81d-7edf-7486-b0e6-5e7b0c0b8f4e","019cf80d-4266-7117-8a51-54e13c84aca4","","null","
                <div class=""stimulus-container"">
                    <img src=""images/schematic_sequence/interview_scheme/interview_scheme_9.png"" class=""exp-image"">
                    <div class=""question-area""></div> 
                </div>","null","","","","","","","","",""
"","","","","","html-button-response","76","239434","0.0-76.0","8143DFE6B5C64739A3FD3BAF963163D5","019cf81d-7edf-7486-b0e6-5e7b0c0b8f4e","019cf80d-4266-7117-8a51-54e13c84aca4","","1688","
                <div class=""stimulus-container"">
                    <img src=""images/schematic_sequence/interview_scheme/interview_scheme_9.png"" class=""exp-image"">
                    <div class=""question-area"">
                        <p style=""font-size: 20px; font-weight: bold; margin: 0;"">Is there a person in this image?</p>
                    </div>
                </div>","0","main_experiment_trial","9","interview_scheme","schematic_sequence","","","","",""
"","","","","","html-keyboard-response","77","244438","0.0-77.0","8143DFE6B5C64739A3FD3BAF963163D5","019cf81d-7edf-7486-b0e6-5e7b0c0b8f4e","019cf80d-4266-7117-8a51-54e13c84aca4","","null","
                <div class=""stimulus-container"">
                    <img src=""images/schematic_sequence/interview_scheme/interview_scheme_ten.png"" class=""exp-image"">
                    <div class=""question-area""></div> 
                </div>","null","","","","","","","","",""
"","","","","","html-button-response","78","245776","0.0-78.0","8143DFE6B5C64739A3FD3BAF963163D5","019cf81d-7edf-7486-b0e6-5e7b0c0b8f4e","019cf80d-4266-7117-8a51-54e13c84aca4","","1336","
                <div class=""stimulus-container"">
                    <img src=""images/schematic_sequence/interview_scheme/interview_scheme_ten.png"" class=""exp-image"">
                    <div class=""question-area"">
                        <p style=""font-size: 20px; font-weight: bold; margin: 0;"">Is there a person in this image?</p>
                    </div>
                </div>","0","main_experiment_trial","ten","interview_scheme","schematic_sequence","","","","",""
"","","","","","html-keyboard-response","79","246791","0.0-79.0","8143DFE6B5C64739A3FD3BAF963163D5","019cf81d-7edf-7486-b0e6-5e7b0c0b8f4e","019cf80d-4266-7117-8a51-54e13c84aca4","","null","<div style=""background-color: white; width: 100vw; height: 100vh;""></div>","null","","","","","","","","",""
"","","","","","html-keyboard-response","80","251808","0.0-80.0","8143DFE6B5C64739A3FD3BAF963163D5","019cf81d-7edf-7486-b0e6-5e7b0c0b8f4e","019cf80d-4266-7117-8a51-54e13c84aca4","","null","
                <div class=""stimulus-container"">
                    <img src=""images/semantic_sequence/visiting_cities_semantic/visiting_cities_semantic_1.png"" class=""exp-image"">
                    <div class=""question-area""></div> 
                </div>","null","","","","","","","","",""
"","","","","","html-button-response","81","254045","0.0-81.0","8143DFE6B5C64739A3FD3BAF963163D5","019cf81d-7edf-7486-b0e6-5e7b0c0b8f4e","019cf80d-4266-7117-8a51-54e13c84aca4","","2235","
                <div class=""stimulus-container"">
                    <img src=""images/semantic_sequence/visiting_cities_semantic/visiting_cities_semantic_1.png"" class=""exp-image"">
                    <div class=""question-area"">
                        <p style=""font-size: 20px; font-weight: bold; margin: 0;"">Is there a person in this image?</p>
                    </div>
                </div>","1","main_experiment_trial","1","visiting_cities_semantic","semantic_sequence","","","","",""
"","","","","","html-keyboard-response","82","259060","0.0-82.0","8143DFE6B5C64739A3FD3BAF963163D5","019cf81d-7edf-7486-b0e6-5e7b0c0b8f4e","019cf80d-4266-7117-8a51-54e13c84aca4","","null","
                <div class=""stimulus-container"">
                    <img src=""images/semantic_sequence/visiting_cities_semantic/visiting_cities_semantic_2.png"" class=""exp-image"">
                    <div class=""question-area""></div> 
                </div>","null","","","","","","","","",""
"","","","","","html-button-response","83","261326","0.0-83.0","8143DFE6B5C64739A3FD3BAF963163D5","019cf81d-7edf-7486-b0e6-5e7b0c0b8f4e","019cf80d-4266-7117-8a51-54e13c84aca4","","2264","
                <div class=""stimulus-container"">
                    <img src=""images/semantic_sequence/visiting_cities_semantic/visiting_cities_semantic_2.png"" class=""exp-image"">
                    <div class=""question-area"">
                        <p style=""font-size: 20px; font-weight: bold; margin: 0;"">Is there a person in this image?</p>
                    </div>
                </div>","1","main_experiment_trial","2","visiting_cities_semantic","semantic_sequence","","","","",""
"","","","","","html-keyboard-response","84","266338","0.0-84.0","8143DFE6B5C64739A3FD3BAF963163D5","019cf81d-7edf-7486-b0e6-5e7b0c0b8f4e","019cf80d-4266-7117-8a51-54e13c84aca4","","null","
                <div class=""stimulus-container"">
                    <img src=""images/semantic_sequence/visiting_cities_semantic/visiting_cities_semantic_3.png"" class=""exp-image"">
                    <div class=""question-area""></div> 
                </div>","null","","","","","","","","",""
"","","","","","html-button-response","85","267858","0.0-85.0","8143DFE6B5C64739A3FD3BAF963163D5","019cf81d-7edf-7486-b0e6-5e7b0c0b8f4e","019cf80d-4266-7117-8a51-54e13c84aca4","","1518","
                <div class=""stimulus-container"">
                    <img src=""images/semantic_sequence/visiting_cities_semantic/visiting_cities_semantic_3.png"" class=""exp-image"">
                    <div class=""question-area"">
                        <p style=""font-size: 20px; font-weight: bold; margin: 0;"">Is there a person in this image?</p>
                    </div>
                </div>","1","main_experiment_trial","3","visiting_cities_semantic","semantic_sequence","","","","",""
"","","","","","html-keyboard-response","86","272867","0.0-86.0","8143DFE6B5C64739A3FD3BAF963163D5","019cf81d-7edf-7486-b0e6-5e7b0c0b8f4e","019cf80d-4266-7117-8a51-54e13c84aca4","","null","
                <div class=""stimulus-container"">
                    <img src=""images/semantic_sequence/visiting_cities_semantic/visiting_cities_semantic_4.png"" class=""exp-image"">
                    <div class=""question-area""></div> 
                </div>","null","","","","","","","","",""
"","","","","","html-button-response","87","275043","0.0-87.0","8143DFE6B5C64739A3FD3BAF963163D5","019cf81d-7edf-7486-b0e6-5e7b0c0b8f4e","019cf80d-4266-7117-8a51-54e13c84aca4","","2175","
                <div class=""stimulus-container"">
                    <img src=""images/semantic_sequence/visiting_cities_semantic/visiting_cities_semantic_4.png"" class=""exp-image"">
                    <div class=""question-area"">
                        <p style=""font-size: 20px; font-weight: bold; margin: 0;"">Is there a person in this image?</p>
                    </div>
                </div>","1","main_experiment_trial","4","visiting_cities_semantic","semantic_sequence","","","","",""
"","","","","","html-keyboard-response","88","280047","0.0-88.0","8143DFE6B5C64739A3FD3BAF963163D5","019cf81d-7edf-7486-b0e6-5e7b0c0b8f4e","019cf80d-4266-7117-8a51-54e13c84aca4","","null","
                <div class=""stimulus-container"">
                    <img src=""images/semantic_sequence/visiting_cities_semantic/visiting_cities_semantic_5.png"" class=""exp-image"">
                    <div class=""question-area""></div> 
                </div>","null","","","","","","","","",""
"","","","","","html-button-response","89","281432","0.0-89.0","8143DFE6B5C64739A3FD3BAF963163D5","019cf81d-7edf-7486-b0e6-5e7b0c0b8f4e","019cf80d-4266-7117-8a51-54e13c84aca4","","1383","
                <div class=""stimulus-container"">
                    <img src=""images/semantic_sequence/visiting_cities_semantic/visiting_cities_semantic_5.png"" class=""exp-image"">
                    <div class=""question-area"">
                        <p style=""font-size: 20px; font-weight: bold; margin: 0;"">Is there a person in this image?</p>
                    </div>
                </div>","1","main_experiment_trial","5","visiting_cities_semantic","semantic_sequence","","","","",""
"","","","","","html-keyboard-response","90","286448","0.0-90.0","8143DFE6B5C64739A3FD3BAF963163D5","019cf81d-7edf-7486-b0e6-5e7b0c0b8f4e","019cf80d-4266-7117-8a51-54e13c84aca4","","null","
                <div class=""stimulus-container"">
                    <img src=""images/semantic_sequence/visiting_cities_semantic/visiting_cities_semantic_6.png"" class=""exp-image"">
                    <div class=""question-area""></div> 
                </div>","null","","","","","","","","",""
"","","","","","html-button-response","91","287322","0.0-91.0","8143DFE6B5C64739A3FD3BAF963163D5","019cf81d-7edf-7486-b0e6-5e7b0c0b8f4e","019cf80d-4266-7117-8a51-54e13c84aca4","","872","
                <div class=""stimulus-container"">
                    <img src=""images/semantic_sequence/visiting_cities_semantic/visiting_cities_semantic_6.png"" class=""exp-image"">
                    <div class=""question-area"">
                        <p style=""font-size: 20px; font-weight: bold; margin: 0;"">Is there a person in this image?</p>
                    </div>
                </div>","1","main_experiment_trial","6","visiting_cities_semantic","semantic_sequence","","","","",""
"","","","","","html-keyboard-response","92","292329","0.0-92.0","8143DFE6B5C64739A3FD3BAF963163D5","019cf81d-7edf-7486-b0e6-5e7b0c0b8f4e","019cf80d-4266-7117-8a51-54e13c84aca4","","null","
                <div class=""stimulus-container"">
                    <img src=""images/semantic_sequence/visiting_cities_semantic/visiting_cities_semantic_7.png"" class=""exp-image"">
                    <div class=""question-area""></div> 
                </div>","null","","","","","","","","",""
"","","","","","html-button-response","93","293973","0.0-93.0","8143DFE6B5C64739A3FD3BAF963163D5","019cf81d-7edf-7486-b0e6-5e7b0c0b8f4e","019cf80d-4266-7117-8a51-54e13c84aca4","","1642","
                <div class=""stimulus-container"">
                    <img src=""images/semantic_sequence/visiting_cities_semantic/visiting_cities_semantic_7.png"" class=""exp-image"">
                    <div class=""question-area"">
                        <p style=""font-size: 20px; font-weight: bold; margin: 0;"">Is there a person in this image?</p>
                    </div>
                </div>","1","main_experiment_trial","7","visiting_cities_semantic","semantic_sequence","","","","",""
"","","","","","html-keyboard-response","94","298978","0.0-94.0","8143DFE6B5C64739A3FD3BAF963163D5","019cf81d-7edf-7486-b0e6-5e7b0c0b8f4e","019cf80d-4266-7117-8a51-54e13c84aca4","","null","
                <div class=""stimulus-container"">
                    <img src=""images/semantic_sequence/visiting_cities_semantic/visiting_cities_semantic_8.png"" class=""exp-image"">
                    <div class=""question-area""></div> 
                </div>","null","","","","","","","","",""
"","","","","","html-button-response","95","299242","0.0-95.0","8143DFE6B5C64739A3FD3BAF963163D5","019cf81d-7edf-7486-b0e6-5e7b0c0b8f4e","019cf80d-4266-7117-8a51-54e13c84aca4","","262","
                <div class=""stimulus-container"">
                    <img src=""images/semantic_sequence/visiting_cities_semantic/visiting_cities_semantic_8.png"" class=""exp-image"">
                    <div class=""question-area"">
                        <p style=""font-size: 20px; font-weight: bold; margin: 0;"">Is there a person in this image?</p>
                    </div>
                </div>","1","main_experiment_trial","8","visiting_cities_semantic","semantic_sequence","","","","",""
"","","","","","html-keyboard-response","96","304245","0.0-96.0","8143DFE6B5C64739A3FD3BAF963163D5","019cf81d-7edf-7486-b0e6-5e7b0c0b8f4e","019cf80d-4266-7117-8a51-54e13c84aca4","","null","
                <div class=""stimulus-container"">
                    <img src=""images/semantic_sequence/visiting_cities_semantic/visiting_cities_semantic_9.png"" class=""exp-image"">
                    <div class=""question-area""></div> 
                </div>","null","","","","","","","","",""
"","","","","","html-button-response","97","305365","0.0-97.0","8143DFE6B5C64739A3FD3BAF963163D5","019cf81d-7edf-7486-b0e6-5e7b0c0b8f4e","019cf80d-4266-7117-8a51-54e13c84aca4","","1119","
                <div class=""stimulus-container"">
                    <img src=""images/semantic_sequence/visiting_cities_semantic/visiting_cities_semantic_9.png"" class=""exp-image"">
                    <div class=""question-area"">
                        <p style=""font-size: 20px; font-weight: bold; margin: 0;"">Is there a person in this image?</p>
                    </div>
                </div>","1","main_experiment_trial","9","visiting_cities_semantic","semantic_sequence","","","","",""
"","","","","","html-keyboard-response","98","310374","0.0-98.0","8143DFE6B5C64739A3FD3BAF963163D5","019cf81d-7edf-7486-b0e6-5e7b0c0b8f4e","019cf80d-4266-7117-8a51-54e13c84aca4","","null","
                <div class=""stimulus-container"">
                    <img src=""images/semantic_sequence/visiting_cities_semantic/visiting_cities_semantic_ten.png"" class=""exp-image"">
                    <div class=""question-area""></div> 
                </div>","null","","","","","","","","",""
"","","","","","html-button-response","99","311249","0.0-99.0","8143DFE6B5C64739A3FD3BAF963163D5","019cf81d-7edf-7486-b0e6-5e7b0c0b8f4e","019cf80d-4266-7117-8a51-54e13c84aca4","","873","
                <div class=""stimulus-container"">
                    <img src=""images/semantic_sequence/visiting_cities_semantic/visiting_cities_semantic_ten.png"" class=""exp-image"">
                    <div class=""question-area"">
                        <p style=""font-size: 20px; font-weight: bold; margin: 0;"">Is there a person in this image?</p>
                    </div>
                </div>","1","main_experiment_trial","ten","visiting_cities_semantic","semantic_sequence","","","","",""
"","","","","","html-keyboard-response","100","312256","0.0-100.0","8143DFE6B5C64739A3FD3BAF963163D5","019cf81d-7edf-7486-b0e6-5e7b0c0b8f4e","019cf80d-4266-7117-8a51-54e13c84aca4","","null","<div style=""background-color: white; width: 100vw; height: 100vh;""></div>","null","","","","","","","","",""
"","","","","","html-keyboard-response","101","317262","0.0-101.0","8143DFE6B5C64739A3FD3BAF963163D5","019cf81d-7edf-7486-b0e6-5e7b0c0b8f4e","019cf80d-4266-7117-8a51-54e13c84aca4","","null","
                <div class=""stimulus-container"">
                    <img src=""images/semantic_sequence/exploring_nature_semantic/exploring_nature_semantic_1.png"" class=""exp-image"">
                    <div class=""question-area""></div> 
                </div>","null","","","","","","","","",""
"","","","","","html-button-response","102","318743","0.0-102.0","8143DFE6B5C64739A3FD3BAF963163D5","019cf81d-7edf-7486-b0e6-5e7b0c0b8f4e","019cf80d-4266-7117-8a51-54e13c84aca4","","1480","
                <div class=""stimulus-container"">
                    <img src=""images/semantic_sequence/exploring_nature_semantic/exploring_nature_semantic_1.png"" class=""exp-image"">
                    <div class=""question-area"">
                        <p style=""font-size: 20px; font-weight: bold; margin: 0;"">Is there a person in this image?</p>
                    </div>
                </div>","0","main_experiment_trial","1","exploring_nature_semantic","semantic_sequence","","","","",""
"","","","","","html-keyboard-response","103","323745","0.0-103.0","8143DFE6B5C64739A3FD3BAF963163D5","019cf81d-7edf-7486-b0e6-5e7b0c0b8f4e","019cf80d-4266-7117-8a51-54e13c84aca4","","null","
                <div class=""stimulus-container"">
                    <img src=""images/semantic_sequence/exploring_nature_semantic/exploring_nature_semantic_2.png"" class=""exp-image"">
                    <div class=""question-area""></div> 
                </div>","null","","","","","","","","",""
"","","","","","html-button-response","104","325042","0.0-104.0","8143DFE6B5C64739A3FD3BAF963163D5","019cf81d-7edf-7486-b0e6-5e7b0c0b8f4e","019cf80d-4266-7117-8a51-54e13c84aca4","","1294","
                <div class=""stimulus-container"">
                    <img src=""images/semantic_sequence/exploring_nature_semantic/exploring_nature_semantic_2.png"" class=""exp-image"">
                    <div class=""question-area"">
                        <p style=""font-size: 20px; font-weight: bold; margin: 0;"">Is there a person in this image?</p>
                    </div>
                </div>","0","main_experiment_trial","2","exploring_nature_semantic","semantic_sequence","","","","",""
"","","","","","html-keyboard-response","105","330057","0.0-105.0","8143DFE6B5C64739A3FD3BAF963163D5","019cf81d-7edf-7486-b0e6-5e7b0c0b8f4e","019cf80d-4266-7117-8a51-54e13c84aca4","","null","
                <div class=""stimulus-container"">
                    <img src=""images/semantic_sequence/exploring_nature_semantic/exploring_nature_semantic_3.png"" class=""exp-image"">
                    <div class=""question-area""></div> 
                </div>","null","","","","","","","","",""
"","","","","","html-button-response","106","331295","0.0-106.0","8143DFE6B5C64739A3FD3BAF963163D5","019cf81d-7edf-7486-b0e6-5e7b0c0b8f4e","019cf80d-4266-7117-8a51-54e13c84aca4","","1236","
                <div class=""stimulus-container"">
                    <img src=""images/semantic_sequence/exploring_nature_semantic/exploring_nature_semantic_3.png"" class=""exp-image"">
                    <div class=""question-area"">
                        <p style=""font-size: 20px; font-weight: bold; margin: 0;"">Is there a person in this image?</p>
                    </div>
                </div>","0","main_experiment_trial","3","exploring_nature_semantic","semantic_sequence","","","","",""
"","","","","","html-keyboard-response","107","336303","0.0-107.0","8143DFE6B5C64739A3FD3BAF963163D5","019cf81d-7edf-7486-b0e6-5e7b0c0b8f4e","019cf80d-4266-7117-8a51-54e13c84aca4","","null","
                <div class=""stimulus-container"">
                    <img src=""images/semantic_sequence/exploring_nature_semantic/exploring_nature_semantic_4.png"" class=""exp-image"">
                    <div class=""question-area""></div> 
                </div>","null","","","","","","","","",""
"","","","","","html-button-response","108","337883","0.0-108.0","8143DFE6B5C64739A3FD3BAF963163D5","019cf81d-7edf-7486-b0e6-5e7b0c0b8f4e","019cf80d-4266-7117-8a51-54e13c84aca4","","1580","
                <div class=""stimulus-container"">
                    <img src=""images/semantic_sequence/exploring_nature_semantic/exploring_nature_semantic_4.png"" class=""exp-image"">
                    <div class=""question-area"">
                        <p style=""font-size: 20px; font-weight: bold; margin: 0;"">Is there a person in this image?</p>
                    </div>
                </div>","0","main_experiment_trial","4","exploring_nature_semantic","semantic_sequence","","","","",""
"","","","","","html-keyboard-response","109","342901","0.0-109.0","8143DFE6B5C64739A3FD3BAF963163D5","019cf81d-7edf-7486-b0e6-5e7b0c0b8f4e","019cf80d-4266-7117-8a51-54e13c84aca4","","null","
                <div class=""stimulus-container"">
                    <img src=""images/semantic_sequence/exploring_nature_semantic/exploring_nature_semantic_5.png"" class=""exp-image"">
                    <div class=""question-area""></div> 
                </div>","null","","","","","","","","",""
"","","","","","html-button-response","110","344390","0.0-110.0","8143DFE6B5C64739A3FD3BAF963163D5","019cf81d-7edf-7486-b0e6-5e7b0c0b8f4e","019cf80d-4266-7117-8a51-54e13c84aca4","","1487","
                <div class=""stimulus-container"">
                    <img src=""images/semantic_sequence/exploring_nature_semantic/exploring_nature_semantic_5.png"" class=""exp-image"">
                    <div class=""question-area"">
                        <p style=""font-size: 20px; font-weight: bold; margin: 0;"">Is there a person in this image?</p>
                    </div>
                </div>","0","main_experiment_trial","5","exploring_nature_semantic","semantic_sequence","","","","",""
"","","","","","html-keyboard-response","111","349399","0.0-111.0","8143DFE6B5C64739A3FD3BAF963163D5","019cf81d-7edf-7486-b0e6-5e7b0c0b8f4e","019cf80d-4266-7117-8a51-54e13c84aca4","","null","
                <div class=""stimulus-container"">
                    <img src=""images/semantic_sequence/exploring_nature_semantic/exploring_nature_semantic_6.png"" class=""exp-image"">
                    <div class=""question-area""></div> 
                </div>","null","","","","","","","","",""
"","","","","","html-button-response","112","351091","0.0-112.0","8143DFE6B5C64739A3FD3BAF963163D5","019cf81d-7edf-7486-b0e6-5e7b0c0b8f4e","019cf80d-4266-7117-8a51-54e13c84aca4","","1691","
                <div class=""stimulus-container"">
                    <img src=""images/semantic_sequence/exploring_nature_semantic/exploring_nature_semantic_6.png"" class=""exp-image"">
                    <div class=""question-area"">
                        <p style=""font-size: 20px; font-weight: bold; margin: 0;"">Is there a person in this image?</p>
                    </div>
                </div>","0","main_experiment_trial","6","exploring_nature_semantic","semantic_sequence","","","","",""
"","","","","","html-keyboard-response","113","356097","0.0-113.0","8143DFE6B5C64739A3FD3BAF963163D5","019cf81d-7edf-7486-b0e6-5e7b0c0b8f4e","019cf80d-4266-7117-8a51-54e13c84aca4","","null","
                <div class=""stimulus-container"">
                    <img src=""images/semantic_sequence/exploring_nature_semantic/exploring_nature_semantic_7.png"" class=""exp-image"">
                    <div class=""question-area""></div> 
                </div>","null","","","","","","","","",""
"","","","","","html-button-response","114","357448","0.0-114.0","8143DFE6B5C64739A3FD3BAF963163D5","019cf81d-7edf-7486-b0e6-5e7b0c0b8f4e","019cf80d-4266-7117-8a51-54e13c84aca4","","1349","
                <div class=""stimulus-container"">
                    <img src=""images/semantic_sequence/exploring_nature_semantic/exploring_nature_semantic_7.png"" class=""exp-image"">
                    <div class=""question-area"">
                        <p style=""font-size: 20px; font-weight: bold; margin: 0;"">Is there a person in this image?</p>
                    </div>
                </div>","0","main_experiment_trial","7","exploring_nature_semantic","semantic_sequence","","","","",""
"","","","","","html-keyboard-response","115","362462","0.0-115.0","8143DFE6B5C64739A3FD3BAF963163D5","019cf81d-7edf-7486-b0e6-5e7b0c0b8f4e","019cf80d-4266-7117-8a51-54e13c84aca4","","null","
                <div class=""stimulus-container"">
                    <img src=""images/semantic_sequence/exploring_nature_semantic/exploring_nature_semantic_8.png"" class=""exp-image"">
                    <div class=""question-area""></div> 
                </div>","null","","","","","","","","",""
"","","","","","html-button-response","116","364713","0.0-116.0","8143DFE6B5C64739A3FD3BAF963163D5","019cf81d-7edf-7486-b0e6-5e7b0c0b8f4e","019cf80d-4266-7117-8a51-54e13c84aca4","","2249","
                <div class=""stimulus-container"">
                    <img src=""images/semantic_sequence/exploring_nature_semantic/exploring_nature_semantic_8.png"" class=""exp-image"">
                    <div class=""question-area"">
                        <p style=""font-size: 20px; font-weight: bold; margin: 0;"">Is there a person in this image?</p>
                    </div>
                </div>","0","main_experiment_trial","8","exploring_nature_semantic","semantic_sequence","","","","",""
"","","","","","html-keyboard-response","117","369728","0.0-117.0","8143DFE6B5C64739A3FD3BAF963163D5","019cf81d-7edf-7486-b0e6-5e7b0c0b8f4e","019cf80d-4266-7117-8a51-54e13c84aca4","","null","
                <div class=""stimulus-container"">
                    <img src=""images/semantic_sequence/exploring_nature_semantic/exploring_nature_semantic_9.png"" class=""exp-image"">
                    <div class=""question-area""></div> 
                </div>","null","","","","","","","","",""
"","","","","","html-button-response","118","370525","0.0-118.0","8143DFE6B5C64739A3FD3BAF963163D5","019cf81d-7edf-7486-b0e6-5e7b0c0b8f4e","019cf80d-4266-7117-8a51-54e13c84aca4","","795","
                <div class=""stimulus-container"">
                    <img src=""images/semantic_sequence/exploring_nature_semantic/exploring_nature_semantic_9.png"" class=""exp-image"">
                    <div class=""question-area"">
                        <p style=""font-size: 20px; font-weight: bold; margin: 0;"">Is there a person in this image?</p>
                    </div>
                </div>","0","main_experiment_trial","9","exploring_nature_semantic","semantic_sequence","","","","",""
"","","","","","html-keyboard-response","119","375543","0.0-119.0","8143DFE6B5C64739A3FD3BAF963163D5","019cf81d-7edf-7486-b0e6-5e7b0c0b8f4e","019cf80d-4266-7117-8a51-54e13c84aca4","","null","
                <div class=""stimulus-container"">
                    <img src=""images/semantic_sequence/exploring_nature_semantic/exploring_nature_semantic_ten.png"" class=""exp-image"">
                    <div class=""question-area""></div> 
                </div>","null","","","","","","","","",""
"","","","","","html-button-response","120","378555","0.0-120.0","8143DFE6B5C64739A3FD3BAF963163D5","019cf81d-7edf-7486-b0e6-5e7b0c0b8f4e","019cf80d-4266-7117-8a51-54e13c84aca4","","null","
                <div class=""stimulus-container"">
                    <img src=""images/semantic_sequence/exploring_nature_semantic/exploring_nature_semantic_ten.png"" class=""exp-image"">
                    <div class=""question-area"">
                        <p style=""font-size: 20px; font-weight: bold; margin: 0;"">Is there a person in this image?</p>
                    </div>
                </div>","null","main_experiment_trial","ten","exploring_nature_semantic","semantic_sequence","","","","",""
"","","","","","html-keyboard-response","121","379563","0.0-121.0","8143DFE6B5C64739A3FD3BAF963163D5","019cf81d-7edf-7486-b0e6-5e7b0c0b8f4e","019cf80d-4266-7117-8a51-54e13c84aca4","","null","<div style=""background-color: white; width: 100vw; height: 100vh;""></div>","null","","","","","","","","",""
"","","","","","html-keyboard-response","122","384571","0.0-122.0","8143DFE6B5C64739A3FD3BAF963163D5","019cf81d-7edf-7486-b0e6-5e7b0c0b8f4e","019cf80d-4266-7117-8a51-54e13c84aca4","","null","
                <div class=""stimulus-container"">
                    <img src=""images/schematic_sequence/flight_scheme/flight_scheme_1.png"" class=""exp-image"">
                    <div class=""question-area""></div> 
                </div>","null","","","","","","","","",""
"","","","","","html-button-response","123","386514","0.0-123.0","8143DFE6B5C64739A3FD3BAF963163D5","019cf81d-7edf-7486-b0e6-5e7b0c0b8f4e","019cf80d-4266-7117-8a51-54e13c84aca4","","1941","
                <div class=""stimulus-container"">
                    <img src=""images/schematic_sequence/flight_scheme/flight_scheme_1.png"" class=""exp-image"">
                    <div class=""question-area"">
                        <p style=""font-size: 20px; font-weight: bold; margin: 0;"">Is there a person in this image?</p>
                    </div>
                </div>","0","main_experiment_trial","1","flight_scheme","schematic_sequence","","","","",""
"","","","","","html-keyboard-response","124","391525","0.0-124.0","8143DFE6B5C64739A3FD3BAF963163D5","019cf81d-7edf-7486-b0e6-5e7b0c0b8f4e","019cf80d-4266-7117-8a51-54e13c84aca4","","null","
                <div class=""stimulus-container"">
                    <img src=""images/schematic_sequence/flight_scheme/flight_scheme_2.png"" class=""exp-image"">
                    <div class=""question-area""></div> 
                </div>","null","","","","","","","","",""
"","","","","","html-button-response","125","392752","0.0-125.0","8143DFE6B5C64739A3FD3BAF963163D5","019cf81d-7edf-7486-b0e6-5e7b0c0b8f4e","019cf80d-4266-7117-8a51-54e13c84aca4","","1225","
                <div class=""stimulus-container"">
                    <img src=""images/schematic_sequence/flight_scheme/flight_scheme_2.png"" class=""exp-image"">
                    <div class=""question-area"">
                        <p style=""font-size: 20px; font-weight: bold; margin: 0;"">Is there a person in this image?</p>
                    </div>
                </div>","1","main_experiment_trial","2","flight_scheme","schematic_sequence","","","","",""
"","","","","","html-keyboard-response","126","397762","0.0-126.0","8143DFE6B5C64739A3FD3BAF963163D5","019cf81d-7edf-7486-b0e6-5e7b0c0b8f4e","019cf80d-4266-7117-8a51-54e13c84aca4","","null","
                <div class=""stimulus-container"">
                    <img src=""images/schematic_sequence/flight_scheme/flight_scheme_3.png"" class=""exp-image"">
                    <div class=""question-area""></div> 
                </div>","null","","","","","","","","",""
"","","","","","html-button-response","127","400160","0.0-127.0","8143DFE6B5C64739A3FD3BAF963163D5","019cf81d-7edf-7486-b0e6-5e7b0c0b8f4e","019cf80d-4266-7117-8a51-54e13c84aca4","","2396","
                <div class=""stimulus-container"">
                    <img src=""images/schematic_sequence/flight_scheme/flight_scheme_3.png"" class=""exp-image"">
                    <div class=""question-area"">
                        <p style=""font-size: 20px; font-weight: bold; margin: 0;"">Is there a person in this image?</p>
                    </div>
                </div>","0","main_experiment_trial","3","flight_scheme","schematic_sequence","","","","",""
"","","","","","html-keyboard-response","128","405166","0.0-128.0","8143DFE6B5C64739A3FD3BAF963163D5","019cf81d-7edf-7486-b0e6-5e7b0c0b8f4e","019cf80d-4266-7117-8a51-54e13c84aca4","","null","
                <div class=""stimulus-container"">
                    <img src=""images/schematic_sequence/flight_scheme/flight_scheme_4.png"" class=""exp-image"">
                    <div class=""question-area""></div> 
                </div>","null","","","","","","","","",""
"","","","","","html-button-response","129","406087","0.0-129.0","8143DFE6B5C64739A3FD3BAF963163D5","019cf81d-7edf-7486-b0e6-5e7b0c0b8f4e","019cf80d-4266-7117-8a51-54e13c84aca4","","920","
                <div class=""stimulus-container"">
                    <img src=""images/schematic_sequence/flight_scheme/flight_scheme_4.png"" class=""exp-image"">
                    <div class=""question-area"">
                        <p style=""font-size: 20px; font-weight: bold; margin: 0;"">Is there a person in this image?</p>
                    </div>
                </div>","0","main_experiment_trial","4","flight_scheme","schematic_sequence","","","","",""
"","","","","","html-keyboard-response","130","411096","0.0-130.0","8143DFE6B5C64739A3FD3BAF963163D5","019cf81d-7edf-7486-b0e6-5e7b0c0b8f4e","019cf80d-4266-7117-8a51-54e13c84aca4","","null","
                <div class=""stimulus-container"">
                    <img src=""images/schematic_sequence/flight_scheme/flight_scheme_5.png"" class=""exp-image"">
                    <div class=""question-area""></div> 
                </div>","null","","","","","","","","",""
"","","","","","html-button-response","131","412761","0.0-131.0","8143DFE6B5C64739A3FD3BAF963163D5","019cf81d-7edf-7486-b0e6-5e7b0c0b8f4e","019cf80d-4266-7117-8a51-54e13c84aca4","","1663","
                <div class=""stimulus-container"">
                    <img src=""images/schematic_sequence/flight_scheme/flight_scheme_5.png"" class=""exp-image"">
                    <div class=""question-area"">
                        <p style=""font-size: 20px; font-weight: bold; margin: 0;"">Is there a person in this image?</p>
                    </div>
                </div>","0","main_experiment_trial","5","flight_scheme","schematic_sequence","","","","",""
"","","","","","html-keyboard-response","132","417775","0.0-132.0","8143DFE6B5C64739A3FD3BAF963163D5","019cf81d-7edf-7486-b0e6-5e7b0c0b8f4e","019cf80d-4266-7117-8a51-54e13c84aca4","","null","
                <div class=""stimulus-container"">
                    <img src=""images/schematic_sequence/flight_scheme/flight_scheme_6.png"" class=""exp-image"">
                    <div class=""question-area""></div> 
                </div>","null","","","","","","","","",""
"","","","","","html-button-response","133","419098","0.0-133.0","8143DFE6B5C64739A3FD3BAF963163D5","019cf81d-7edf-7486-b0e6-5e7b0c0b8f4e","019cf80d-4266-7117-8a51-54e13c84aca4","","1322","
                <div class=""stimulus-container"">
                    <img src=""images/schematic_sequence/flight_scheme/flight_scheme_6.png"" class=""exp-image"">
                    <div class=""question-area"">
                        <p style=""font-size: 20px; font-weight: bold; margin: 0;"">Is there a person in this image?</p>
                    </div>
                </div>","1","main_experiment_trial","6","flight_scheme","schematic_sequence","","","","",""
"","","","","","html-keyboard-response","134","424115","0.0-134.0","8143DFE6B5C64739A3FD3BAF963163D5","019cf81d-7edf-7486-b0e6-5e7b0c0b8f4e","019cf80d-4266-7117-8a51-54e13c84aca4","","null","
                <div class=""stimulus-container"">
                    <img src=""images/schematic_sequence/flight_scheme/flight_scheme_7.png"" class=""exp-image"">
                    <div class=""question-area""></div> 
                </div>","null","","","","","","","","",""
"","","","","","html-button-response","135","426975","0.0-135.0","8143DFE6B5C64739A3FD3BAF963163D5","019cf81d-7edf-7486-b0e6-5e7b0c0b8f4e","019cf80d-4266-7117-8a51-54e13c84aca4","","2858","
                <div class=""stimulus-container"">
                    <img src=""images/schematic_sequence/flight_scheme/flight_scheme_7.png"" class=""exp-image"">
                    <div class=""question-area"">
                        <p style=""font-size: 20px; font-weight: bold; margin: 0;"">Is there a person in this image?</p>
                    </div>
                </div>","1","main_experiment_trial","7","flight_scheme","schematic_sequence","","","","",""
"","","","","","html-keyboard-response","136","431978","0.0-136.0","8143DFE6B5C64739A3FD3BAF963163D5","019cf81d-7edf-7486-b0e6-5e7b0c0b8f4e","019cf80d-4266-7117-8a51-54e13c84aca4","","null","
                <div class=""stimulus-container"">
                    <img src=""images/schematic_sequence/flight_scheme/flight_scheme_8.png"" class=""exp-image"">
                    <div class=""question-area""></div> 
                </div>","null","","","","","","","","",""
"","","","","","html-button-response","137","434072","0.0-137.0","8143DFE6B5C64739A3FD3BAF963163D5","019cf81d-7edf-7486-b0e6-5e7b0c0b8f4e","019cf80d-4266-7117-8a51-54e13c84aca4","","2092","
                <div class=""stimulus-container"">
                    <img src=""images/schematic_sequence/flight_scheme/flight_scheme_8.png"" class=""exp-image"">
                    <div class=""question-area"">
                        <p style=""font-size: 20px; font-weight: bold; margin: 0;"">Is there a person in this image?</p>
                    </div>
                </div>","1","main_experiment_trial","8","flight_scheme","schematic_sequence","","","","",""
"","","","","","html-keyboard-response","138","439083","0.0-138.0","8143DFE6B5C64739A3FD3BAF963163D5","019cf81d-7edf-7486-b0e6-5e7b0c0b8f4e","019cf80d-4266-7117-8a51-54e13c84aca4","","null","
                <div class=""stimulus-container"">
                    <img src=""images/schematic_sequence/flight_scheme/flight_scheme_9.png"" class=""exp-image"">
                    <div class=""question-area""></div> 
                </div>","null","","","","","","","","",""
"","","","","","html-button-response","139","441635","0.0-139.0","8143DFE6B5C64739A3FD3BAF963163D5","019cf81d-7edf-7486-b0e6-5e7b0c0b8f4e","019cf80d-4266-7117-8a51-54e13c84aca4","","2550","
                <div class=""stimulus-container"">
                    <img src=""images/schematic_sequence/flight_scheme/flight_scheme_9.png"" class=""exp-image"">
                    <div class=""question-area"">
                        <p style=""font-size: 20px; font-weight: bold; margin: 0;"">Is there a person in this image?</p>
                    </div>
                </div>","0","main_experiment_trial","9","flight_scheme","schematic_sequence","","","","",""
"","","","","","html-keyboard-response","140","446651","0.0-140.0","8143DFE6B5C64739A3FD3BAF963163D5","019cf81d-7edf-7486-b0e6-5e7b0c0b8f4e","019cf80d-4266-7117-8a51-54e13c84aca4","","null","
                <div class=""stimulus-container"">
                    <img src=""images/schematic_sequence/flight_scheme/flight_scheme_ten.png"" class=""exp-image"">
                    <div class=""question-area""></div> 
                </div>","null","","","","","","","","",""
"","","","","","html-button-response","141","447476","0.0-141.0","8143DFE6B5C64739A3FD3BAF963163D5","019cf81d-7edf-7486-b0e6-5e7b0c0b8f4e","019cf80d-4266-7117-8a51-54e13c84aca4","","824","
                <div class=""stimulus-container"">
                    <img src=""images/schematic_sequence/flight_scheme/flight_scheme_ten.png"" class=""exp-image"">
                    <div class=""question-area"">
                        <p style=""font-size: 20px; font-weight: bold; margin: 0;"">Is there a person in this image?</p>
                    </div>
                </div>","0","main_experiment_trial","ten","flight_scheme","schematic_sequence","","","","",""
"","","","","","html-keyboard-response","142","448482","0.0-142.0","8143DFE6B5C64739A3FD3BAF963163D5","019cf81d-7edf-7486-b0e6-5e7b0c0b8f4e","019cf80d-4266-7117-8a51-54e13c84aca4","","null","<div style=""background-color: white; width: 100vw; height: 100vh;""></div>","null","","","","","","","","",""
"","","","","","html-keyboard-response","143","453489","0.0-143.0","8143DFE6B5C64739A3FD3BAF963163D5","019cf81d-7edf-7486-b0e6-5e7b0c0b8f4e","019cf80d-4266-7117-8a51-54e13c84aca4","","null","
                <div class=""stimulus-container"">
                    <img src=""images/semantic_sequence/housework_semantic/housework_semantic_1.png"" class=""exp-image"">
                    <div class=""question-area""></div> 
                </div>","null","","","","","","","","",""
"","","","","","html-button-response","144","455825","0.0-144.0","8143DFE6B5C64739A3FD3BAF963163D5","019cf81d-7edf-7486-b0e6-5e7b0c0b8f4e","019cf80d-4266-7117-8a51-54e13c84aca4","","2334","
                <div class=""stimulus-container"">
                    <img src=""images/semantic_sequence/housework_semantic/housework_semantic_1.png"" class=""exp-image"">
                    <div class=""question-area"">
                        <p style=""font-size: 20px; font-weight: bold; margin: 0;"">Is there a person in this image?</p>
                    </div>
                </div>","0","main_experiment_trial","1","housework_semantic","semantic_sequence","","","","",""
"","","","","","html-keyboard-response","145","460834","0.0-145.0","8143DFE6B5C64739A3FD3BAF963163D5","019cf81d-7edf-7486-b0e6-5e7b0c0b8f4e","019cf80d-4266-7117-8a51-54e13c84aca4","","null","
                <div class=""stimulus-container"">
                    <img src=""images/semantic_sequence/housework_semantic/housework_semantic_2.png"" class=""exp-image"">
                    <div class=""question-area""></div> 
                </div>","null","","","","","","","","",""
"","","","","","html-button-response","146","462208","0.0-146.0","8143DFE6B5C64739A3FD3BAF963163D5","019cf81d-7edf-7486-b0e6-5e7b0c0b8f4e","019cf80d-4266-7117-8a51-54e13c84aca4","","1373","
                <div class=""stimulus-container"">
                    <img src=""images/semantic_sequence/housework_semantic/housework_semantic_2.png"" class=""exp-image"">
                    <div class=""question-area"">
                        <p style=""font-size: 20px; font-weight: bold; margin: 0;"">Is there a person in this image?</p>
                    </div>
                </div>","0","main_experiment_trial","2","housework_semantic","semantic_sequence","","","","",""
"","","","","","html-keyboard-response","147","467214","0.0-147.0","8143DFE6B5C64739A3FD3BAF963163D5","019cf81d-7edf-7486-b0e6-5e7b0c0b8f4e","019cf80d-4266-7117-8a51-54e13c84aca4","","null","
                <div class=""stimulus-container"">
                    <img src=""images/semantic_sequence/housework_semantic/housework_semantic_3.png"" class=""exp-image"">
                    <div class=""question-area""></div> 
                </div>","null","","","","","","","","",""
"","","","","","html-button-response","148","468818","0.0-148.0","8143DFE6B5C64739A3FD3BAF963163D5","019cf81d-7edf-7486-b0e6-5e7b0c0b8f4e","019cf80d-4266-7117-8a51-54e13c84aca4","","1603","
                <div class=""stimulus-container"">
                    <img src=""images/semantic_sequence/housework_semantic/housework_semantic_3.png"" class=""exp-image"">
                    <div class=""question-area"">
                        <p style=""font-size: 20px; font-weight: bold; margin: 0;"">Is there a person in this image?</p>
                    </div>
                </div>","0","main_experiment_trial","3","housework_semantic","semantic_sequence","","","","",""
"","","","","","html-keyboard-response","149","473823","0.0-149.0","8143DFE6B5C64739A3FD3BAF963163D5","019cf81d-7edf-7486-b0e6-5e7b0c0b8f4e","019cf80d-4266-7117-8a51-54e13c84aca4","","null","
                <div class=""stimulus-container"">
                    <img src=""images/semantic_sequence/housework_semantic/housework_semantic_4.png"" class=""exp-image"">
                    <div class=""question-area""></div> 
                </div>","null","","","","","","","","",""
"","","","","","html-button-response","150","475459","0.0-150.0","8143DFE6B5C64739A3FD3BAF963163D5","019cf81d-7edf-7486-b0e6-5e7b0c0b8f4e","019cf80d-4266-7117-8a51-54e13c84aca4","","1634","
                <div class=""stimulus-container"">
                    <img src=""images/semantic_sequence/housework_semantic/housework_semantic_4.png"" class=""exp-image"">
                    <div class=""question-area"">
                        <p style=""font-size: 20px; font-weight: bold; margin: 0;"">Is there a person in this image?</p>
                    </div>
                </div>","0","main_experiment_trial","4","housework_semantic","semantic_sequence","","","","",""
"","","","","","html-keyboard-response","151","480462","0.0-151.0","8143DFE6B5C64739A3FD3BAF963163D5","019cf81d-7edf-7486-b0e6-5e7b0c0b8f4e","019cf80d-4266-7117-8a51-54e13c84aca4","","null","
                <div class=""stimulus-container"">
                    <img src=""images/semantic_sequence/housework_semantic/housework_semantic_5.png"" class=""exp-image"">
                    <div class=""question-area""></div> 
                </div>","null","","","","","","","","",""
"","","","","","html-button-response","152","482243","0.0-152.0","8143DFE6B5C64739A3FD3BAF963163D5","019cf81d-7edf-7486-b0e6-5e7b0c0b8f4e","019cf80d-4266-7117-8a51-54e13c84aca4","","1779","
                <div class=""stimulus-container"">
                    <img src=""images/semantic_sequence/housework_semantic/housework_semantic_5.png"" class=""exp-image"">
                    <div class=""question-area"">
                        <p style=""font-size: 20px; font-weight: bold; margin: 0;"">Is there a person in this image?</p>
                    </div>
                </div>","0","main_experiment_trial","5","housework_semantic","semantic_sequence","","","","",""
"","","","","","html-keyboard-response","153","487253","0.0-153.0","8143DFE6B5C64739A3FD3BAF963163D5","019cf81d-7edf-7486-b0e6-5e7b0c0b8f4e","019cf80d-4266-7117-8a51-54e13c84aca4","","null","
                <div class=""stimulus-container"">
                    <img src=""images/semantic_sequence/housework_semantic/housework_semantic_6.png"" class=""exp-image"">
                    <div class=""question-area""></div> 
                </div>","null","","","","","","","","",""
"","","","","","html-button-response","154","488153","0.0-154.0","8143DFE6B5C64739A3FD3BAF963163D5","019cf81d-7edf-7486-b0e6-5e7b0c0b8f4e","019cf80d-4266-7117-8a51-54e13c84aca4","","898","
                <div class=""stimulus-container"">
                    <img src=""images/semantic_sequence/housework_semantic/housework_semantic_6.png"" class=""exp-image"">
                    <div class=""question-area"">
                        <p style=""font-size: 20px; font-weight: bold; margin: 0;"">Is there a person in this image?</p>
                    </div>
                </div>","0","main_experiment_trial","6","housework_semantic","semantic_sequence","","","","",""
"","","","","","html-keyboard-response","155","493169","0.0-155.0","8143DFE6B5C64739A3FD3BAF963163D5","019cf81d-7edf-7486-b0e6-5e7b0c0b8f4e","019cf80d-4266-7117-8a51-54e13c84aca4","","null","
                <div class=""stimulus-container"">
                    <img src=""images/semantic_sequence/housework_semantic/housework_semantic_7.png"" class=""exp-image"">
                    <div class=""question-area""></div> 
                </div>","null","","","","","","","","",""
"","","","","","html-button-response","156","494753","0.0-156.0","8143DFE6B5C64739A3FD3BAF963163D5","019cf81d-7edf-7486-b0e6-5e7b0c0b8f4e","019cf80d-4266-7117-8a51-54e13c84aca4","","1582","
                <div class=""stimulus-container"">
                    <img src=""images/semantic_sequence/housework_semantic/housework_semantic_7.png"" class=""exp-image"">
                    <div class=""question-area"">
                        <p style=""font-size: 20px; font-weight: bold; margin: 0;"">Is there a person in this image?</p>
                    </div>
                </div>","0","main_experiment_trial","7","housework_semantic","semantic_sequence","","","","",""
"","","","","","html-keyboard-response","157","499763","0.0-157.0","8143DFE6B5C64739A3FD3BAF963163D5","019cf81d-7edf-7486-b0e6-5e7b0c0b8f4e","019cf80d-4266-7117-8a51-54e13c84aca4","","null","
                <div class=""stimulus-container"">
                    <img src=""images/semantic_sequence/housework_semantic/housework_semantic_8.png"" class=""exp-image"">
                    <div class=""question-area""></div> 
                </div>","null","","","","","","","","",""
"","","","","","html-button-response","158","500897","0.0-158.0","8143DFE6B5C64739A3FD3BAF963163D5","019cf81d-7edf-7486-b0e6-5e7b0c0b8f4e","019cf80d-4266-7117-8a51-54e13c84aca4","","1133","
                <div class=""stimulus-container"">
                    <img src=""images/semantic_sequence/housework_semantic/housework_semantic_8.png"" class=""exp-image"">
                    <div class=""question-area"">
                        <p style=""font-size: 20px; font-weight: bold; margin: 0;"">Is there a person in this image?</p>
                    </div>
                </div>","0","main_experiment_trial","8","housework_semantic","semantic_sequence","","","","",""
"","","","","","html-keyboard-response","159","505914","0.0-159.0","8143DFE6B5C64739A3FD3BAF963163D5","019cf81d-7edf-7486-b0e6-5e7b0c0b8f4e","019cf80d-4266-7117-8a51-54e13c84aca4","","null","
                <div class=""stimulus-container"">
                    <img src=""images/semantic_sequence/housework_semantic/housework_semantic_9.png"" class=""exp-image"">
                    <div class=""question-area""></div> 
                </div>","null","","","","","","","","",""
"","","","","","html-button-response","160","507708","0.0-160.0","8143DFE6B5C64739A3FD3BAF963163D5","019cf81d-7edf-7486-b0e6-5e7b0c0b8f4e","019cf80d-4266-7117-8a51-54e13c84aca4","","1793","
                <div class=""stimulus-container"">
                    <img src=""images/semantic_sequence/housework_semantic/housework_semantic_9.png"" class=""exp-image"">
                    <div class=""question-area"">
                        <p style=""font-size: 20px; font-weight: bold; margin: 0;"">Is there a person in this image?</p>
                    </div>
                </div>","0","main_experiment_trial","9","housework_semantic","semantic_sequence","","","","",""
"","","","","","html-keyboard-response","161","512716","0.0-161.0","8143DFE6B5C64739A3FD3BAF963163D5","019cf81d-7edf-7486-b0e6-5e7b0c0b8f4e","019cf80d-4266-7117-8a51-54e13c84aca4","","null","
                <div class=""stimulus-container"">
                    <img src=""images/semantic_sequence/housework_semantic/housework_semantic_ten.png"" class=""exp-image"">
                    <div class=""question-area""></div> 
                </div>","null","","","","","","","","",""
"","","","","","html-button-response","162","515695","0.0-162.0","8143DFE6B5C64739A3FD3BAF963163D5","019cf81d-7edf-7486-b0e6-5e7b0c0b8f4e","019cf80d-4266-7117-8a51-54e13c84aca4","","2977","
                <div class=""stimulus-container"">
                    <img src=""images/semantic_sequence/housework_semantic/housework_semantic_ten.png"" class=""exp-image"">
                    <div class=""question-area"">
                        <p style=""font-size: 20px; font-weight: bold; margin: 0;"">Is there a person in this image?</p>
                    </div>
                </div>","0","main_experiment_trial","ten","housework_semantic","semantic_sequence","","","","",""
"","","","","","html-keyboard-response","163","516696","0.0-163.0","8143DFE6B5C64739A3FD3BAF963163D5","019cf81d-7edf-7486-b0e6-5e7b0c0b8f4e","019cf80d-4266-7117-8a51-54e13c84aca4","","null","<div style=""background-color: white; width: 100vw; height: 100vh;""></div>","null","","","","","","","","",""
"","","","","","html-keyboard-response","164","521710","0.0-164.0","8143DFE6B5C64739A3FD3BAF963163D5","019cf81d-7edf-7486-b0e6-5e7b0c0b8f4e","019cf80d-4266-7117-8a51-54e13c84aca4","","null","
                <div class=""stimulus-container"">
                    <img src=""images/semantic_sequence/maintaining_a_car_semantic/maintaining_a_car_semantic_1.png"" class=""exp-image"">
                    <div class=""question-area""></div> 
                </div>","null","","","","","","","","",""
"","","","","","html-button-response","165","523030","0.0-165.0","8143DFE6B5C64739A3FD3BAF963163D5","019cf81d-7edf-7486-b0e6-5e7b0c0b8f4e","019cf80d-4266-7117-8a51-54e13c84aca4","","1318","
                <div class=""stimulus-container"">
                    <img src=""images/semantic_sequence/maintaining_a_car_semantic/maintaining_a_car_semantic_1.png"" class=""exp-image"">
                    <div class=""question-area"">
                        <p style=""font-size: 20px; font-weight: bold; margin: 0;"">Is there a person in this image?</p>
                    </div>
                </div>","0","main_experiment_trial","1","maintaining_a_car_semantic","semantic_sequence","","","","",""
"","","","","","html-keyboard-response","166","528038","0.0-166.0","8143DFE6B5C64739A3FD3BAF963163D5","019cf81d-7edf-7486-b0e6-5e7b0c0b8f4e","019cf80d-4266-7117-8a51-54e13c84aca4","","null","
                <div class=""stimulus-container"">
                    <img src=""images/semantic_sequence/maintaining_a_car_semantic/maintaining_a_car_semantic_2.png"" class=""exp-image"">
                    <div class=""question-area""></div> 
                </div>","null","","","","","","","","",""
"","","","","","html-button-response","167","530823","0.0-167.0","8143DFE6B5C64739A3FD3BAF963163D5","019cf81d-7edf-7486-b0e6-5e7b0c0b8f4e","019cf80d-4266-7117-8a51-54e13c84aca4","","2783","
                <div class=""stimulus-container"">
                    <img src=""images/semantic_sequence/maintaining_a_car_semantic/maintaining_a_car_semantic_2.png"" class=""exp-image"">
                    <div class=""question-area"">
                        <p style=""font-size: 20px; font-weight: bold; margin: 0;"">Is there a person in this image?</p>
                    </div>
                </div>","0","main_experiment_trial","2","maintaining_a_car_semantic","semantic_sequence","","","","",""
"","","","","","html-keyboard-response","168","535832","0.0-168.0","8143DFE6B5C64739A3FD3BAF963163D5","019cf81d-7edf-7486-b0e6-5e7b0c0b8f4e","019cf80d-4266-7117-8a51-54e13c84aca4","","null","
                <div class=""stimulus-container"">
                    <img src=""images/semantic_sequence/maintaining_a_car_semantic/maintaining_a_car_semantic_3.png"" class=""exp-image"">
                    <div class=""question-area""></div> 
                </div>","null","","","","","","","","",""
"","","","","","html-button-response","169","537972","0.0-169.0","8143DFE6B5C64739A3FD3BAF963163D5","019cf81d-7edf-7486-b0e6-5e7b0c0b8f4e","019cf80d-4266-7117-8a51-54e13c84aca4","","2139","
                <div class=""stimulus-container"">
                    <img src=""images/semantic_sequence/maintaining_a_car_semantic/maintaining_a_car_semantic_3.png"" class=""exp-image"">
                    <div class=""question-area"">
                        <p style=""font-size: 20px; font-weight: bold; margin: 0;"">Is there a person in this image?</p>
                    </div>
                </div>","0","main_experiment_trial","3","maintaining_a_car_semantic","semantic_sequence","","","","",""
"","","","","","html-keyboard-response","170","542974","0.0-170.0","8143DFE6B5C64739A3FD3BAF963163D5","019cf81d-7edf-7486-b0e6-5e7b0c0b8f4e","019cf80d-4266-7117-8a51-54e13c84aca4","","null","
                <div class=""stimulus-container"">
                    <img src=""images/semantic_sequence/maintaining_a_car_semantic/maintaining_a_car_semantic_4.png"" class=""exp-image"">
                    <div class=""question-area""></div> 
                </div>","null","","","","","","","","",""
"","","","","","html-button-response","171","545976","0.0-171.0","8143DFE6B5C64739A3FD3BAF963163D5","019cf81d-7edf-7486-b0e6-5e7b0c0b8f4e","019cf80d-4266-7117-8a51-54e13c84aca4","","null","
                <div class=""stimulus-container"">
                    <img src=""images/semantic_sequence/maintaining_a_car_semantic/maintaining_a_car_semantic_4.png"" class=""exp-image"">
                    <div class=""question-area"">
                        <p style=""font-size: 20px; font-weight: bold; margin: 0;"">Is there a person in this image?</p>
                    </div>
                </div>","null","main_experiment_trial","4","maintaining_a_car_semantic","semantic_sequence","","","","",""
"","","","","","html-keyboard-response","172","550989","0.0-172.0","8143DFE6B5C64739A3FD3BAF963163D5","019cf81d-7edf-7486-b0e6-5e7b0c0b8f4e","019cf80d-4266-7117-8a51-54e13c84aca4","","null","
                <div class=""stimulus-container"">
                    <img src=""images/semantic_sequence/maintaining_a_car_semantic/maintaining_a_car_semantic_5.png"" class=""exp-image"">
                    <div class=""question-area""></div> 
                </div>","null","","","","","","","","",""
"","","","","","html-button-response","173","552351","0.0-173.0","8143DFE6B5C64739A3FD3BAF963163D5","019cf81d-7edf-7486-b0e6-5e7b0c0b8f4e","019cf80d-4266-7117-8a51-54e13c84aca4","","1360","
                <div class=""stimulus-container"">
                    <img src=""images/semantic_sequence/maintaining_a_car_semantic/maintaining_a_car_semantic_5.png"" class=""exp-image"">
                    <div class=""question-area"">
                        <p style=""font-size: 20px; font-weight: bold; margin: 0;"">Is there a person in this image?</p>
                    </div>
                </div>","0","main_experiment_trial","5","maintaining_a_car_semantic","semantic_sequence","","","","",""
"","","","","","html-keyboard-response","174","557363","0.0-174.0","8143DFE6B5C64739A3FD3BAF963163D5","019cf81d-7edf-7486-b0e6-5e7b0c0b8f4e","019cf80d-4266-7117-8a51-54e13c84aca4","","null","
                <div class=""stimulus-container"">
                    <img src=""images/semantic_sequence/maintaining_a_car_semantic/maintaining_a_car_semantic_6.png"" class=""exp-image"">
                    <div class=""question-area""></div> 
                </div>","null","","","","","","","","",""
"","","","","","html-button-response","175","558480","0.0-175.0","8143DFE6B5C64739A3FD3BAF963163D5","019cf81d-7edf-7486-b0e6-5e7b0c0b8f4e","019cf80d-4266-7117-8a51-54e13c84aca4","","1115","
                <div class=""stimulus-container"">
                    <img src=""images/semantic_sequence/maintaining_a_car_semantic/maintaining_a_car_semantic_6.png"" class=""exp-image"">
                    <div class=""question-area"">
                        <p style=""font-size: 20px; font-weight: bold; margin: 0;"">Is there a person in this image?</p>
                    </div>
                </div>","0","main_experiment_trial","6","maintaining_a_car_semantic","semantic_sequence","","","","",""
"","","","","","html-keyboard-response","176","563483","0.0-176.0","8143DFE6B5C64739A3FD3BAF963163D5","019cf81d-7edf-7486-b0e6-5e7b0c0b8f4e","019cf80d-4266-7117-8a51-54e13c84aca4","","null","
                <div class=""stimulus-container"">
                    <img src=""images/semantic_sequence/maintaining_a_car_semantic/maintaining_a_car_semantic_7.png"" class=""exp-image"">
                    <div class=""question-area""></div> 
                </div>","null","","","","","","","","",""
"","","","","","html-button-response","177","565068","0.0-177.0","8143DFE6B5C64739A3FD3BAF963163D5","019cf81d-7edf-7486-b0e6-5e7b0c0b8f4e","019cf80d-4266-7117-8a51-54e13c84aca4","","1584","
                <div class=""stimulus-container"">
                    <img src=""images/semantic_sequence/maintaining_a_car_semantic/maintaining_a_car_semantic_7.png"" class=""exp-image"">
                    <div class=""question-area"">
                        <p style=""font-size: 20px; font-weight: bold; margin: 0;"">Is there a person in this image?</p>
                    </div>
                </div>","0","main_experiment_trial","7","maintaining_a_car_semantic","semantic_sequence","","","","",""
"","","","","","html-keyboard-response","178","570076","0.0-178.0","8143DFE6B5C64739A3FD3BAF963163D5","019cf81d-7edf-7486-b0e6-5e7b0c0b8f4e","019cf80d-4266-7117-8a51-54e13c84aca4","","null","
                <div class=""stimulus-container"">
                    <img src=""images/semantic_sequence/maintaining_a_car_semantic/maintaining_a_car_semantic_8.png"" class=""exp-image"">
                    <div class=""question-area""></div> 
                </div>","null","","","","","","","","",""
"","","","","","html-button-response","179","571352","0.0-179.0","8143DFE6B5C64739A3FD3BAF963163D5","019cf81d-7edf-7486-b0e6-5e7b0c0b8f4e","019cf80d-4266-7117-8a51-54e13c84aca4","","1274","
                <div class=""stimulus-container"">
                    <img src=""images/semantic_sequence/maintaining_a_car_semantic/maintaining_a_car_semantic_8.png"" class=""exp-image"">
                    <div class=""question-area"">
                        <p style=""font-size: 20px; font-weight: bold; margin: 0;"">Is there a person in this image?</p>
                    </div>
                </div>","0","main_experiment_trial","8","maintaining_a_car_semantic","semantic_sequence","","","","",""
"","","","","","html-keyboard-response","180","576365","0.0-180.0","8143DFE6B5C64739A3FD3BAF963163D5","019cf81d-7edf-7486-b0e6-5e7b0c0b8f4e","019cf80d-4266-7117-8a51-54e13c84aca4","","null","
                <div class=""stimulus-container"">
                    <img src=""images/semantic_sequence/maintaining_a_car_semantic/maintaining_a_car_semantic_9.png"" class=""exp-image"">
                    <div class=""question-area""></div> 
                </div>","null","","","","","","","","",""
