"success","timeout","failed_images","failed_audio","failed_video","trial_type","trial_index","time_elapsed","internal_node_id","subject_id","study_id","session_id","view_history","rt","stimulus","response","task","image_index","folder","sequence_type","valuable_image_index","reward_type","correct_choice","chosen_image_index","target_X"
"true","false","[]","[]","[]","preload","0","64540","0.0-0.0","BD9C6B6A2E84413CA2BAA3FED10FEDC7","019cf702-359f-7021-ab2d-c8f386988350","019cf6fe-235e-7d95-bb9b-b011d2fe188e","","","","","","","","","","","","",""
"","","","","","instructions","1","66705","0.0-1.0","BD9C6B6A2E84413CA2BAA3FED10FEDC7","019cf702-359f-7021-ab2d-c8f386988350","019cf6fe-235e-7d95-bb9b-b011d2fe188e","[{""page_index"":0,""viewing_time"":2164}]","2164","","","","","","","","","","",""
"","","","","","instructions","2","69568","0.0-2.0","BD9C6B6A2E84413CA2BAA3FED10FEDC7","019cf702-359f-7021-ab2d-c8f386988350","019cf6fe-235e-7d95-bb9b-b011d2fe188e","[{""page_index"":0,""viewing_time"":2862}]","2862","","","","","","","","","","",""
"true","","","","","fullscreen","3","71624","0.0-3.0","BD9C6B6A2E84413CA2BAA3FED10FEDC7","019cf702-359f-7021-ab2d-c8f386988350","019cf6fe-235e-7d95-bb9b-b011d2fe188e","","1055","","","","","","","","","","",""
"","","","","","instructions","4","79936","0.0-4.0","BD9C6B6A2E84413CA2BAA3FED10FEDC7","019cf702-359f-7021-ab2d-c8f386988350","019cf6fe-235e-7d95-bb9b-b011d2fe188e","[{""page_index"":0,""viewing_time"":8312}]","8312","","","","","","","","","","",""
"","","","","","instructions","5","213295","0.0-5.0","BD9C6B6A2E84413CA2BAA3FED10FEDC7","019cf702-359f-7021-ab2d-c8f386988350","019cf6fe-235e-7d95-bb9b-b011d2fe188e","[{""page_index"":0,""viewing_time"":133359}]","133359","","","","","","","","","","",""
"","","","","","html-keyboard-response","6","217300","0.0-6.0","BD9C6B6A2E84413CA2BAA3FED10FEDC7","019cf702-359f-7021-ab2d-c8f386988350","019cf6fe-235e-7d95-bb9b-b011d2fe188e","","null","
                <div class=""stimulus-container"">
                    <img src=""images/instructions/movie_1.png"" class=""exp-image"">
                    <div class=""question-area""></div> 
                </div>","null","","","","","","","","",""
"","","","","","html-button-response","7","220240","0.0-7.0","BD9C6B6A2E84413CA2BAA3FED10FEDC7","019cf702-359f-7021-ab2d-c8f386988350","019cf6fe-235e-7d95-bb9b-b011d2fe188e","","2937","
                <div class=""stimulus-container"">
                    <img src=""images/instructions/movie_1.png"" class=""exp-image"">
                    <div class=""question-area"">
                        <p style=""font-size: 20px; font-weight: bold; margin: 0;"">Was there a person in this image?</p>
                    </div>
                </div>","0","example_question","1","","","","","","",""
"","","","","","html-keyboard-response","8","224255","0.0-8.0","BD9C6B6A2E84413CA2BAA3FED10FEDC7","019cf702-359f-7021-ab2d-c8f386988350","019cf6fe-235e-7d95-bb9b-b011d2fe188e","","null","
                <div class=""stimulus-container"">
                    <img src=""images/instructions/movie_2.png"" class=""exp-image"">
                    <div class=""question-area""></div> 
                </div>","null","","","","","","","","",""
"","","","","","html-button-response","9","225151","0.0-9.0","BD9C6B6A2E84413CA2BAA3FED10FEDC7","019cf702-359f-7021-ab2d-c8f386988350","019cf6fe-235e-7d95-bb9b-b011d2fe188e","","895","
                <div class=""stimulus-container"">
                    <img src=""images/instructions/movie_2.png"" class=""exp-image"">
                    <div class=""question-area"">
                        <p style=""font-size: 20px; font-weight: bold; margin: 0;"">Was there a person in this image?</p>
                    </div>
                </div>","0","example_question","2","","","","","","",""
"","","","","","html-keyboard-response","10","230967","0.0-10.0","BD9C6B6A2E84413CA2BAA3FED10FEDC7","019cf702-359f-7021-ab2d-c8f386988350","019cf6fe-235e-7d95-bb9b-b011d2fe188e","","null","
                <div class=""stimulus-container"">
                    <img src=""images/instructions/movie_3.png"" class=""exp-image"">
                    <div class=""question-area""></div> 
                </div>","null","","","","","","","","",""
"","","","","","html-button-response","11","234150","0.0-11.0","BD9C6B6A2E84413CA2BAA3FED10FEDC7","019cf702-359f-7021-ab2d-c8f386988350","019cf6fe-235e-7d95-bb9b-b011d2fe188e","","null","
                <div class=""stimulus-container"">
                    <img src=""images/instructions/movie_3.png"" class=""exp-image"">
                    <div class=""question-area"">
                        <p style=""font-size: 20px; font-weight: bold; margin: 0;"">Was there a person in this image?</p>
                    </div>
                </div>","null","example_question","3","","","","","","",""
"","","","","","html-keyboard-response","12","238158","0.0-12.0","BD9C6B6A2E84413CA2BAA3FED10FEDC7","019cf702-359f-7021-ab2d-c8f386988350","019cf6fe-235e-7d95-bb9b-b011d2fe188e","","null","
                <div class=""stimulus-container"">
                    <img src=""images/instructions/movie_4.png"" class=""exp-image"">
                    <div class=""question-area""></div> 
                </div>","null","","","","","","","","",""
"","","","","","html-button-response","13","240200","0.0-13.0","BD9C6B6A2E84413CA2BAA3FED10FEDC7","019cf702-359f-7021-ab2d-c8f386988350","019cf6fe-235e-7d95-bb9b-b011d2fe188e","","2041","
                <div class=""stimulus-container"">
                    <img src=""images/instructions/movie_4.png"" class=""exp-image"">
                    <div class=""question-area"">
                        <p style=""font-size: 20px; font-weight: bold; margin: 0;"">Was there a person in this image?</p>
                    </div>
                </div>","0","example_question","4","","","","","","",""
"","","","","","instructions","14","243727","0.0-14.0","BD9C6B6A2E84413CA2BAA3FED10FEDC7","019cf702-359f-7021-ab2d-c8f386988350","019cf6fe-235e-7d95-bb9b-b011d2fe188e","[{""page_index"":0,""viewing_time"":3526}]","3526","","","","","","","","","","",""
"","","","","","instructions","15","275575","0.0-15.0","BD9C6B6A2E84413CA2BAA3FED10FEDC7","019cf702-359f-7021-ab2d-c8f386988350","019cf6fe-235e-7d95-bb9b-b011d2fe188e","[{""page_index"":0,""viewing_time"":31847}]","31847","","","","","","","","","","",""
"","","","","","html-keyboard-response","16","276580","0.0-16.0","BD9C6B6A2E84413CA2BAA3FED10FEDC7","019cf702-359f-7021-ab2d-c8f386988350","019cf6fe-235e-7d95-bb9b-b011d2fe188e","","null","<div style=""background-color: white; width: 100vw; height: 100vh;""></div>","null","","","","","","","","",""
"","","","","","html-keyboard-response","17","281580","0.0-17.0","BD9C6B6A2E84413CA2BAA3FED10FEDC7","019cf702-359f-7021-ab2d-c8f386988350","019cf6fe-235e-7d95-bb9b-b011d2fe188e","","null","
                <div class=""stimulus-container"">
                    <img src=""images/schematic_sequence/interview_scheme/interview_scheme_1.png"" class=""exp-image"">
                    <div class=""question-area""></div> 
                </div>","null","","","","","","","","",""
"","","","","","html-button-response","18","282416","0.0-18.0","BD9C6B6A2E84413CA2BAA3FED10FEDC7","019cf702-359f-7021-ab2d-c8f386988350","019cf6fe-235e-7d95-bb9b-b011d2fe188e","","835","
                <div class=""stimulus-container"">
                    <img src=""images/schematic_sequence/interview_scheme/interview_scheme_1.png"" class=""exp-image"">
                    <div class=""question-area"">
                        <p style=""font-size: 20px; font-weight: bold; margin: 0;"">Is there a person in this image?</p>
                    </div>
                </div>","1","main_experiment_trial","1","interview_scheme","schematic_sequence","","","","",""
"","","","","","html-keyboard-response","19","287419","0.0-19.0","BD9C6B6A2E84413CA2BAA3FED10FEDC7","019cf702-359f-7021-ab2d-c8f386988350","019cf6fe-235e-7d95-bb9b-b011d2fe188e","","null","
                <div class=""stimulus-container"">
                    <img src=""images/schematic_sequence/interview_scheme/interview_scheme_2.png"" class=""exp-image"">
                    <div class=""question-area""></div> 
                </div>","null","","","","","","","","",""
"","","","","","html-button-response","20","290419","0.0-20.0","BD9C6B6A2E84413CA2BAA3FED10FEDC7","019cf702-359f-7021-ab2d-c8f386988350","019cf6fe-235e-7d95-bb9b-b011d2fe188e","","null","
                <div class=""stimulus-container"">
                    <img src=""images/schematic_sequence/interview_scheme/interview_scheme_2.png"" class=""exp-image"">
                    <div class=""question-area"">
                        <p style=""font-size: 20px; font-weight: bold; margin: 0;"">Is there a person in this image?</p>
                    </div>
                </div>","null","main_experiment_trial","2","interview_scheme","schematic_sequence","","","","",""
"","","","","","html-keyboard-response","21","295419","0.0-21.0","BD9C6B6A2E84413CA2BAA3FED10FEDC7","019cf702-359f-7021-ab2d-c8f386988350","019cf6fe-235e-7d95-bb9b-b011d2fe188e","","null","
                <div class=""stimulus-container"">
                    <img src=""images/schematic_sequence/interview_scheme/interview_scheme_3.png"" class=""exp-image"">
                    <div class=""question-area""></div> 
                </div>","null","","","","","","","","",""
"","","","","","html-button-response","22","296120","0.0-22.0","BD9C6B6A2E84413CA2BAA3FED10FEDC7","019cf702-359f-7021-ab2d-c8f386988350","019cf6fe-235e-7d95-bb9b-b011d2fe188e","","700","
                <div class=""stimulus-container"">
                    <img src=""images/schematic_sequence/interview_scheme/interview_scheme_3.png"" class=""exp-image"">
                    <div class=""question-area"">
                        <p style=""font-size: 20px; font-weight: bold; margin: 0;"">Is there a person in this image?</p>
                    </div>
                </div>","1","main_experiment_trial","3","interview_scheme","schematic_sequence","","","","",""
"","","","","","html-keyboard-response","23","301124","0.0-23.0","BD9C6B6A2E84413CA2BAA3FED10FEDC7","019cf702-359f-7021-ab2d-c8f386988350","019cf6fe-235e-7d95-bb9b-b011d2fe188e","","null","
                <div class=""stimulus-container"">
                    <img src=""images/schematic_sequence/interview_scheme/interview_scheme_4.png"" class=""exp-image"">
                    <div class=""question-area""></div> 
                </div>","null","","","","","","","","",""
"","","","","","html-button-response","24","301848","0.0-24.0","BD9C6B6A2E84413CA2BAA3FED10FEDC7","019cf702-359f-7021-ab2d-c8f386988350","019cf6fe-235e-7d95-bb9b-b011d2fe188e","","724","
                <div class=""stimulus-container"">
                    <img src=""images/schematic_sequence/interview_scheme/interview_scheme_4.png"" class=""exp-image"">
                    <div class=""question-area"">
                        <p style=""font-size: 20px; font-weight: bold; margin: 0;"">Is there a person in this image?</p>
                    </div>
                </div>","1","main_experiment_trial","4","interview_scheme","schematic_sequence","","","","",""
"","","","","","html-keyboard-response","25","306858","0.0-25.0","BD9C6B6A2E84413CA2BAA3FED10FEDC7","019cf702-359f-7021-ab2d-c8f386988350","019cf6fe-235e-7d95-bb9b-b011d2fe188e","","null","
                <div class=""stimulus-container"">
                    <img src=""images/schematic_sequence/interview_scheme/interview_scheme_5.png"" class=""exp-image"">
                    <div class=""question-area""></div> 
                </div>","null","","","","","","","","",""
"","","","","","html-button-response","26","307656","0.0-26.0","BD9C6B6A2E84413CA2BAA3FED10FEDC7","019cf702-359f-7021-ab2d-c8f386988350","019cf6fe-235e-7d95-bb9b-b011d2fe188e","","798","
                <div class=""stimulus-container"">
                    <img src=""images/schematic_sequence/interview_scheme/interview_scheme_5.png"" class=""exp-image"">
                    <div class=""question-area"">
                        <p style=""font-size: 20px; font-weight: bold; margin: 0;"">Is there a person in this image?</p>
                    </div>
                </div>","0","main_experiment_trial","5","interview_scheme","schematic_sequence","","","","",""
"","","","","","html-keyboard-response","27","312663","0.0-27.0","BD9C6B6A2E84413CA2BAA3FED10FEDC7","019cf702-359f-7021-ab2d-c8f386988350","019cf6fe-235e-7d95-bb9b-b011d2fe188e","","null","
                <div class=""stimulus-container"">
                    <img src=""images/schematic_sequence/interview_scheme/interview_scheme_6.png"" class=""exp-image"">
                    <div class=""question-area""></div> 
                </div>","null","","","","","","","","",""
"","","","","","html-button-response","28","313544","0.0-28.0","BD9C6B6A2E84413CA2BAA3FED10FEDC7","019cf702-359f-7021-ab2d-c8f386988350","019cf6fe-235e-7d95-bb9b-b011d2fe188e","","881","
                <div class=""stimulus-container"">
                    <img src=""images/schematic_sequence/interview_scheme/interview_scheme_6.png"" class=""exp-image"">
                    <div class=""question-area"">
                        <p style=""font-size: 20px; font-weight: bold; margin: 0;"">Is there a person in this image?</p>
                    </div>
                </div>","0","main_experiment_trial","6","interview_scheme","schematic_sequence","","","","",""
"","","","","","html-keyboard-response","29","318561","0.0-29.0","BD9C6B6A2E84413CA2BAA3FED10FEDC7","019cf702-359f-7021-ab2d-c8f386988350","019cf6fe-235e-7d95-bb9b-b011d2fe188e","","null","
                <div class=""stimulus-container"">
                    <img src=""images/schematic_sequence/interview_scheme/interview_scheme_7.png"" class=""exp-image"">
                    <div class=""question-area""></div> 
                </div>","null","","","","","","","","",""
"","","","","","html-button-response","30","319656","0.0-30.0","BD9C6B6A2E84413CA2BAA3FED10FEDC7","019cf702-359f-7021-ab2d-c8f386988350","019cf6fe-235e-7d95-bb9b-b011d2fe188e","","1095","
                <div class=""stimulus-container"">
                    <img src=""images/schematic_sequence/interview_scheme/interview_scheme_7.png"" class=""exp-image"">
                    <div class=""question-area"">
                        <p style=""font-size: 20px; font-weight: bold; margin: 0;"">Is there a person in this image?</p>
                    </div>
                </div>","0","main_experiment_trial","7","interview_scheme","schematic_sequence","","","","",""
"","","","","","html-keyboard-response","31","324658","0.0-31.0","BD9C6B6A2E84413CA2BAA3FED10FEDC7","019cf702-359f-7021-ab2d-c8f386988350","019cf6fe-235e-7d95-bb9b-b011d2fe188e","","null","
                <div class=""stimulus-container"">
                    <img src=""images/schematic_sequence/interview_scheme/interview_scheme_8.png"" class=""exp-image"">
                    <div class=""question-area""></div> 
                </div>","null","","","","","","","","",""
"","","","","","html-button-response","32","325328","0.0-32.0","BD9C6B6A2E84413CA2BAA3FED10FEDC7","019cf702-359f-7021-ab2d-c8f386988350","019cf6fe-235e-7d95-bb9b-b011d2fe188e","","670","
                <div class=""stimulus-container"">
                    <img src=""images/schematic_sequence/interview_scheme/interview_scheme_8.png"" class=""exp-image"">
                    <div class=""question-area"">
                        <p style=""font-size: 20px; font-weight: bold; margin: 0;"">Is there a person in this image?</p>
                    </div>
                </div>","0","main_experiment_trial","8","interview_scheme","schematic_sequence","","","","",""
"","","","","","html-keyboard-response","33","331195","0.0-33.0","BD9C6B6A2E84413CA2BAA3FED10FEDC7","019cf702-359f-7021-ab2d-c8f386988350","019cf6fe-235e-7d95-bb9b-b011d2fe188e","","null","
                <div class=""stimulus-container"">
                    <img src=""images/schematic_sequence/interview_scheme/interview_scheme_9.png"" class=""exp-image"">
                    <div class=""question-area""></div> 
                </div>","null","","","","","","","","",""
"","","","","","html-button-response","34","333544","0.0-34.0","BD9C6B6A2E84413CA2BAA3FED10FEDC7","019cf702-359f-7021-ab2d-c8f386988350","019cf6fe-235e-7d95-bb9b-b011d2fe188e","","2347","
                <div class=""stimulus-container"">
                    <img src=""images/schematic_sequence/interview_scheme/interview_scheme_9.png"" class=""exp-image"">
                    <div class=""question-area"">
                        <p style=""font-size: 20px; font-weight: bold; margin: 0;"">Is there a person in this image?</p>
                    </div>
                </div>","0","main_experiment_trial","9","interview_scheme","schematic_sequence","","","","",""
"","","","","","html-keyboard-response","35","338547","0.0-35.0","BD9C6B6A2E84413CA2BAA3FED10FEDC7","019cf702-359f-7021-ab2d-c8f386988350","019cf6fe-235e-7d95-bb9b-b011d2fe188e","","null","
                <div class=""stimulus-container"">
                    <img src=""images/schematic_sequence/interview_scheme/interview_scheme_ten.png"" class=""exp-image"">
                    <div class=""question-area""></div> 
                </div>","null","","","","","","","","",""
"","","","","","html-button-response","36","340272","0.0-36.0","BD9C6B6A2E84413CA2BAA3FED10FEDC7","019cf702-359f-7021-ab2d-c8f386988350","019cf6fe-235e-7d95-bb9b-b011d2fe188e","","1724","
                <div class=""stimulus-container"">
                    <img src=""images/schematic_sequence/interview_scheme/interview_scheme_ten.png"" class=""exp-image"">
                    <div class=""question-area"">
                        <p style=""font-size: 20px; font-weight: bold; margin: 0;"">Is there a person in this image?</p>
                    </div>
                </div>","0","main_experiment_trial","ten","interview_scheme","schematic_sequence","","","","",""
"","","","","","html-keyboard-response","37","341285","0.0-37.0","BD9C6B6A2E84413CA2BAA3FED10FEDC7","019cf702-359f-7021-ab2d-c8f386988350","019cf6fe-235e-7d95-bb9b-b011d2fe188e","","null","<div style=""background-color: white; width: 100vw; height: 100vh;""></div>","null","","","","","","","","",""
"","","","","","html-keyboard-response","38","346301","0.0-38.0","BD9C6B6A2E84413CA2BAA3FED10FEDC7","019cf702-359f-7021-ab2d-c8f386988350","019cf6fe-235e-7d95-bb9b-b011d2fe188e","","null","
                <div class=""stimulus-container"">
                    <img src=""images/causal_sequence/coin_causal/coin_causal_1.png"" class=""exp-image"">
                    <div class=""question-area""></div> 
                </div>","null","","","","","","","","",""
"","","","","","html-button-response","39","346743","0.0-39.0","BD9C6B6A2E84413CA2BAA3FED10FEDC7","019cf702-359f-7021-ab2d-c8f386988350","019cf6fe-235e-7d95-bb9b-b011d2fe188e","","441","
                <div class=""stimulus-container"">
                    <img src=""images/causal_sequence/coin_causal/coin_causal_1.png"" class=""exp-image"">
                    <div class=""question-area"">
                        <p style=""font-size: 20px; font-weight: bold; margin: 0;"">Is there a person in this image?</p>
                    </div>
                </div>","0","main_experiment_trial","1","coin_causal","causal_sequence","","","","",""
"","","","","","html-keyboard-response","40","351752","0.0-40.0","BD9C6B6A2E84413CA2BAA3FED10FEDC7","019cf702-359f-7021-ab2d-c8f386988350","019cf6fe-235e-7d95-bb9b-b011d2fe188e","","null","
                <div class=""stimulus-container"">
                    <img src=""images/causal_sequence/coin_causal/coin_causal_2.png"" class=""exp-image"">
                    <div class=""question-area""></div> 
                </div>","null","","","","","","","","",""
"","","","","","html-button-response","41","352992","0.0-41.0","BD9C6B6A2E84413CA2BAA3FED10FEDC7","019cf702-359f-7021-ab2d-c8f386988350","019cf6fe-235e-7d95-bb9b-b011d2fe188e","","1240","
                <div class=""stimulus-container"">
                    <img src=""images/causal_sequence/coin_causal/coin_causal_2.png"" class=""exp-image"">
                    <div class=""question-area"">
                        <p style=""font-size: 20px; font-weight: bold; margin: 0;"">Is there a person in this image?</p>
                    </div>
                </div>","0","main_experiment_trial","2","coin_causal","causal_sequence","","","","",""
"","","","","","html-keyboard-response","42","357992","0.0-42.0","BD9C6B6A2E84413CA2BAA3FED10FEDC7","019cf702-359f-7021-ab2d-c8f386988350","019cf6fe-235e-7d95-bb9b-b011d2fe188e","","null","
                <div class=""stimulus-container"">
                    <img src=""images/causal_sequence/coin_causal/coin_causal_3.png"" class=""exp-image"">
                    <div class=""question-area""></div> 
                </div>","null","","","","","","","","",""
"","","","","","html-button-response","43","358376","0.0-43.0","BD9C6B6A2E84413CA2BAA3FED10FEDC7","019cf702-359f-7021-ab2d-c8f386988350","019cf6fe-235e-7d95-bb9b-b011d2fe188e","","384","
                <div class=""stimulus-container"">
                    <img src=""images/causal_sequence/coin_causal/coin_causal_3.png"" class=""exp-image"">
                    <div class=""question-area"">
                        <p style=""font-size: 20px; font-weight: bold; margin: 0;"">Is there a person in this image?</p>
                    </div>
                </div>","0","main_experiment_trial","3","coin_causal","causal_sequence","","","","",""
"","","","","","html-keyboard-response","44","363378","0.0-44.0","BD9C6B6A2E84413CA2BAA3FED10FEDC7","019cf702-359f-7021-ab2d-c8f386988350","019cf6fe-235e-7d95-bb9b-b011d2fe188e","","null","
                <div class=""stimulus-container"">
                    <img src=""images/causal_sequence/coin_causal/coin_causal_4.png"" class=""exp-image"">
                    <div class=""question-area""></div> 
                </div>","null","","","","","","","","",""
"","","","","","html-button-response","45","364559","0.0-45.0","BD9C6B6A2E84413CA2BAA3FED10FEDC7","019cf702-359f-7021-ab2d-c8f386988350","019cf6fe-235e-7d95-bb9b-b011d2fe188e","","1181","
                <div class=""stimulus-container"">
                    <img src=""images/causal_sequence/coin_causal/coin_causal_4.png"" class=""exp-image"">
                    <div class=""question-area"">
                        <p style=""font-size: 20px; font-weight: bold; margin: 0;"">Is there a person in this image?</p>
                    </div>
                </div>","0","main_experiment_trial","4","coin_causal","causal_sequence","","","","",""
"","","","","","html-keyboard-response","46","369564","0.0-46.0","BD9C6B6A2E84413CA2BAA3FED10FEDC7","019cf702-359f-7021-ab2d-c8f386988350","019cf6fe-235e-7d95-bb9b-b011d2fe188e","","null","
                <div class=""stimulus-container"">
                    <img src=""images/causal_sequence/coin_causal/coin_causal_5.png"" class=""exp-image"">
                    <div class=""question-area""></div> 
                </div>","null","","","","","","","","",""
"","","","","","html-button-response","47","370344","0.0-47.0","BD9C6B6A2E84413CA2BAA3FED10FEDC7","019cf702-359f-7021-ab2d-c8f386988350","019cf6fe-235e-7d95-bb9b-b011d2fe188e","","779","
                <div class=""stimulus-container"">
                    <img src=""images/causal_sequence/coin_causal/coin_causal_5.png"" class=""exp-image"">
                    <div class=""question-area"">
                        <p style=""font-size: 20px; font-weight: bold; margin: 0;"">Is there a person in this image?</p>
                    </div>
                </div>","0","main_experiment_trial","5","coin_causal","causal_sequence","","","","",""
"","","","","","html-keyboard-response","48","375367","0.0-48.0","BD9C6B6A2E84413CA2BAA3FED10FEDC7","019cf702-359f-7021-ab2d-c8f386988350","019cf6fe-235e-7d95-bb9b-b011d2fe188e","","null","
                <div class=""stimulus-container"">
                    <img src=""images/causal_sequence/coin_causal/coin_causal_6.png"" class=""exp-image"">
                    <div class=""question-area""></div> 
                </div>","null","","","","","","","","",""
"","","","","","html-button-response","49","376728","0.0-49.0","BD9C6B6A2E84413CA2BAA3FED10FEDC7","019cf702-359f-7021-ab2d-c8f386988350","019cf6fe-235e-7d95-bb9b-b011d2fe188e","","1361","
                <div class=""stimulus-container"">
                    <img src=""images/causal_sequence/coin_causal/coin_causal_6.png"" class=""exp-image"">
                    <div class=""question-area"">
                        <p style=""font-size: 20px; font-weight: bold; margin: 0;"">Is there a person in this image?</p>
                    </div>
                </div>","0","main_experiment_trial","6","coin_causal","causal_sequence","","","","",""
"","","","","","html-keyboard-response","50","381730","0.0-50.0","BD9C6B6A2E84413CA2BAA3FED10FEDC7","019cf702-359f-7021-ab2d-c8f386988350","019cf6fe-235e-7d95-bb9b-b011d2fe188e","","null","
                <div class=""stimulus-container"">
                    <img src=""images/causal_sequence/coin_causal/coin_causal_7.png"" class=""exp-image"">
                    <div class=""question-area""></div> 
                </div>","null","","","","","","","","",""
"","","","","","html-button-response","51","383224","0.0-51.0","BD9C6B6A2E84413CA2BAA3FED10FEDC7","019cf702-359f-7021-ab2d-c8f386988350","019cf6fe-235e-7d95-bb9b-b011d2fe188e","","1494","
                <div class=""stimulus-container"">
                    <img src=""images/causal_sequence/coin_causal/coin_causal_7.png"" class=""exp-image"">
                    <div class=""question-area"">
                        <p style=""font-size: 20px; font-weight: bold; margin: 0;"">Is there a person in this image?</p>
                    </div>
                </div>","1","main_experiment_trial","7","coin_causal","causal_sequence","","","","",""
"","","","","","html-keyboard-response","52","388227","0.0-52.0","BD9C6B6A2E84413CA2BAA3FED10FEDC7","019cf702-359f-7021-ab2d-c8f386988350","019cf6fe-235e-7d95-bb9b-b011d2fe188e","","null","
                <div class=""stimulus-container"">
                    <img src=""images/causal_sequence/coin_causal/coin_causal_8.png"" class=""exp-image"">
                    <div class=""question-area""></div> 
                </div>","null","","","","","","","","",""
"","","","","","html-button-response","53","388928","0.0-53.0","BD9C6B6A2E84413CA2BAA3FED10FEDC7","019cf702-359f-7021-ab2d-c8f386988350","019cf6fe-235e-7d95-bb9b-b011d2fe188e","","700","
                <div class=""stimulus-container"">
                    <img src=""images/causal_sequence/coin_causal/coin_causal_8.png"" class=""exp-image"">
                    <div class=""question-area"">
                        <p style=""font-size: 20px; font-weight: bold; margin: 0;"">Is there a person in this image?</p>
                    </div>
                </div>","0","main_experiment_trial","8","coin_causal","causal_sequence","","","","",""
"","","","","","html-keyboard-response","54","394161","0.0-54.0","BD9C6B6A2E84413CA2BAA3FED10FEDC7","019cf702-359f-7021-ab2d-c8f386988350","019cf6fe-235e-7d95-bb9b-b011d2fe188e","","null","
                <div class=""stimulus-container"">
                    <img src=""images/causal_sequence/coin_causal/coin_causal_9.png"" class=""exp-image"">
                    <div class=""question-area""></div> 
                </div>","null","","","","","","","","",""
"","","","","","html-button-response","55","395579","0.0-55.0","BD9C6B6A2E84413CA2BAA3FED10FEDC7","019cf702-359f-7021-ab2d-c8f386988350","019cf6fe-235e-7d95-bb9b-b011d2fe188e","","1414","
                <div class=""stimulus-container"">
                    <img src=""images/causal_sequence/coin_causal/coin_causal_9.png"" class=""exp-image"">
                    <div class=""question-area"">
                        <p style=""font-size: 20px; font-weight: bold; margin: 0;"">Is there a person in this image?</p>
                    </div>
                </div>","0","main_experiment_trial","9","coin_causal","causal_sequence","","","","",""
"","","","","","html-keyboard-response","56","400580","0.0-56.0","BD9C6B6A2E84413CA2BAA3FED10FEDC7","019cf702-359f-7021-ab2d-c8f386988350","019cf6fe-235e-7d95-bb9b-b011d2fe188e","","null","
                <div class=""stimulus-container"">
                    <img src=""images/causal_sequence/coin_causal/coin_causal_ten.png"" class=""exp-image"">
                    <div class=""question-area""></div> 
                </div>","null","","","","","","","","",""
"","","","","","html-button-response","57","402163","0.0-57.0","BD9C6B6A2E84413CA2BAA3FED10FEDC7","019cf702-359f-7021-ab2d-c8f386988350","019cf6fe-235e-7d95-bb9b-b011d2fe188e","","1583","
                <div class=""stimulus-container"">
                    <img src=""images/causal_sequence/coin_causal/coin_causal_ten.png"" class=""exp-image"">
                    <div class=""question-area"">
                        <p style=""font-size: 20px; font-weight: bold; margin: 0;"">Is there a person in this image?</p>
                    </div>
                </div>","0","main_experiment_trial","ten","coin_causal","causal_sequence","","","","",""
"","","","","","html-keyboard-response","58","403172","0.0-58.0","BD9C6B6A2E84413CA2BAA3FED10FEDC7","019cf702-359f-7021-ab2d-c8f386988350","019cf6fe-235e-7d95-bb9b-b011d2fe188e","","null","<div style=""background-color: white; width: 100vw; height: 100vh;""></div>","null","","","","","","","","",""
"","","","","","html-keyboard-response","59","408174","0.0-59.0","BD9C6B6A2E84413CA2BAA3FED10FEDC7","019cf702-359f-7021-ab2d-c8f386988350","019cf6fe-235e-7d95-bb9b-b011d2fe188e","","null","
                <div class=""stimulus-container"">
                    <img src=""images/schematic_sequence/supermarket_scheme/supermarket_scheme_1.png"" class=""exp-image"">
                    <div class=""question-area""></div> 
                </div>","null","","","","","","","","",""
"","","","","","html-button-response","60","408811","0.0-60.0","BD9C6B6A2E84413CA2BAA3FED10FEDC7","019cf702-359f-7021-ab2d-c8f386988350","019cf6fe-235e-7d95-bb9b-b011d2fe188e","","637","
                <div class=""stimulus-container"">
                    <img src=""images/schematic_sequence/supermarket_scheme/supermarket_scheme_1.png"" class=""exp-image"">
                    <div class=""question-area"">
                        <p style=""font-size: 20px; font-weight: bold; margin: 0;"">Is there a person in this image?</p>
                    </div>
                </div>","1","main_experiment_trial","1","supermarket_scheme","schematic_sequence","","","","",""
"","","","","","html-keyboard-response","61","413814","0.0-61.0","BD9C6B6A2E84413CA2BAA3FED10FEDC7","019cf702-359f-7021-ab2d-c8f386988350","019cf6fe-235e-7d95-bb9b-b011d2fe188e","","null","
                <div class=""stimulus-container"">
                    <img src=""images/schematic_sequence/supermarket_scheme/supermarket_scheme_2.png"" class=""exp-image"">
                    <div class=""question-area""></div> 
                </div>","null","","","","","","","","",""
"","","","","","html-button-response","62","415179","0.0-62.0","BD9C6B6A2E84413CA2BAA3FED10FEDC7","019cf702-359f-7021-ab2d-c8f386988350","019cf6fe-235e-7d95-bb9b-b011d2fe188e","","1365","
                <div class=""stimulus-container"">
                    <img src=""images/schematic_sequence/supermarket_scheme/supermarket_scheme_2.png"" class=""exp-image"">
                    <div class=""question-area"">
                        <p style=""font-size: 20px; font-weight: bold; margin: 0;"">Is there a person in this image?</p>
                    </div>
                </div>","1","main_experiment_trial","2","supermarket_scheme","schematic_sequence","","","","",""
"","","","","","html-keyboard-response","63","420187","0.0-63.0","BD9C6B6A2E84413CA2BAA3FED10FEDC7","019cf702-359f-7021-ab2d-c8f386988350","019cf6fe-235e-7d95-bb9b-b011d2fe188e","","null","
                <div class=""stimulus-container"">
                    <img src=""images/schematic_sequence/supermarket_scheme/supermarket_scheme_3.png"" class=""exp-image"">
                    <div class=""question-area""></div> 
                </div>","null","","","","","","","","",""
"","","","","","html-button-response","64","421187","0.0-64.0","BD9C6B6A2E84413CA2BAA3FED10FEDC7","019cf702-359f-7021-ab2d-c8f386988350","019cf6fe-235e-7d95-bb9b-b011d2fe188e","","999","
                <div class=""stimulus-container"">
                    <img src=""images/schematic_sequence/supermarket_scheme/supermarket_scheme_3.png"" class=""exp-image"">
                    <div class=""question-area"">
                        <p style=""font-size: 20px; font-weight: bold; margin: 0;"">Is there a person in this image?</p>
                    </div>
                </div>","1","main_experiment_trial","3","supermarket_scheme","schematic_sequence","","","","",""
"","","","","","html-keyboard-response","65","426204","0.0-65.0","BD9C6B6A2E84413CA2BAA3FED10FEDC7","019cf702-359f-7021-ab2d-c8f386988350","019cf6fe-235e-7d95-bb9b-b011d2fe188e","","null","
                <div class=""stimulus-container"">
                    <img src=""images/schematic_sequence/supermarket_scheme/supermarket_scheme_4.png"" class=""exp-image"">
                    <div class=""question-area""></div> 
                </div>","null","","","","","","","","",""
"","","","","","html-button-response","66","426898","0.0-66.0","BD9C6B6A2E84413CA2BAA3FED10FEDC7","019cf702-359f-7021-ab2d-c8f386988350","019cf6fe-235e-7d95-bb9b-b011d2fe188e","","694","
                <div class=""stimulus-container"">
                    <img src=""images/schematic_sequence/supermarket_scheme/supermarket_scheme_4.png"" class=""exp-image"">
                    <div class=""question-area"">
                        <p style=""font-size: 20px; font-weight: bold; margin: 0;"">Is there a person in this image?</p>
                    </div>
                </div>","0","main_experiment_trial","4","supermarket_scheme","schematic_sequence","","","","",""
"","","","","","html-keyboard-response","67","431901","0.0-67.0","BD9C6B6A2E84413CA2BAA3FED10FEDC7","019cf702-359f-7021-ab2d-c8f386988350","019cf6fe-235e-7d95-bb9b-b011d2fe188e","","null","
                <div class=""stimulus-container"">
                    <img src=""images/schematic_sequence/supermarket_scheme/supermarket_scheme_5.png"" class=""exp-image"">
                    <div class=""question-area""></div> 
                </div>","null","","","","","","","","",""
"","","","","","html-button-response","68","432955","0.0-68.0","BD9C6B6A2E84413CA2BAA3FED10FEDC7","019cf702-359f-7021-ab2d-c8f386988350","019cf6fe-235e-7d95-bb9b-b011d2fe188e","","1054","
                <div class=""stimulus-container"">
                    <img src=""images/schematic_sequence/supermarket_scheme/supermarket_scheme_5.png"" class=""exp-image"">
                    <div class=""question-area"">
                        <p style=""font-size: 20px; font-weight: bold; margin: 0;"">Is there a person in this image?</p>
                    </div>
                </div>","1","main_experiment_trial","5","supermarket_scheme","schematic_sequence","","","","",""
"","","","","","html-keyboard-response","69","437956","0.0-69.0","BD9C6B6A2E84413CA2BAA3FED10FEDC7","019cf702-359f-7021-ab2d-c8f386988350","019cf6fe-235e-7d95-bb9b-b011d2fe188e","","null","
                <div class=""stimulus-container"">
                    <img src=""images/schematic_sequence/supermarket_scheme/supermarket_scheme_6.png"" class=""exp-image"">
                    <div class=""question-area""></div> 
                </div>","null","","","","","","","","",""
"","","","","","html-button-response","70","438899","0.0-70.0","BD9C6B6A2E84413CA2BAA3FED10FEDC7","019cf702-359f-7021-ab2d-c8f386988350","019cf6fe-235e-7d95-bb9b-b011d2fe188e","","943","
                <div class=""stimulus-container"">
                    <img src=""images/schematic_sequence/supermarket_scheme/supermarket_scheme_6.png"" class=""exp-image"">
                    <div class=""question-area"">
                        <p style=""font-size: 20px; font-weight: bold; margin: 0;"">Is there a person in this image?</p>
                    </div>
                </div>","0","main_experiment_trial","6","supermarket_scheme","schematic_sequence","","","","",""
"","","","","","html-keyboard-response","71","443901","0.0-71.0","BD9C6B6A2E84413CA2BAA3FED10FEDC7","019cf702-359f-7021-ab2d-c8f386988350","019cf6fe-235e-7d95-bb9b-b011d2fe188e","","null","
                <div class=""stimulus-container"">
                    <img src=""images/schematic_sequence/supermarket_scheme/supermarket_scheme_7.png"" class=""exp-image"">
                    <div class=""question-area""></div> 
                </div>","null","","","","","","","","",""
"","","","","","html-button-response","72","444338","0.0-72.0","BD9C6B6A2E84413CA2BAA3FED10FEDC7","019cf702-359f-7021-ab2d-c8f386988350","019cf6fe-235e-7d95-bb9b-b011d2fe188e","","437","
                <div class=""stimulus-container"">
                    <img src=""images/schematic_sequence/supermarket_scheme/supermarket_scheme_7.png"" class=""exp-image"">
                    <div class=""question-area"">
                        <p style=""font-size: 20px; font-weight: bold; margin: 0;"">Is there a person in this image?</p>
                    </div>
                </div>","0","main_experiment_trial","7","supermarket_scheme","schematic_sequence","","","","",""
"","","","","","html-keyboard-response","73","449344","0.0-73.0","BD9C6B6A2E84413CA2BAA3FED10FEDC7","019cf702-359f-7021-ab2d-c8f386988350","019cf6fe-235e-7d95-bb9b-b011d2fe188e","","null","
                <div class=""stimulus-container"">
                    <img src=""images/schematic_sequence/supermarket_scheme/supermarket_scheme_8.png"" class=""exp-image"">
                    <div class=""question-area""></div> 
                </div>","null","","","","","","","","",""
"","","","","","html-button-response","74","450579","0.0-74.0","BD9C6B6A2E84413CA2BAA3FED10FEDC7","019cf702-359f-7021-ab2d-c8f386988350","019cf6fe-235e-7d95-bb9b-b011d2fe188e","","1234","
                <div class=""stimulus-container"">
                    <img src=""images/schematic_sequence/supermarket_scheme/supermarket_scheme_8.png"" class=""exp-image"">
                    <div class=""question-area"">
                        <p style=""font-size: 20px; font-weight: bold; margin: 0;"">Is there a person in this image?</p>
                    </div>
                </div>","0","main_experiment_trial","8","supermarket_scheme","schematic_sequence","","","","",""
"","","","","","html-keyboard-response","75","455592","0.0-75.0","BD9C6B6A2E84413CA2BAA3FED10FEDC7","019cf702-359f-7021-ab2d-c8f386988350","019cf6fe-235e-7d95-bb9b-b011d2fe188e","","null","
                <div class=""stimulus-container"">
                    <img src=""images/schematic_sequence/supermarket_scheme/supermarket_scheme_9.png"" class=""exp-image"">
                    <div class=""question-area""></div> 
                </div>","null","","","","","","","","",""
"","","","","","html-button-response","76","456223","0.0-76.0","BD9C6B6A2E84413CA2BAA3FED10FEDC7","019cf702-359f-7021-ab2d-c8f386988350","019cf6fe-235e-7d95-bb9b-b011d2fe188e","","631","
                <div class=""stimulus-container"">
                    <img src=""images/schematic_sequence/supermarket_scheme/supermarket_scheme_9.png"" class=""exp-image"">
                    <div class=""question-area"">
                        <p style=""font-size: 20px; font-weight: bold; margin: 0;"">Is there a person in this image?</p>
                    </div>
                </div>","0","main_experiment_trial","9","supermarket_scheme","schematic_sequence","","","","",""
"","","","","","html-keyboard-response","77","461236","0.0-77.0","BD9C6B6A2E84413CA2BAA3FED10FEDC7","019cf702-359f-7021-ab2d-c8f386988350","019cf6fe-235e-7d95-bb9b-b011d2fe188e","","null","
                <div class=""stimulus-container"">
                    <img src=""images/schematic_sequence/supermarket_scheme/supermarket_scheme_ten.png"" class=""exp-image"">
                    <div class=""question-area""></div> 
                </div>","null","","","","","","","","",""
"","","","","","html-button-response","78","461791","0.0-78.0","BD9C6B6A2E84413CA2BAA3FED10FEDC7","019cf702-359f-7021-ab2d-c8f386988350","019cf6fe-235e-7d95-bb9b-b011d2fe188e","","555","
                <div class=""stimulus-container"">
                    <img src=""images/schematic_sequence/supermarket_scheme/supermarket_scheme_ten.png"" class=""exp-image"">
                    <div class=""question-area"">
                        <p style=""font-size: 20px; font-weight: bold; margin: 0;"">Is there a person in this image?</p>
                    </div>
                </div>","1","main_experiment_trial","ten","supermarket_scheme","schematic_sequence","","","","",""
"","","","","","html-keyboard-response","79","462797","0.0-79.0","BD9C6B6A2E84413CA2BAA3FED10FEDC7","019cf702-359f-7021-ab2d-c8f386988350","019cf6fe-235e-7d95-bb9b-b011d2fe188e","","null","<div style=""background-color: white; width: 100vw; height: 100vh;""></div>","null","","","","","","","","",""
"","","","","","html-keyboard-response","80","467798","0.0-80.0","BD9C6B6A2E84413CA2BAA3FED10FEDC7","019cf702-359f-7021-ab2d-c8f386988350","019cf6fe-235e-7d95-bb9b-b011d2fe188e","","null","
                <div class=""stimulus-container"">
                    <img src=""images/causal_sequence/saving_a_cat_causal/saving_a_cat_causal_1.png"" class=""exp-image"">
                    <div class=""question-area""></div> 
                </div>","null","","","","","","","","",""
"","","","","","html-button-response","81","468471","0.0-81.0","BD9C6B6A2E84413CA2BAA3FED10FEDC7","019cf702-359f-7021-ab2d-c8f386988350","019cf6fe-235e-7d95-bb9b-b011d2fe188e","","673","
                <div class=""stimulus-container"">
                    <img src=""images/causal_sequence/saving_a_cat_causal/saving_a_cat_causal_1.png"" class=""exp-image"">
                    <div class=""question-area"">
                        <p style=""font-size: 20px; font-weight: bold; margin: 0;"">Is there a person in this image?</p>
                    </div>
                </div>","0","main_experiment_trial","1","saving_a_cat_causal","causal_sequence","","","","",""
"","","","","","html-keyboard-response","82","473477","0.0-82.0","BD9C6B6A2E84413CA2BAA3FED10FEDC7","019cf702-359f-7021-ab2d-c8f386988350","019cf6fe-235e-7d95-bb9b-b011d2fe188e","","null","
                <div class=""stimulus-container"">
                    <img src=""images/causal_sequence/saving_a_cat_causal/saving_a_cat_causal_2.png"" class=""exp-image"">
                    <div class=""question-area""></div> 
                </div>","null","","","","","","","","",""
"","","","","","html-button-response","83","473959","0.0-83.0","BD9C6B6A2E84413CA2BAA3FED10FEDC7","019cf702-359f-7021-ab2d-c8f386988350","019cf6fe-235e-7d95-bb9b-b011d2fe188e","","482","
                <div class=""stimulus-container"">
                    <img src=""images/causal_sequence/saving_a_cat_causal/saving_a_cat_causal_2.png"" class=""exp-image"">
                    <div class=""question-area"">
                        <p style=""font-size: 20px; font-weight: bold; margin: 0;"">Is there a person in this image?</p>
                    </div>
                </div>","1","main_experiment_trial","2","saving_a_cat_causal","causal_sequence","","","","",""
"","","","","","html-keyboard-response","84","478966","0.0-84.0","BD9C6B6A2E84413CA2BAA3FED10FEDC7","019cf702-359f-7021-ab2d-c8f386988350","019cf6fe-235e-7d95-bb9b-b011d2fe188e","","null","
                <div class=""stimulus-container"">
                    <img src=""images/causal_sequence/saving_a_cat_causal/saving_a_cat_causal_3.png"" class=""exp-image"">
                    <div class=""question-area""></div> 
                </div>","null","","","","","","","","",""
"","","","","","html-button-response","85","479378","0.0-85.0","BD9C6B6A2E84413CA2BAA3FED10FEDC7","019cf702-359f-7021-ab2d-c8f386988350","019cf6fe-235e-7d95-bb9b-b011d2fe188e","","411","
                <div class=""stimulus-container"">
                    <img src=""images/causal_sequence/saving_a_cat_causal/saving_a_cat_causal_3.png"" class=""exp-image"">
                    <div class=""question-area"">
                        <p style=""font-size: 20px; font-weight: bold; margin: 0;"">Is there a person in this image?</p>
                    </div>
                </div>","1","main_experiment_trial","3","saving_a_cat_causal","causal_sequence","","","","",""
"","","","","","html-keyboard-response","86","484392","0.0-86.0","BD9C6B6A2E84413CA2BAA3FED10FEDC7","019cf702-359f-7021-ab2d-c8f386988350","019cf6fe-235e-7d95-bb9b-b011d2fe188e","","null","
                <div class=""stimulus-container"">
                    <img src=""images/causal_sequence/saving_a_cat_causal/saving_a_cat_causal_4.png"" class=""exp-image"">
                    <div class=""question-area""></div> 
                </div>","null","","","","","","","","",""
"","","","","","html-button-response","87","485623","0.0-87.0","BD9C6B6A2E84413CA2BAA3FED10FEDC7","019cf702-359f-7021-ab2d-c8f386988350","019cf6fe-235e-7d95-bb9b-b011d2fe188e","","1230","
                <div class=""stimulus-container"">
                    <img src=""images/causal_sequence/saving_a_cat_causal/saving_a_cat_causal_4.png"" class=""exp-image"">
                    <div class=""question-area"">
                        <p style=""font-size: 20px; font-weight: bold; margin: 0;"">Is there a person in this image?</p>
                    </div>
                </div>","0","main_experiment_trial","4","saving_a_cat_causal","causal_sequence","","","","",""
"","","","","","html-keyboard-response","88","491147","0.0-88.0","BD9C6B6A2E84413CA2BAA3FED10FEDC7","019cf702-359f-7021-ab2d-c8f386988350","019cf6fe-235e-7d95-bb9b-b011d2fe188e","","null","
                <div class=""stimulus-container"">
                    <img src=""images/causal_sequence/saving_a_cat_causal/saving_a_cat_causal_5.png"" class=""exp-image"">
                    <div class=""question-area""></div> 
                </div>","null","","","","","","","","",""
"","","","","","html-button-response","89","493496","0.0-89.0","BD9C6B6A2E84413CA2BAA3FED10FEDC7","019cf702-359f-7021-ab2d-c8f386988350","019cf6fe-235e-7d95-bb9b-b011d2fe188e","","2346","
                <div class=""stimulus-container"">
                    <img src=""images/causal_sequence/saving_a_cat_causal/saving_a_cat_causal_5.png"" class=""exp-image"">
                    <div class=""question-area"">
                        <p style=""font-size: 20px; font-weight: bold; margin: 0;"">Is there a person in this image?</p>
                    </div>
                </div>","0","main_experiment_trial","5","saving_a_cat_causal","causal_sequence","","","","",""
"","","","","","html-keyboard-response","90","498497","0.0-90.0","BD9C6B6A2E84413CA2BAA3FED10FEDC7","019cf702-359f-7021-ab2d-c8f386988350","019cf6fe-235e-7d95-bb9b-b011d2fe188e","","null","
                <div class=""stimulus-container"">
                    <img src=""images/causal_sequence/saving_a_cat_causal/saving_a_cat_causal_6.png"" class=""exp-image"">
                    <div class=""question-area""></div> 
                </div>","null","","","","","","","","",""
"","","","","","html-button-response","91","499223","0.0-91.0","BD9C6B6A2E84413CA2BAA3FED10FEDC7","019cf702-359f-7021-ab2d-c8f386988350","019cf6fe-235e-7d95-bb9b-b011d2fe188e","","725","
                <div class=""stimulus-container"">
                    <img src=""images/causal_sequence/saving_a_cat_causal/saving_a_cat_causal_6.png"" class=""exp-image"">
                    <div class=""question-area"">
                        <p style=""font-size: 20px; font-weight: bold; margin: 0;"">Is there a person in this image?</p>
                    </div>
                </div>","0","main_experiment_trial","6","saving_a_cat_causal","causal_sequence","","","","",""
"","","","","","html-keyboard-response","92","504225","0.0-92.0","BD9C6B6A2E84413CA2BAA3FED10FEDC7","019cf702-359f-7021-ab2d-c8f386988350","019cf6fe-235e-7d95-bb9b-b011d2fe188e","","null","
                <div class=""stimulus-container"">
                    <img src=""images/causal_sequence/saving_a_cat_causal/saving_a_cat_causal_7.png"" class=""exp-image"">
                    <div class=""question-area""></div> 
                </div>","null","","","","","","","","",""
"","","","","","html-button-response","93","505000","0.0-93.0","BD9C6B6A2E84413CA2BAA3FED10FEDC7","019cf702-359f-7021-ab2d-c8f386988350","019cf6fe-235e-7d95-bb9b-b011d2fe188e","","775","
                <div class=""stimulus-container"">
                    <img src=""images/causal_sequence/saving_a_cat_causal/saving_a_cat_causal_7.png"" class=""exp-image"">
                    <div class=""question-area"">
                        <p style=""font-size: 20px; font-weight: bold; margin: 0;"">Is there a person in this image?</p>
                    </div>
                </div>","0","main_experiment_trial","7","saving_a_cat_causal","causal_sequence","","","","",""
"","","","","","html-keyboard-response","94","510003","0.0-94.0","BD9C6B6A2E84413CA2BAA3FED10FEDC7","019cf702-359f-7021-ab2d-c8f386988350","019cf6fe-235e-7d95-bb9b-b011d2fe188e","","null","
                <div class=""stimulus-container"">
                    <img src=""images/causal_sequence/saving_a_cat_causal/saving_a_cat_causal_8.png"" class=""exp-image"">
                    <div class=""question-area""></div> 
                </div>","null","","","","","","","","",""
"","","","","","html-button-response","95","510496","0.0-95.0","BD9C6B6A2E84413CA2BAA3FED10FEDC7","019cf702-359f-7021-ab2d-c8f386988350","019cf6fe-235e-7d95-bb9b-b011d2fe188e","","492","
                <div class=""stimulus-container"">
                    <img src=""images/causal_sequence/saving_a_cat_causal/saving_a_cat_causal_8.png"" class=""exp-image"">
                    <div class=""question-area"">
                        <p style=""font-size: 20px; font-weight: bold; margin: 0;"">Is there a person in this image?</p>
                    </div>
                </div>","0","main_experiment_trial","8","saving_a_cat_causal","causal_sequence","","","","",""
"","","","","","html-keyboard-response","96","515498","0.0-96.0","BD9C6B6A2E84413CA2BAA3FED10FEDC7","019cf702-359f-7021-ab2d-c8f386988350","019cf6fe-235e-7d95-bb9b-b011d2fe188e","","null","
                <div class=""stimulus-container"">
                    <img src=""images/causal_sequence/saving_a_cat_causal/saving_a_cat_causal_9.png"" class=""exp-image"">
                    <div class=""question-area""></div> 
                </div>","null","","","","","","","","",""
"","","","","","html-button-response","97","516287","0.0-97.0","BD9C6B6A2E84413CA2BAA3FED10FEDC7","019cf702-359f-7021-ab2d-c8f386988350","019cf6fe-235e-7d95-bb9b-b011d2fe188e","","789","
                <div class=""stimulus-container"">
                    <img src=""images/causal_sequence/saving_a_cat_causal/saving_a_cat_causal_9.png"" class=""exp-image"">
                    <div class=""question-area"">
                        <p style=""font-size: 20px; font-weight: bold; margin: 0;"">Is there a person in this image?</p>
                    </div>
                </div>","0","main_experiment_trial","9","saving_a_cat_causal","causal_sequence","","","","",""
"","","","","","html-keyboard-response","98","522152","0.0-98.0","BD9C6B6A2E84413CA2BAA3FED10FEDC7","019cf702-359f-7021-ab2d-c8f386988350","019cf6fe-235e-7d95-bb9b-b011d2fe188e","","null","
                <div class=""stimulus-container"">
                    <img src=""images/causal_sequence/saving_a_cat_causal/saving_a_cat_causal_ten.png"" class=""exp-image"">
                    <div class=""question-area""></div> 
                </div>","null","","","","","","","","",""
"","","","","","html-button-response","99","525159","0.0-99.0","BD9C6B6A2E84413CA2BAA3FED10FEDC7","019cf702-359f-7021-ab2d-c8f386988350","019cf6fe-235e-7d95-bb9b-b011d2fe188e","","null","
                <div class=""stimulus-container"">
                    <img src=""images/causal_sequence/saving_a_cat_causal/saving_a_cat_causal_ten.png"" class=""exp-image"">
                    <div class=""question-area"">
                        <p style=""font-size: 20px; font-weight: bold; margin: 0;"">Is there a person in this image?</p>
                    </div>
                </div>","null","main_experiment_trial","ten","saving_a_cat_causal","causal_sequence","","","","",""
"","","","","","html-keyboard-response","100","526163","0.0-100.0","BD9C6B6A2E84413CA2BAA3FED10FEDC7","019cf702-359f-7021-ab2d-c8f386988350","019cf6fe-235e-7d95-bb9b-b011d2fe188e","","null","<div style=""background-color: white; width: 100vw; height: 100vh;""></div>","null","","","","","","","","",""
"","","","","","html-keyboard-response","101","531172","0.0-101.0","BD9C6B6A2E84413CA2BAA3FED10FEDC7","019cf702-359f-7021-ab2d-c8f386988350","019cf6fe-235e-7d95-bb9b-b011d2fe188e","","null","
                <div class=""stimulus-container"">
                    <img src=""images/causal_sequence/package_causal/package_causal_1.png"" class=""exp-image"">
                    <div class=""question-area""></div> 
                </div>","null","","","","","","","","",""
"","","","","","html-button-response","102","531976","0.0-102.0","BD9C6B6A2E84413CA2BAA3FED10FEDC7","019cf702-359f-7021-ab2d-c8f386988350","019cf6fe-235e-7d95-bb9b-b011d2fe188e","","803","
                <div class=""stimulus-container"">
                    <img src=""images/causal_sequence/package_causal/package_causal_1.png"" class=""exp-image"">
                    <div class=""question-area"">
                        <p style=""font-size: 20px; font-weight: bold; margin: 0;"">Is there a person in this image?</p>
                    </div>
                </div>","0","main_experiment_trial","1","package_causal","causal_sequence","","","","",""
"","","","","","html-keyboard-response","103","536977","0.0-103.0","BD9C6B6A2E84413CA2BAA3FED10FEDC7","019cf702-359f-7021-ab2d-c8f386988350","019cf6fe-235e-7d95-bb9b-b011d2fe188e","","null","
                <div class=""stimulus-container"">
                    <img src=""images/causal_sequence/package_causal/package_causal_2.png"" class=""exp-image"">
                    <div class=""question-area""></div> 
                </div>","null","","","","","","","","",""
"","","","","","html-button-response","104","538127","0.0-104.0","BD9C6B6A2E84413CA2BAA3FED10FEDC7","019cf702-359f-7021-ab2d-c8f386988350","019cf6fe-235e-7d95-bb9b-b011d2fe188e","","1150","
                <div class=""stimulus-container"">
                    <img src=""images/causal_sequence/package_causal/package_causal_2.png"" class=""exp-image"">
                    <div class=""question-area"">
                        <p style=""font-size: 20px; font-weight: bold; margin: 0;"">Is there a person in this image?</p>
                    </div>
                </div>","0","main_experiment_trial","2","package_causal","causal_sequence","","","","",""
"","","","","","html-keyboard-response","105","543138","0.0-105.0","BD9C6B6A2E84413CA2BAA3FED10FEDC7","019cf702-359f-7021-ab2d-c8f386988350","019cf6fe-235e-7d95-bb9b-b011d2fe188e","","null","
                <div class=""stimulus-container"">
                    <img src=""images/causal_sequence/package_causal/package_causal_3.png"" class=""exp-image"">
                    <div class=""question-area""></div> 
                </div>","null","","","","","","","","",""
"","","","","","html-button-response","106","543471","0.0-106.0","BD9C6B6A2E84413CA2BAA3FED10FEDC7","019cf702-359f-7021-ab2d-c8f386988350","019cf6fe-235e-7d95-bb9b-b011d2fe188e","","333","
                <div class=""stimulus-container"">
                    <img src=""images/causal_sequence/package_causal/package_causal_3.png"" class=""exp-image"">
                    <div class=""question-area"">
                        <p style=""font-size: 20px; font-weight: bold; margin: 0;"">Is there a person in this image?</p>
                    </div>
                </div>","0","main_experiment_trial","3","package_causal","causal_sequence","","","","",""
"","","","","","html-keyboard-response","107","548482","0.0-107.0","BD9C6B6A2E84413CA2BAA3FED10FEDC7","019cf702-359f-7021-ab2d-c8f386988350","019cf6fe-235e-7d95-bb9b-b011d2fe188e","","null","
                <div class=""stimulus-container"">
                    <img src=""images/causal_sequence/package_causal/package_causal_4.png"" class=""exp-image"">
                    <div class=""question-area""></div> 
                </div>","null","","","","","","","","",""
"","","","","","html-button-response","108","548839","0.0-108.0","BD9C6B6A2E84413CA2BAA3FED10FEDC7","019cf702-359f-7021-ab2d-c8f386988350","019cf6fe-235e-7d95-bb9b-b011d2fe188e","","357","
                <div class=""stimulus-container"">
                    <img src=""images/causal_sequence/package_causal/package_causal_4.png"" class=""exp-image"">
                    <div class=""question-area"">
                        <p style=""font-size: 20px; font-weight: bold; margin: 0;"">Is there a person in this image?</p>
                    </div>
                </div>","0","main_experiment_trial","4","package_causal","causal_sequence","","","","",""
"","","","","","html-keyboard-response","109","553841","0.0-109.0","BD9C6B6A2E84413CA2BAA3FED10FEDC7","019cf702-359f-7021-ab2d-c8f386988350","019cf6fe-235e-7d95-bb9b-b011d2fe188e","","null","
                <div class=""stimulus-container"">
                    <img src=""images/causal_sequence/package_causal/package_causal_5.png"" class=""exp-image"">
                    <div class=""question-area""></div> 
                </div>","null","","","","","","","","",""
"","","","","","html-button-response","110","554239","0.0-110.0","BD9C6B6A2E84413CA2BAA3FED10FEDC7","019cf702-359f-7021-ab2d-c8f386988350","019cf6fe-235e-7d95-bb9b-b011d2fe188e","","398","
                <div class=""stimulus-container"">
                    <img src=""images/causal_sequence/package_causal/package_causal_5.png"" class=""exp-image"">
                    <div class=""question-area"">
                        <p style=""font-size: 20px; font-weight: bold; margin: 0;"">Is there a person in this image?</p>
                    </div>
                </div>","0","main_experiment_trial","5","package_causal","causal_sequence","","","","",""
"","","","","","html-keyboard-response","111","559251","0.0-111.0","BD9C6B6A2E84413CA2BAA3FED10FEDC7","019cf702-359f-7021-ab2d-c8f386988350","019cf6fe-235e-7d95-bb9b-b011d2fe188e","","null","
                <div class=""stimulus-container"">
                    <img src=""images/causal_sequence/package_causal/package_causal_6.png"" class=""exp-image"">
                    <div class=""question-area""></div> 
                </div>","null","","","","","","","","",""
"","","","","","html-button-response","112","559751","0.0-112.0","BD9C6B6A2E84413CA2BAA3FED10FEDC7","019cf702-359f-7021-ab2d-c8f386988350","019cf6fe-235e-7d95-bb9b-b011d2fe188e","","499","
                <div class=""stimulus-container"">
                    <img src=""images/causal_sequence/package_causal/package_causal_6.png"" class=""exp-image"">
                    <div class=""question-area"">
                        <p style=""font-size: 20px; font-weight: bold; margin: 0;"">Is there a person in this image?</p>
                    </div>
                </div>","0","main_experiment_trial","6","package_causal","causal_sequence","","","","",""
"","","","","","html-keyboard-response","113","564763","0.0-113.0","BD9C6B6A2E84413CA2BAA3FED10FEDC7","019cf702-359f-7021-ab2d-c8f386988350","019cf6fe-235e-7d95-bb9b-b011d2fe188e","","null","
                <div class=""stimulus-container"">
                    <img src=""images/causal_sequence/package_causal/package_causal_7.png"" class=""exp-image"">
                    <div class=""question-area""></div> 
                </div>","null","","","","","","","","",""
"","","","","","html-button-response","114","565111","0.0-114.0","BD9C6B6A2E84413CA2BAA3FED10FEDC7","019cf702-359f-7021-ab2d-c8f386988350","019cf6fe-235e-7d95-bb9b-b011d2fe188e","","348","
                <div class=""stimulus-container"">
                    <img src=""images/causal_sequence/package_causal/package_causal_7.png"" class=""exp-image"">
                    <div class=""question-area"">
                        <p style=""font-size: 20px; font-weight: bold; margin: 0;"">Is there a person in this image?</p>
                    </div>
                </div>","0","main_experiment_trial","7","package_causal","causal_sequence","","","","",""
"","","","","","html-keyboard-response","115","570123","0.0-115.0","BD9C6B6A2E84413CA2BAA3FED10FEDC7","019cf702-359f-7021-ab2d-c8f386988350","019cf6fe-235e-7d95-bb9b-b011d2fe188e","","null","
                <div class=""stimulus-container"">
                    <img src=""images/causal_sequence/package_causal/package_causal_8.png"" class=""exp-image"">
                    <div class=""question-area""></div> 
                </div>","null","","","","","","","","",""
"","","","","","html-button-response","116","571328","0.0-116.0","BD9C6B6A2E84413CA2BAA3FED10FEDC7","019cf702-359f-7021-ab2d-c8f386988350","019cf6fe-235e-7d95-bb9b-b011d2fe188e","","1204","
                <div class=""stimulus-container"">
                    <img src=""images/causal_sequence/package_causal/package_causal_8.png"" class=""exp-image"">
                    <div class=""question-area"">
                        <p style=""font-size: 20px; font-weight: bold; margin: 0;"">Is there a person in this image?</p>
                    </div>
                </div>","0","main_experiment_trial","8","package_causal","causal_sequence","","","","",""
"","","","","","html-keyboard-response","117","576340","0.0-117.0","BD9C6B6A2E84413CA2BAA3FED10FEDC7","019cf702-359f-7021-ab2d-c8f386988350","019cf6fe-235e-7d95-bb9b-b011d2fe188e","","null","
                <div class=""stimulus-container"">
                    <img src=""images/causal_sequence/package_causal/package_causal_9.png"" class=""exp-image"">
                    <div class=""question-area""></div> 
                </div>","null","","","","","","","","",""
"","","","","","html-button-response","118","576799","0.0-118.0","BD9C6B6A2E84413CA2BAA3FED10FEDC7","019cf702-359f-7021-ab2d-c8f386988350","019cf6fe-235e-7d95-bb9b-b011d2fe188e","","459","
                <div class=""stimulus-container"">
                    <img src=""images/causal_sequence/package_causal/package_causal_9.png"" class=""exp-image"">
                    <div class=""question-area"">
                        <p style=""font-size: 20px; font-weight: bold; margin: 0;"">Is there a person in this image?</p>
                    </div>
                </div>","0","main_experiment_trial","9","package_causal","causal_sequence","","","","",""
"","","","","","html-keyboard-response","119","581827","0.0-119.0","BD9C6B6A2E84413CA2BAA3FED10FEDC7","019cf702-359f-7021-ab2d-c8f386988350","019cf6fe-235e-7d95-bb9b-b011d2fe188e","","null","
                <div class=""stimulus-container"">
                    <img src=""images/causal_sequence/package_causal/package_causal_ten.png"" class=""exp-image"">
                    <div class=""question-area""></div> 
                </div>","null","","","","","","","","",""
"","","","","","html-button-response","120","582416","0.0-120.0","BD9C6B6A2E84413CA2BAA3FED10FEDC7","019cf702-359f-7021-ab2d-c8f386988350","019cf6fe-235e-7d95-bb9b-b011d2fe188e","","588","
                <div class=""stimulus-container"">
                    <img src=""images/causal_sequence/package_causal/package_causal_ten.png"" class=""exp-image"">
                    <div class=""question-area"">
                        <p style=""font-size: 20px; font-weight: bold; margin: 0;"">Is there a person in this image?</p>
                    </div>
                </div>","0","main_experiment_trial","ten","package_causal","causal_sequence","","","","",""
"","","","","","html-keyboard-response","121","583423","0.0-121.0","BD9C6B6A2E84413CA2BAA3FED10FEDC7","019cf702-359f-7021-ab2d-c8f386988350","019cf6fe-235e-7d95-bb9b-b011d2fe188e","","null","<div style=""background-color: white; width: 100vw; height: 100vh;""></div>","null","","","","","","","","",""
"","","","","","html-keyboard-response","122","588435","0.0-122.0","BD9C6B6A2E84413CA2BAA3FED10FEDC7","019cf702-359f-7021-ab2d-c8f386988350","019cf6fe-235e-7d95-bb9b-b011d2fe188e","","null","
                <div class=""stimulus-container"">
                    <img src=""images/causal_sequence/the_performance_causal/the_performance_causal_1.png"" class=""exp-image"">
                    <div class=""question-area""></div> 
                </div>","null","","","","","","","","",""
"","","","","","html-button-response","123","588955","0.0-123.0","BD9C6B6A2E84413CA2BAA3FED10FEDC7","019cf702-359f-7021-ab2d-c8f386988350","019cf6fe-235e-7d95-bb9b-b011d2fe188e","","520","
                <div class=""stimulus-container"">
                    <img src=""images/causal_sequence/the_performance_causal/the_performance_causal_1.png"" class=""exp-image"">
                    <div class=""question-area"">
                        <p style=""font-size: 20px; font-weight: bold; margin: 0;"">Is there a person in this image?</p>
                    </div>
                </div>","0","main_experiment_trial","1","the_performance_causal","causal_sequence","","","","",""
"","","","","","html-keyboard-response","124","593966","0.0-124.0","BD9C6B6A2E84413CA2BAA3FED10FEDC7","019cf702-359f-7021-ab2d-c8f386988350","019cf6fe-235e-7d95-bb9b-b011d2fe188e","","null","
                <div class=""stimulus-container"">
                    <img src=""images/causal_sequence/the_performance_causal/the_performance_causal_2.png"" class=""exp-image"">
                    <div class=""question-area""></div> 
                </div>","null","","","","","","","","",""
"","","","","","html-button-response","125","596527","0.0-125.0","BD9C6B6A2E84413CA2BAA3FED10FEDC7","019cf702-359f-7021-ab2d-c8f386988350","019cf6fe-235e-7d95-bb9b-b011d2fe188e","","2560","
                <div class=""stimulus-container"">
                    <img src=""images/causal_sequence/the_performance_causal/the_performance_causal_2.png"" class=""exp-image"">
                    <div class=""question-area"">
                        <p style=""font-size: 20px; font-weight: bold; margin: 0;"">Is there a person in this image?</p>
                    </div>
                </div>","0","main_experiment_trial","2","the_performance_causal","causal_sequence","","","","",""
"","","","","","html-keyboard-response","126","601532","0.0-126.0","BD9C6B6A2E84413CA2BAA3FED10FEDC7","019cf702-359f-7021-ab2d-c8f386988350","019cf6fe-235e-7d95-bb9b-b011d2fe188e","","null","
                <div class=""stimulus-container"">
                    <img src=""images/causal_sequence/the_performance_causal/the_performance_causal_3.png"" class=""exp-image"">
                    <div class=""question-area""></div> 
                </div>","null","","","","","","","","",""
"","","","","","html-button-response","127","603231","0.0-127.0","BD9C6B6A2E84413CA2BAA3FED10FEDC7","019cf702-359f-7021-ab2d-c8f386988350","019cf6fe-235e-7d95-bb9b-b011d2fe188e","","1698","
                <div class=""stimulus-container"">
                    <img src=""images/causal_sequence/the_performance_causal/the_performance_causal_3.png"" class=""exp-image"">
                    <div class=""question-area"">
                        <p style=""font-size: 20px; font-weight: bold; margin: 0;"">Is there a person in this image?</p>
                    </div>
                </div>","0","main_experiment_trial","3","the_performance_causal","causal_sequence","","","","",""
"","","","","","html-keyboard-response","128","608241","0.0-128.0","BD9C6B6A2E84413CA2BAA3FED10FEDC7","019cf702-359f-7021-ab2d-c8f386988350","019cf6fe-235e-7d95-bb9b-b011d2fe188e","","null","
                <div class=""stimulus-container"">
                    <img src=""images/causal_sequence/the_performance_causal/the_performance_causal_4.png"" class=""exp-image"">
                    <div class=""question-area""></div> 
                </div>","null","","","","","","","","",""
"","","","","","html-button-response","129","609488","0.0-129.0","BD9C6B6A2E84413CA2BAA3FED10FEDC7","019cf702-359f-7021-ab2d-c8f386988350","019cf6fe-235e-7d95-bb9b-b011d2fe188e","","1246","
                <div class=""stimulus-container"">
                    <img src=""images/causal_sequence/the_performance_causal/the_performance_causal_4.png"" class=""exp-image"">
                    <div class=""question-area"">
                        <p style=""font-size: 20px; font-weight: bold; margin: 0;"">Is there a person in this image?</p>
                    </div>
                </div>","0","main_experiment_trial","4","the_performance_causal","causal_sequence","","","","",""
"","","","","","html-keyboard-response","130","614492","0.0-130.0","BD9C6B6A2E84413CA2BAA3FED10FEDC7","019cf702-359f-7021-ab2d-c8f386988350","019cf6fe-235e-7d95-bb9b-b011d2fe188e","","null","
                <div class=""stimulus-container"">
                    <img src=""images/causal_sequence/the_performance_causal/the_performance_causal_5.png"" class=""exp-image"">
                    <div class=""question-area""></div> 
                </div>","null","","","","","","","","",""
"","","","","","html-button-response","131","615248","0.0-131.0","BD9C6B6A2E84413CA2BAA3FED10FEDC7","019cf702-359f-7021-ab2d-c8f386988350","019cf6fe-235e-7d95-bb9b-b011d2fe188e","","754","
                <div class=""stimulus-container"">
                    <img src=""images/causal_sequence/the_performance_causal/the_performance_causal_5.png"" class=""exp-image"">
                    <div class=""question-area"">
                        <p style=""font-size: 20px; font-weight: bold; margin: 0;"">Is there a person in this image?</p>
                    </div>
                </div>","0","main_experiment_trial","5","the_performance_causal","causal_sequence","","","","",""
"","","","","","html-keyboard-response","132","620251","0.0-132.0","BD9C6B6A2E84413CA2BAA3FED10FEDC7","019cf702-359f-7021-ab2d-c8f386988350","019cf6fe-235e-7d95-bb9b-b011d2fe188e","","null","
                <div class=""stimulus-container"">
                    <img src=""images/causal_sequence/the_performance_causal/the_performance_causal_6.png"" class=""exp-image"">
                    <div class=""question-area""></div> 
                </div>","null","","","","","","","","",""
"","","","","","html-button-response","133","620863","0.0-133.0","BD9C6B6A2E84413CA2BAA3FED10FEDC7","019cf702-359f-7021-ab2d-c8f386988350","019cf6fe-235e-7d95-bb9b-b011d2fe188e","","612","
                <div class=""stimulus-container"">
                    <img src=""images/causal_sequence/the_performance_causal/the_performance_causal_6.png"" class=""exp-image"">
                    <div class=""question-area"">
                        <p style=""font-size: 20px; font-weight: bold; margin: 0;"">Is there a person in this image?</p>
                    </div>
                </div>","0","main_experiment_trial","6","the_performance_causal","causal_sequence","","","","",""
"","","","","","html-keyboard-response","134","625872","0.0-134.0","BD9C6B6A2E84413CA2BAA3FED10FEDC7","019cf702-359f-7021-ab2d-c8f386988350","019cf6fe-235e-7d95-bb9b-b011d2fe188e","","null","
                <div class=""stimulus-container"">
                    <img src=""images/causal_sequence/the_performance_causal/the_performance_causal_7.png"" class=""exp-image"">
                    <div class=""question-area""></div> 
                </div>","null","","","","","","","","",""
"","","","","","html-button-response","135","626831","0.0-135.0","BD9C6B6A2E84413CA2BAA3FED10FEDC7","019cf702-359f-7021-ab2d-c8f386988350","019cf6fe-235e-7d95-bb9b-b011d2fe188e","","959","
                <div class=""stimulus-container"">
                    <img src=""images/causal_sequence/the_performance_causal/the_performance_causal_7.png"" class=""exp-image"">
                    <div class=""question-area"">
                        <p style=""font-size: 20px; font-weight: bold; margin: 0;"">Is there a person in this image?</p>
                    </div>
                </div>","0","main_experiment_trial","7","the_performance_causal","causal_sequence","","","","",""
"","","","","","html-keyboard-response","136","631840","0.0-136.0","BD9C6B6A2E84413CA2BAA3FED10FEDC7","019cf702-359f-7021-ab2d-c8f386988350","019cf6fe-235e-7d95-bb9b-b011d2fe188e","","null","
                <div class=""stimulus-container"">
                    <img src=""images/causal_sequence/the_performance_causal/the_performance_causal_8.png"" class=""exp-image"">
                    <div class=""question-area""></div> 
                </div>","null","","","","","","","","",""
"","","","","","html-button-response","137","632511","0.0-137.0","BD9C6B6A2E84413CA2BAA3FED10FEDC7","019cf702-359f-7021-ab2d-c8f386988350","019cf6fe-235e-7d95-bb9b-b011d2fe188e","","671","
                <div class=""stimulus-container"">
                    <img src=""images/causal_sequence/the_performance_causal/the_performance_causal_8.png"" class=""exp-image"">
                    <div class=""question-area"">
                        <p style=""font-size: 20px; font-weight: bold; margin: 0;"">Is there a person in this image?</p>
                    </div>
                </div>","0","main_experiment_trial","8","the_performance_causal","causal_sequence","","","","",""
"","","","","","html-keyboard-response","138","638303","0.0-138.0","BD9C6B6A2E84413CA2BAA3FED10FEDC7","019cf702-359f-7021-ab2d-c8f386988350","019cf6fe-235e-7d95-bb9b-b011d2fe188e","","null","
                <div class=""stimulus-container"">
                    <img src=""images/causal_sequence/the_performance_causal/the_performance_causal_9.png"" class=""exp-image"">
                    <div class=""question-area""></div> 
                </div>","null","","","","","","","","",""
"","","","","","html-button-response","139","641063","0.0-139.0","BD9C6B6A2E84413CA2BAA3FED10FEDC7","019cf702-359f-7021-ab2d-c8f386988350","019cf6fe-235e-7d95-bb9b-b011d2fe188e","","2759","
                <div class=""stimulus-container"">
                    <img src=""images/causal_sequence/the_performance_causal/the_performance_causal_9.png"" class=""exp-image"">
                    <div class=""question-area"">
                        <p style=""font-size: 20px; font-weight: bold; margin: 0;"">Is there a person in this image?</p>
                    </div>
                </div>","0","main_experiment_trial","9","the_performance_causal","causal_sequence","","","","",""
"","","","","","html-keyboard-response","140","646091","0.0-140.0","BD9C6B6A2E84413CA2BAA3FED10FEDC7","019cf702-359f-7021-ab2d-c8f386988350","019cf6fe-235e-7d95-bb9b-b011d2fe188e","","null","
                <div class=""stimulus-container"">
                    <img src=""images/causal_sequence/the_performance_causal/the_performance_causal_ten.png"" class=""exp-image"">
                    <div class=""question-area""></div> 
                </div>","null","","","","","","","","",""
"","","","","","html-button-response","141","647919","0.0-141.0","BD9C6B6A2E84413CA2BAA3FED10FEDC7","019cf702-359f-7021-ab2d-c8f386988350","019cf6fe-235e-7d95-bb9b-b011d2fe188e","","1828","
                <div class=""stimulus-container"">
                    <img src=""images/causal_sequence/the_performance_causal/the_performance_causal_ten.png"" class=""exp-image"">
                    <div class=""question-area"">
                        <p style=""font-size: 20px; font-weight: bold; margin: 0;"">Is there a person in this image?</p>
                    </div>
                </div>","0","main_experiment_trial","ten","the_performance_causal","causal_sequence","","","","",""
"","","","","","html-keyboard-response","142","648920","0.0-142.0","BD9C6B6A2E84413CA2BAA3FED10FEDC7","019cf702-359f-7021-ab2d-c8f386988350","019cf6fe-235e-7d95-bb9b-b011d2fe188e","","null","<div style=""background-color: white; width: 100vw; height: 100vh;""></div>","null","","","","","","","","",""
"","","","","","html-keyboard-response","143","653927","0.0-143.0","BD9C6B6A2E84413CA2BAA3FED10FEDC7","019cf702-359f-7021-ab2d-c8f386988350","019cf6fe-235e-7d95-bb9b-b011d2fe188e","","null","
                <div class=""stimulus-container"">
                    <img src=""images/schematic_sequence/dinner_party_scheme/dinner_party_scheme_1.png"" class=""exp-image"">
                    <div class=""question-area""></div> 
                </div>","null","","","","","","","","",""
"","","","","","html-button-response","144","654287","0.0-144.0","BD9C6B6A2E84413CA2BAA3FED10FEDC7","019cf702-359f-7021-ab2d-c8f386988350","019cf6fe-235e-7d95-bb9b-b011d2fe188e","","360","
                <div class=""stimulus-container"">
                    <img src=""images/schematic_sequence/dinner_party_scheme/dinner_party_scheme_1.png"" class=""exp-image"">
                    <div class=""question-area"">
                        <p style=""font-size: 20px; font-weight: bold; margin: 0;"">Is there a person in this image?</p>
                    </div>
                </div>","0","main_experiment_trial","1","dinner_party_scheme","schematic_sequence","","","","",""
"","","","","","html-keyboard-response","145","659290","0.0-145.0","BD9C6B6A2E84413CA2BAA3FED10FEDC7","019cf702-359f-7021-ab2d-c8f386988350","019cf6fe-235e-7d95-bb9b-b011d2fe188e","","null","
                <div class=""stimulus-container"">
                    <img src=""images/schematic_sequence/dinner_party_scheme/dinner_party_scheme_2.png"" class=""exp-image"">
                    <div class=""question-area""></div> 
                </div>","null","","","","","","","","",""
"","","","","","html-button-response","146","660407","0.0-146.0","BD9C6B6A2E84413CA2BAA3FED10FEDC7","019cf702-359f-7021-ab2d-c8f386988350","019cf6fe-235e-7d95-bb9b-b011d2fe188e","","1116","
                <div class=""stimulus-container"">
                    <img src=""images/schematic_sequence/dinner_party_scheme/dinner_party_scheme_2.png"" class=""exp-image"">
                    <div class=""question-area"">
                        <p style=""font-size: 20px; font-weight: bold; margin: 0;"">Is there a person in this image?</p>
                    </div>
                </div>","0","main_experiment_trial","2","dinner_party_scheme","schematic_sequence","","","","",""
"","","","","","html-keyboard-response","147","665424","0.0-147.0","BD9C6B6A2E84413CA2BAA3FED10FEDC7","019cf702-359f-7021-ab2d-c8f386988350","019cf6fe-235e-7d95-bb9b-b011d2fe188e","","null","
                <div class=""stimulus-container"">
                    <img src=""images/schematic_sequence/dinner_party_scheme/dinner_party_scheme_3.png"" class=""exp-image"">
                    <div class=""question-area""></div> 
                </div>","null","","","","","","","","",""
"","","","","","html-button-response","148","666607","0.0-148.0","BD9C6B6A2E84413CA2BAA3FED10FEDC7","019cf702-359f-7021-ab2d-c8f386988350","019cf6fe-235e-7d95-bb9b-b011d2fe188e","","1182","
                <div class=""stimulus-container"">
                    <img src=""images/schematic_sequence/dinner_party_scheme/dinner_party_scheme_3.png"" class=""exp-image"">
                    <div class=""question-area"">
                        <p style=""font-size: 20px; font-weight: bold; margin: 0;"">Is there a person in this image?</p>
                    </div>
                </div>","0","main_experiment_trial","3","dinner_party_scheme","schematic_sequence","","","","",""
"","","","","","html-keyboard-response","149","671623","0.0-149.0","BD9C6B6A2E84413CA2BAA3FED10FEDC7","019cf702-359f-7021-ab2d-c8f386988350","019cf6fe-235e-7d95-bb9b-b011d2fe188e","","null","
                <div class=""stimulus-container"">
                    <img src=""images/schematic_sequence/dinner_party_scheme/dinner_party_scheme_4.png"" class=""exp-image"">
                    <div class=""question-area""></div> 
                </div>","null","","","","","","","","",""
"","","","","","html-button-response","150","672135","0.0-150.0","BD9C6B6A2E84413CA2BAA3FED10FEDC7","019cf702-359f-7021-ab2d-c8f386988350","019cf6fe-235e-7d95-bb9b-b011d2fe188e","","512","
                <div class=""stimulus-container"">
                    <img src=""images/schematic_sequence/dinner_party_scheme/dinner_party_scheme_4.png"" class=""exp-image"">
                    <div class=""question-area"">
                        <p style=""font-size: 20px; font-weight: bold; margin: 0;"">Is there a person in this image?</p>
                    </div>
                </div>","0","main_experiment_trial","4","dinner_party_scheme","schematic_sequence","","","","",""
"","","","","","html-keyboard-response","151","677137","0.0-151.0","BD9C6B6A2E84413CA2BAA3FED10FEDC7","019cf702-359f-7021-ab2d-c8f386988350","019cf6fe-235e-7d95-bb9b-b011d2fe188e","","null","
                <div class=""stimulus-container"">
                    <img src=""images/schematic_sequence/dinner_party_scheme/dinner_party_scheme_5.png"" class=""exp-image"">
                    <div class=""question-area""></div> 
                </div>","null","","","","","","","","",""
"","","","","","html-button-response","152","677975","0.0-152.0","BD9C6B6A2E84413CA2BAA3FED10FEDC7","019cf702-359f-7021-ab2d-c8f386988350","019cf6fe-235e-7d95-bb9b-b011d2fe188e","","837","
                <div class=""stimulus-container"">
                    <img src=""images/schematic_sequence/dinner_party_scheme/dinner_party_scheme_5.png"" class=""exp-image"">
                    <div class=""question-area"">
                        <p style=""font-size: 20px; font-weight: bold; margin: 0;"">Is there a person in this image?</p>
                    </div>
                </div>","0","main_experiment_trial","5","dinner_party_scheme","schematic_sequence","","","","",""
"","","","","","html-keyboard-response","153","682985","0.0-153.0","BD9C6B6A2E84413CA2BAA3FED10FEDC7","019cf702-359f-7021-ab2d-c8f386988350","019cf6fe-235e-7d95-bb9b-b011d2fe188e","","null","
                <div class=""stimulus-container"">
                    <img src=""images/schematic_sequence/dinner_party_scheme/dinner_party_scheme_6.png"" class=""exp-image"">
                    <div class=""question-area""></div> 
                </div>","null","","","","","","","","",""
"","","","","","html-button-response","154","683831","0.0-154.0","BD9C6B6A2E84413CA2BAA3FED10FEDC7","019cf702-359f-7021-ab2d-c8f386988350","019cf6fe-235e-7d95-bb9b-b011d2fe188e","","845","
                <div class=""stimulus-container"">
                    <img src=""images/schematic_sequence/dinner_party_scheme/dinner_party_scheme_6.png"" class=""exp-image"">
                    <div class=""question-area"">
                        <p style=""font-size: 20px; font-weight: bold; margin: 0;"">Is there a person in this image?</p>
                    </div>
                </div>","0","main_experiment_trial","6","dinner_party_scheme","schematic_sequence","","","","",""
"","","","","","html-keyboard-response","155","688841","0.0-155.0","BD9C6B6A2E84413CA2BAA3FED10FEDC7","019cf702-359f-7021-ab2d-c8f386988350","019cf6fe-235e-7d95-bb9b-b011d2fe188e","","null","
                <div class=""stimulus-container"">
                    <img src=""images/schematic_sequence/dinner_party_scheme/dinner_party_scheme_7.png"" class=""exp-image"">
                    <div class=""question-area""></div> 
                </div>","null","","","","","","","","",""
"","","","","","html-button-response","156","690263","0.0-156.0","BD9C6B6A2E84413CA2BAA3FED10FEDC7","019cf702-359f-7021-ab2d-c8f386988350","019cf6fe-235e-7d95-bb9b-b011d2fe188e","","1421","
                <div class=""stimulus-container"">
                    <img src=""images/schematic_sequence/dinner_party_scheme/dinner_party_scheme_7.png"" class=""exp-image"">
                    <div class=""question-area"">
                        <p style=""font-size: 20px; font-weight: bold; margin: 0;"">Is there a person in this image?</p>
                    </div>
                </div>","0","main_experiment_trial","7","dinner_party_scheme","schematic_sequence","","","","",""
"","","","","","html-keyboard-response","157","695279","0.0-157.0","BD9C6B6A2E84413CA2BAA3FED10FEDC7","019cf702-359f-7021-ab2d-c8f386988350","019cf6fe-235e-7d95-bb9b-b011d2fe188e","","null","
                <div class=""stimulus-container"">
                    <img src=""images/schematic_sequence/dinner_party_scheme/dinner_party_scheme_8.png"" class=""exp-image"">
                    <div class=""question-area""></div> 
                </div>","null","","","","","","","","",""
"","","","","","html-button-response","158","695927","0.0-158.0","BD9C6B6A2E84413CA2BAA3FED10FEDC7","019cf702-359f-7021-ab2d-c8f386988350","019cf6fe-235e-7d95-bb9b-b011d2fe188e","","647","
                <div class=""stimulus-container"">
                    <img src=""images/schematic_sequence/dinner_party_scheme/dinner_party_scheme_8.png"" class=""exp-image"">
                    <div class=""question-area"">
                        <p style=""font-size: 20px; font-weight: bold; margin: 0;"">Is there a person in this image?</p>
                    </div>
                </div>","0","main_experiment_trial","8","dinner_party_scheme","schematic_sequence","","","","",""
"","","","","","html-keyboard-response","159","700935","0.0-159.0","BD9C6B6A2E84413CA2BAA3FED10FEDC7","019cf702-359f-7021-ab2d-c8f386988350","019cf6fe-235e-7d95-bb9b-b011d2fe188e","","null","
                <div class=""stimulus-container"">
                    <img src=""images/schematic_sequence/dinner_party_scheme/dinner_party_scheme_9.png"" class=""exp-image"">
                    <div class=""question-area""></div> 
                </div>","null","","","","","","","","",""
"","","","","","html-button-response","160","703199","0.0-160.0","BD9C6B6A2E84413CA2BAA3FED10FEDC7","019cf702-359f-7021-ab2d-c8f386988350","019cf6fe-235e-7d95-bb9b-b011d2fe188e","","2264","
                <div class=""stimulus-container"">
                    <img src=""images/schematic_sequence/dinner_party_scheme/dinner_party_scheme_9.png"" class=""exp-image"">
                    <div class=""question-area"">
                        <p style=""font-size: 20px; font-weight: bold; margin: 0;"">Is there a person in this image?</p>
                    </div>
                </div>","0","main_experiment_trial","9","dinner_party_scheme","schematic_sequence","","","","",""
"","","","","","html-keyboard-response","161","708204","0.0-161.0","BD9C6B6A2E84413CA2BAA3FED10FEDC7","019cf702-359f-7021-ab2d-c8f386988350","019cf6fe-235e-7d95-bb9b-b011d2fe188e","","null","
                <div class=""stimulus-container"">
                    <img src=""images/schematic_sequence/dinner_party_scheme/dinner_party_scheme_ten.png"" class=""exp-image"">
                    <div class=""question-area""></div> 
                </div>","null","","","","","","","","",""
"","","","","","html-button-response","162","711217","0.0-162.0","BD9C6B6A2E84413CA2BAA3FED10FEDC7","019cf702-359f-7021-ab2d-c8f386988350","019cf6fe-235e-7d95-bb9b-b011d2fe188e","","null","
                <div class=""stimulus-container"">
                    <img src=""images/schematic_sequence/dinner_party_scheme/dinner_party_scheme_ten.png"" class=""exp-image"">
                    <div class=""question-area"">
                        <p style=""font-size: 20px; font-weight: bold; margin: 0;"">Is there a person in this image?</p>
                    </div>
                </div>","null","main_experiment_trial","ten","dinner_party_scheme","schematic_sequence","","","","",""
"","","","","","html-keyboard-response","163","712232","0.0-163.0","BD9C6B6A2E84413CA2BAA3FED10FEDC7","019cf702-359f-7021-ab2d-c8f386988350","019cf6fe-235e-7d95-bb9b-b011d2fe188e","","null","<div style=""background-color: white; width: 100vw; height: 100vh;""></div>","null","","","","","","","","",""
"","","","","","html-keyboard-response","164","717236","0.0-164.0","BD9C6B6A2E84413CA2BAA3FED10FEDC7","019cf702-359f-7021-ab2d-c8f386988350","019cf6fe-235e-7d95-bb9b-b011d2fe188e","","null","
                <div class=""stimulus-container"">
                    <img src=""images/schematic_sequence/flight_scheme/flight_scheme_1.png"" class=""exp-image"">
                    <div class=""question-area""></div> 
                </div>","null","","","","","","","","",""
"","","","","","html-button-response","165","718151","0.0-165.0","BD9C6B6A2E84413CA2BAA3FED10FEDC7","019cf702-359f-7021-ab2d-c8f386988350","019cf6fe-235e-7d95-bb9b-b011d2fe188e","","915","
                <div class=""stimulus-container"">
                    <img src=""images/schematic_sequence/flight_scheme/flight_scheme_1.png"" class=""exp-image"">
                    <div class=""question-area"">
                        <p style=""font-size: 20px; font-weight: bold; margin: 0;"">Is there a person in this image?</p>
                    </div>
                </div>","0","main_experiment_trial","1","flight_scheme","schematic_sequence","","","","",""
"","","","","","html-keyboard-response","166","723155","0.0-166.0","BD9C6B6A2E84413CA2BAA3FED10FEDC7","019cf702-359f-7021-ab2d-c8f386988350","019cf6fe-235e-7d95-bb9b-b011d2fe188e","","null","
                <div class=""stimulus-container"">
                    <img src=""images/schematic_sequence/flight_scheme/flight_scheme_2.png"" class=""exp-image"">
                    <div class=""question-area""></div> 
                </div>","null","","","","","","","","",""
"","","","","","html-button-response","167","725127","0.0-167.0","BD9C6B6A2E84413CA2BAA3FED10FEDC7","019cf702-359f-7021-ab2d-c8f386988350","019cf6fe-235e-7d95-bb9b-b011d2fe188e","","1972","
                <div class=""stimulus-container"">
                    <img src=""images/schematic_sequence/flight_scheme/flight_scheme_2.png"" class=""exp-image"">
                    <div class=""question-area"">
                        <p style=""font-size: 20px; font-weight: bold; margin: 0;"">Is there a person in this image?</p>
                    </div>
                </div>","1","main_experiment_trial","2","flight_scheme","schematic_sequence","","","","",""
"","","","","","html-keyboard-response","168","730131","0.0-168.0","BD9C6B6A2E84413CA2BAA3FED10FEDC7","019cf702-359f-7021-ab2d-c8f386988350","019cf6fe-235e-7d95-bb9b-b011d2fe188e","","null","
                <div class=""stimulus-container"">
                    <img src=""images/schematic_sequence/flight_scheme/flight_scheme_3.png"" class=""exp-image"">
                    <div class=""question-area""></div> 
                </div>","null","","","","","","","","",""
"","","","","","html-button-response","169","730703","0.0-169.0","BD9C6B6A2E84413CA2BAA3FED10FEDC7","019cf702-359f-7021-ab2d-c8f386988350","019cf6fe-235e-7d95-bb9b-b011d2fe188e","","571","
                <div class=""stimulus-container"">
                    <img src=""images/schematic_sequence/flight_scheme/flight_scheme_3.png"" class=""exp-image"">
                    <div class=""question-area"">
                        <p style=""font-size: 20px; font-weight: bold; margin: 0;"">Is there a person in this image?</p>
                    </div>
                </div>","0","main_experiment_trial","3","flight_scheme","schematic_sequence","","","","",""
"","","","","","html-keyboard-response","170","737451","0.0-170.0","BD9C6B6A2E84413CA2BAA3FED10FEDC7","019cf702-359f-7021-ab2d-c8f386988350","019cf6fe-235e-7d95-bb9b-b011d2fe188e","","null","
                <div class=""stimulus-container"">
                    <img src=""images/schematic_sequence/flight_scheme/flight_scheme_4.png"" class=""exp-image"">
                    <div class=""question-area""></div> 
                </div>","null","","","","","","","","",""
"","","","","","html-button-response","171","738911","0.0-171.0","BD9C6B6A2E84413CA2BAA3FED10FEDC7","019cf702-359f-7021-ab2d-c8f386988350","019cf6fe-235e-7d95-bb9b-b011d2fe188e","","1459","
                <div class=""stimulus-container"">
                    <img src=""images/schematic_sequence/flight_scheme/flight_scheme_4.png"" class=""exp-image"">
                    <div class=""question-area"">
                        <p style=""font-size: 20px; font-weight: bold; margin: 0;"">Is there a person in this image?</p>
                    </div>
                </div>","0","main_experiment_trial","4","flight_scheme","schematic_sequence","","","","",""
"","","","","","html-keyboard-response","172","743919","0.0-172.0","BD9C6B6A2E84413CA2BAA3FED10FEDC7","019cf702-359f-7021-ab2d-c8f386988350","019cf6fe-235e-7d95-bb9b-b011d2fe188e","","null","
                <div class=""stimulus-container"">
                    <img src=""images/schematic_sequence/flight_scheme/flight_scheme_5.png"" class=""exp-image"">
                    <div class=""question-area""></div> 
                </div>","null","","","","","","","","",""
"","","","","","html-button-response","173","744407","0.0-173.0","BD9C6B6A2E84413CA2BAA3FED10FEDC7","019cf702-359f-7021-ab2d-c8f386988350","019cf6fe-235e-7d95-bb9b-b011d2fe188e","","488","
                <div class=""stimulus-container"">
                    <img src=""images/schematic_sequence/flight_scheme/flight_scheme_5.png"" class=""exp-image"">
                    <div class=""question-area"">
                        <p style=""font-size: 20px; font-weight: bold; margin: 0;"">Is there a person in this image?</p>
                    </div>
                </div>","0","main_experiment_trial","5","flight_scheme","schematic_sequence","","","","",""
"","","","","","html-keyboard-response","174","751100","0.0-174.0","BD9C6B6A2E84413CA2BAA3FED10FEDC7","019cf702-359f-7021-ab2d-c8f386988350","019cf6fe-235e-7d95-bb9b-b011d2fe188e","","null","
                <div class=""stimulus-container"">
                    <img src=""images/schematic_sequence/flight_scheme/flight_scheme_6.png"" class=""exp-image"">
                    <div class=""question-area""></div> 
                </div>","null","","","","","","","","",""
"","","","","","html-button-response","175","754159","0.0-175.0","BD9C6B6A2E84413CA2BAA3FED10FEDC7","019cf702-359f-7021-ab2d-c8f386988350","019cf6fe-235e-7d95-bb9b-b011d2fe188e","","null","
                <div class=""stimulus-container"">
                    <img src=""images/schematic_sequence/flight_scheme/flight_scheme_6.png"" class=""exp-image"">
                    <div class=""question-area"">
                        <p style=""font-size: 20px; font-weight: bold; margin: 0;"">Is there a person in this image?</p>
                    </div>
                </div>","null","main_experiment_trial","6","flight_scheme","schematic_sequence","","","","",""
"","","","","","html-keyboard-response","176","759173","0.0-176.0","BD9C6B6A2E84413CA2BAA3FED10FEDC7","019cf702-359f-7021-ab2d-c8f386988350","019cf6fe-235e-7d95-bb9b-b011d2fe188e","","null","
                <div class=""stimulus-container"">
                    <img src=""images/schematic_sequence/flight_scheme/flight_scheme_7.png"" class=""exp-image"">
                    <div class=""question-area""></div> 
                </div>","null","","","","","","","","",""
"","","","","","html-button-response","177","760087","0.0-177.0","BD9C6B6A2E84413CA2BAA3FED10FEDC7","019cf702-359f-7021-ab2d-c8f386988350","019cf6fe-235e-7d95-bb9b-b011d2fe188e","","913","
                <div class=""stimulus-container"">
                    <img src=""images/schematic_sequence/flight_scheme/flight_scheme_7.png"" class=""exp-image"">
                    <div class=""question-area"">
                        <p style=""font-size: 20px; font-weight: bold; margin: 0;"">Is there a person in this image?</p>
                    </div>
                </div>","1","main_experiment_trial","7","flight_scheme","schematic_sequence","","","","",""
"","","","","","html-keyboard-response","178","765087","0.0-178.0","BD9C6B6A2E84413CA2BAA3FED10FEDC7","019cf702-359f-7021-ab2d-c8f386988350","019cf6fe-235e-7d95-bb9b-b011d2fe188e","","null","
                <div class=""stimulus-container"">
                    <img src=""images/schematic_sequence/flight_scheme/flight_scheme_8.png"" class=""exp-image"">
                    <div class=""question-area""></div> 
                </div>","null","","","","","","","","",""
"","","","","","html-button-response","179","766174","0.0-179.0","BD9C6B6A2E84413CA2BAA3FED10FEDC7","019cf702-359f-7021-ab2d-c8f386988350","019cf6fe-235e-7d95-bb9b-b011d2fe188e","","1087","
                <div class=""stimulus-container"">
                    <img src=""images/schematic_sequence/flight_scheme/flight_scheme_8.png"" class=""exp-image"">
                    <div class=""question-area"">
                        <p style=""font-size: 20px; font-weight: bold; margin: 0;"">Is there a person in this image?</p>
                    </div>
                </div>","1","main_experiment_trial","8","flight_scheme","schematic_sequence","","","","",""
"","","","","","html-keyboard-response","180","772151","0.0-180.0","BD9C6B6A2E84413CA2BAA3FED10FEDC7","019cf702-359f-7021-ab2d-c8f386988350","019cf6fe-235e-7d95-bb9b-b011d2fe188e","","null","
                <div class=""stimulus-container"">
                    <img src=""images/schematic_sequence/flight_scheme/flight_scheme_9.png"" class=""exp-image"">
                    <div class=""question-area""></div> 
                </div>","null","","","","","","","","",""
"","","","","","html-button-response","181","775152","0.0-181.0","BD9C6B6A2E84413CA2BAA3FED10FEDC7","019cf702-359f-7021-ab2d-c8f386988350","019cf6fe-235e-7d95-bb9b-b011d2fe188e","","null","
                <div class=""stimulus-container"">
                    <img src=""images/schematic_sequence/flight_scheme/flight_scheme_9.png"" class=""exp-image"">
                    <div class=""question-area"">
                        <p style=""font-size: 20px; font-weight: bold; margin: 0;"">Is there a person in this image?</p>
                    </div>
                </div>","null","main_experiment_trial","9","flight_scheme","schematic_sequence","","","","",""
"","","","","","html-keyboard-response","182","780152","0.0-182.0","BD9C6B6A2E84413CA2BAA3FED10FEDC7","019cf702-359f-7021-ab2d-c8f386988350","019cf6fe-235e-7d95-bb9b-b011d2fe188e","","null","
                <div class=""stimulus-container"">
                    <img src=""images/schematic_sequence/flight_scheme/flight_scheme_ten.png"" class=""exp-image"">
                    <div class=""question-area""></div> 
                </div>","null","","","","","","","","",""
