"success","timeout","failed_images","failed_audio","failed_video","trial_type","trial_index","time_elapsed","internal_node_id","subject_id","study_id","session_id","view_history","rt","stimulus","response","task","image_index","folder","sequence_type","presentation_order","valuable_image_index","reward_type","correct_choice","distance_from_x","target_X","chosen_image_index","is_x_plus_dist"
"true","false","[]","[]","[]","preload","0","4642","0.0-0.0","530515F3F3F44A0CB00ED37C46A247E4","019d6b48-b107-7a99-9a59-392c6f6d8edd","019d6b28-084c-76dd-a1cb-5ac041bdee9a","","","","","","","","","","","","","","","",""
"","","","","","instructions","1","7065","0.0-1.0","530515F3F3F44A0CB00ED37C46A247E4","019d6b48-b107-7a99-9a59-392c6f6d8edd","019d6b28-084c-76dd-a1cb-5ac041bdee9a","[{""page_index"":0,""viewing_time"":2422}]","2422","","","","","","","","","","","","","",""
"","","","","","instructions","2","10281","0.0-2.0","530515F3F3F44A0CB00ED37C46A247E4","019d6b48-b107-7a99-9a59-392c6f6d8edd","019d6b28-084c-76dd-a1cb-5ac041bdee9a","[{""page_index"":0,""viewing_time"":3216}]","3216","","","","","","","","","","","","","",""
"true","","","","","fullscreen","3","13751","0.0-3.0","530515F3F3F44A0CB00ED37C46A247E4","019d6b48-b107-7a99-9a59-392c6f6d8edd","019d6b28-084c-76dd-a1cb-5ac041bdee9a","","2465","","","","","","","","","","","","","",""
"","","","","","instructions","4","23099","0.0-4.0","530515F3F3F44A0CB00ED37C46A247E4","019d6b48-b107-7a99-9a59-392c6f6d8edd","019d6b28-084c-76dd-a1cb-5ac041bdee9a","[{""page_index"":0,""viewing_time"":9348}]","9348","","","","","","","","","","","","","",""
"","","","","","instructions","5","30866","0.0-5.0","530515F3F3F44A0CB00ED37C46A247E4","019d6b48-b107-7a99-9a59-392c6f6d8edd","019d6b28-084c-76dd-a1cb-5ac041bdee9a","[{""page_index"":0,""viewing_time"":7766}]","7766","","","","","","","","","","","","","",""
"","","","","","html-keyboard-response","6","34869","0.0-6.0","530515F3F3F44A0CB00ED37C46A247E4","019d6b48-b107-7a99-9a59-392c6f6d8edd","019d6b28-084c-76dd-a1cb-5ac041bdee9a","","null","
            <div class=""stimulus-container"">
                <img src=""images/instructions/movie_1.png"" class=""exp-image"">
                <div class=""question-area""></div> 
            </div>","null","","","","","","","","","","","",""
"","","","","","html-button-response","7","36715","0.0-7.0","530515F3F3F44A0CB00ED37C46A247E4","019d6b48-b107-7a99-9a59-392c6f6d8edd","019d6b28-084c-76dd-a1cb-5ac041bdee9a","","1843","
            <div class=""stimulus-container"">
                <img src=""images/instructions/movie_1.png"" class=""exp-image"">
                <div class=""question-area"">
                    <p style=""font-size: 20px; font-weight: bold; margin: 0;"">Was there a person in this image?</p>
                </div>
            </div>","0","example_question","1","","","","","","","","","",""
"","","","","","html-keyboard-response","8","40717","0.0-8.0","530515F3F3F44A0CB00ED37C46A247E4","019d6b48-b107-7a99-9a59-392c6f6d8edd","019d6b28-084c-76dd-a1cb-5ac041bdee9a","","null","
            <div class=""stimulus-container"">
                <img src=""images/instructions/movie_2.png"" class=""exp-image"">
                <div class=""question-area""></div> 
            </div>","null","","","","","","","","","","","",""
"","","","","","html-button-response","9","41466","0.0-9.0","530515F3F3F44A0CB00ED37C46A247E4","019d6b48-b107-7a99-9a59-392c6f6d8edd","019d6b28-084c-76dd-a1cb-5ac041bdee9a","","747","
            <div class=""stimulus-container"">
                <img src=""images/instructions/movie_2.png"" class=""exp-image"">
                <div class=""question-area"">
                    <p style=""font-size: 20px; font-weight: bold; margin: 0;"">Was there a person in this image?</p>
                </div>
            </div>","0","example_question","2","","","","","","","","","",""
"","","","","","html-keyboard-response","10","45467","0.0-10.0","530515F3F3F44A0CB00ED37C46A247E4","019d6b48-b107-7a99-9a59-392c6f6d8edd","019d6b28-084c-76dd-a1cb-5ac041bdee9a","","null","
            <div class=""stimulus-container"">
                <img src=""images/instructions/movie_3.png"" class=""exp-image"">
                <div class=""question-area""></div> 
            </div>","null","","","","","","","","","","","",""
"","","","","","html-button-response","11","48699","0.0-11.0","530515F3F3F44A0CB00ED37C46A247E4","019d6b48-b107-7a99-9a59-392c6f6d8edd","019d6b28-084c-76dd-a1cb-5ac041bdee9a","","null","
            <div class=""stimulus-container"">
                <img src=""images/instructions/movie_3.png"" class=""exp-image"">
                <div class=""question-area"">
                    <p style=""font-size: 20px; font-weight: bold; margin: 0;"">Was there a person in this image?</p>
                </div>
            </div>","null","example_question","3","","","","","","","","","",""
"","","","","","html-keyboard-response","12","53699","0.0-12.0","530515F3F3F44A0CB00ED37C46A247E4","019d6b48-b107-7a99-9a59-392c6f6d8edd","019d6b28-084c-76dd-a1cb-5ac041bdee9a","","null","
            <div class=""stimulus-container"">
                <img src=""images/instructions/movie_4.png"" class=""exp-image"">
                <div class=""question-area""></div> 
            </div>","null","","","","","","","","","","","",""
"","","","","","html-button-response","13","57699","0.0-13.0","530515F3F3F44A0CB00ED37C46A247E4","019d6b48-b107-7a99-9a59-392c6f6d8edd","019d6b28-084c-76dd-a1cb-5ac041bdee9a","","null","
            <div class=""stimulus-container"">
                <img src=""images/instructions/movie_4.png"" class=""exp-image"">
                <div class=""question-area"">
                    <p style=""font-size: 20px; font-weight: bold; margin: 0;"">Was there a person in this image?</p>
                </div>
            </div>","null","example_question","4","","","","","","","","","",""
"","","","","","instructions","14","72264","0.0-14.0","530515F3F3F44A0CB00ED37C46A247E4","019d6b48-b107-7a99-9a59-392c6f6d8edd","019d6b28-084c-76dd-a1cb-5ac041bdee9a","[{""page_index"":0,""viewing_time"":14564}]","14565","","","","","","","","","","","","","",""
"","","","","","instructions","15","75498","0.0-15.0","530515F3F3F44A0CB00ED37C46A247E4","019d6b48-b107-7a99-9a59-392c6f6d8edd","019d6b28-084c-76dd-a1cb-5ac041bdee9a","[{""page_index"":0,""viewing_time"":3233}]","3233","","","","","","","","","","","","","",""
"","","","","","html-keyboard-response","16","80500","0.0-16.0","530515F3F3F44A0CB00ED37C46A247E4","019d6b48-b107-7a99-9a59-392c6f6d8edd","019d6b28-084c-76dd-a1cb-5ac041bdee9a","","null","<div style=""background-color: white; width: 100vw; height: 100vh;""></div>","null","","","","","","","","","","","",""
"","","","","","html-keyboard-response","17","85503","0.0-17.0","530515F3F3F44A0CB00ED37C46A247E4","019d6b48-b107-7a99-9a59-392c6f6d8edd","019d6b28-084c-76dd-a1cb-5ac041bdee9a","","null","
                <div class=""stimulus-container"">
                    <img src=""images/causal_sequence/dog_causal/dog_causal_1.png"" class=""exp-image"">
                    <div class=""question-area""></div> 
                </div>","null","","","","","","","","","","","",""
"","","","","","html-button-response","18","87715","0.0-18.0","530515F3F3F44A0CB00ED37C46A247E4","019d6b48-b107-7a99-9a59-392c6f6d8edd","019d6b28-084c-76dd-a1cb-5ac041bdee9a","","2210","
                <div class=""stimulus-container"">
                    <img src=""images/causal_sequence/dog_causal/dog_causal_1.png"" class=""exp-image"">
                    <div class=""question-area"">
                        <p style=""font-size: 20px; font-weight: bold; margin: 0;"">Is there a person in this image?</p>
                    </div>
                </div>","0","main_experiment_trial","1","dog_causal","causal_sequence","chronological","","","","","","",""
"","","","","","html-keyboard-response","19","92717","0.0-19.0","530515F3F3F44A0CB00ED37C46A247E4","019d6b48-b107-7a99-9a59-392c6f6d8edd","019d6b28-084c-76dd-a1cb-5ac041bdee9a","","null","
                <div class=""stimulus-container"">
                    <img src=""images/causal_sequence/dog_causal/dog_causal_2.png"" class=""exp-image"">
                    <div class=""question-area""></div> 
                </div>","null","","","","","","","","","","","",""
"","","","","","html-button-response","20","93216","0.0-20.0","530515F3F3F44A0CB00ED37C46A247E4","019d6b48-b107-7a99-9a59-392c6f6d8edd","019d6b28-084c-76dd-a1cb-5ac041bdee9a","","497","
                <div class=""stimulus-container"">
                    <img src=""images/causal_sequence/dog_causal/dog_causal_2.png"" class=""exp-image"">
                    <div class=""question-area"">
                        <p style=""font-size: 20px; font-weight: bold; margin: 0;"">Is there a person in this image?</p>
                    </div>
                </div>","0","main_experiment_trial","2","dog_causal","causal_sequence","chronological","","","","","","",""
"","","","","","html-keyboard-response","21","98218","0.0-21.0","530515F3F3F44A0CB00ED37C46A247E4","019d6b48-b107-7a99-9a59-392c6f6d8edd","019d6b28-084c-76dd-a1cb-5ac041bdee9a","","null","
                <div class=""stimulus-container"">
                    <img src=""images/causal_sequence/dog_causal/dog_causal_3.png"" class=""exp-image"">
                    <div class=""question-area""></div> 
                </div>","null","","","","","","","","","","","",""
"","","","","","html-button-response","22","98683","0.0-22.0","530515F3F3F44A0CB00ED37C46A247E4","019d6b48-b107-7a99-9a59-392c6f6d8edd","019d6b28-084c-76dd-a1cb-5ac041bdee9a","","463","
                <div class=""stimulus-container"">
                    <img src=""images/causal_sequence/dog_causal/dog_causal_3.png"" class=""exp-image"">
                    <div class=""question-area"">
                        <p style=""font-size: 20px; font-weight: bold; margin: 0;"">Is there a person in this image?</p>
                    </div>
                </div>","0","main_experiment_trial","3","dog_causal","causal_sequence","chronological","","","","","","",""
"","","","","","html-keyboard-response","23","103686","0.0-23.0","530515F3F3F44A0CB00ED37C46A247E4","019d6b48-b107-7a99-9a59-392c6f6d8edd","019d6b28-084c-76dd-a1cb-5ac041bdee9a","","null","
                <div class=""stimulus-container"">
                    <img src=""images/causal_sequence/dog_causal/dog_causal_4.png"" class=""exp-image"">
                    <div class=""question-area""></div> 
                </div>","null","","","","","","","","","","","",""
"","","","","","html-button-response","24","104283","0.0-24.0","530515F3F3F44A0CB00ED37C46A247E4","019d6b48-b107-7a99-9a59-392c6f6d8edd","019d6b28-084c-76dd-a1cb-5ac041bdee9a","","596","
                <div class=""stimulus-container"">
                    <img src=""images/causal_sequence/dog_causal/dog_causal_4.png"" class=""exp-image"">
                    <div class=""question-area"">
                        <p style=""font-size: 20px; font-weight: bold; margin: 0;"">Is there a person in this image?</p>
                    </div>
                </div>","0","main_experiment_trial","4","dog_causal","causal_sequence","chronological","","","","","","",""
"","","","","","html-keyboard-response","25","109285","0.0-25.0","530515F3F3F44A0CB00ED37C46A247E4","019d6b48-b107-7a99-9a59-392c6f6d8edd","019d6b28-084c-76dd-a1cb-5ac041bdee9a","","null","
                <div class=""stimulus-container"">
                    <img src=""images/causal_sequence/dog_causal/dog_causal_5.png"" class=""exp-image"">
                    <div class=""question-area""></div> 
                </div>","null","","","","","","","","","","","",""
"","","","","","html-button-response","26","109816","0.0-26.0","530515F3F3F44A0CB00ED37C46A247E4","019d6b48-b107-7a99-9a59-392c6f6d8edd","019d6b28-084c-76dd-a1cb-5ac041bdee9a","","529","
                <div class=""stimulus-container"">
                    <img src=""images/causal_sequence/dog_causal/dog_causal_5.png"" class=""exp-image"">
                    <div class=""question-area"">
                        <p style=""font-size: 20px; font-weight: bold; margin: 0;"">Is there a person in this image?</p>
                    </div>
                </div>","0","main_experiment_trial","5","dog_causal","causal_sequence","chronological","","","","","","",""
"","","","","","html-keyboard-response","27","114818","0.0-27.0","530515F3F3F44A0CB00ED37C46A247E4","019d6b48-b107-7a99-9a59-392c6f6d8edd","019d6b28-084c-76dd-a1cb-5ac041bdee9a","","null","
                <div class=""stimulus-container"">
                    <img src=""images/causal_sequence/dog_causal/dog_causal_6.png"" class=""exp-image"">
                    <div class=""question-area""></div> 
                </div>","null","","","","","","","","","","","",""
"","","","","","html-button-response","28","115232","0.0-28.0","530515F3F3F44A0CB00ED37C46A247E4","019d6b48-b107-7a99-9a59-392c6f6d8edd","019d6b28-084c-76dd-a1cb-5ac041bdee9a","","412","
                <div class=""stimulus-container"">
                    <img src=""images/causal_sequence/dog_causal/dog_causal_6.png"" class=""exp-image"">
                    <div class=""question-area"">
                        <p style=""font-size: 20px; font-weight: bold; margin: 0;"">Is there a person in this image?</p>
                    </div>
                </div>","0","main_experiment_trial","6","dog_causal","causal_sequence","chronological","","","","","","",""
"","","","","","html-keyboard-response","29","120234","0.0-29.0","530515F3F3F44A0CB00ED37C46A247E4","019d6b48-b107-7a99-9a59-392c6f6d8edd","019d6b28-084c-76dd-a1cb-5ac041bdee9a","","null","
                <div class=""stimulus-container"">
                    <img src=""images/causal_sequence/dog_causal/dog_causal_7.png"" class=""exp-image"">
                    <div class=""question-area""></div> 
                </div>","null","","","","","","","","","","","",""
"","","","","","html-button-response","30","120816","0.0-30.0","530515F3F3F44A0CB00ED37C46A247E4","019d6b48-b107-7a99-9a59-392c6f6d8edd","019d6b28-084c-76dd-a1cb-5ac041bdee9a","","581","
                <div class=""stimulus-container"">
                    <img src=""images/causal_sequence/dog_causal/dog_causal_7.png"" class=""exp-image"">
                    <div class=""question-area"">
                        <p style=""font-size: 20px; font-weight: bold; margin: 0;"">Is there a person in this image?</p>
                    </div>
                </div>","0","main_experiment_trial","7","dog_causal","causal_sequence","chronological","","","","","","",""
"","","","","","html-keyboard-response","31","125818","0.0-31.0","530515F3F3F44A0CB00ED37C46A247E4","019d6b48-b107-7a99-9a59-392c6f6d8edd","019d6b28-084c-76dd-a1cb-5ac041bdee9a","","null","
                <div class=""stimulus-container"">
                    <img src=""images/causal_sequence/dog_causal/dog_causal_8.png"" class=""exp-image"">
                    <div class=""question-area""></div> 
                </div>","null","","","","","","","","","","","",""
"","","","","","html-button-response","32","126583","0.0-32.0","530515F3F3F44A0CB00ED37C46A247E4","019d6b48-b107-7a99-9a59-392c6f6d8edd","019d6b28-084c-76dd-a1cb-5ac041bdee9a","","763","
                <div class=""stimulus-container"">
                    <img src=""images/causal_sequence/dog_causal/dog_causal_8.png"" class=""exp-image"">
                    <div class=""question-area"">
                        <p style=""font-size: 20px; font-weight: bold; margin: 0;"">Is there a person in this image?</p>
                    </div>
                </div>","0","main_experiment_trial","8","dog_causal","causal_sequence","chronological","","","","","","",""
"","","","","","html-keyboard-response","33","131586","0.0-33.0","530515F3F3F44A0CB00ED37C46A247E4","019d6b48-b107-7a99-9a59-392c6f6d8edd","019d6b28-084c-76dd-a1cb-5ac041bdee9a","","null","
                <div class=""stimulus-container"">
                    <img src=""images/causal_sequence/dog_causal/dog_causal_9.png"" class=""exp-image"">
                    <div class=""question-area""></div> 
                </div>","null","","","","","","","","","","","",""
"","","","","","html-button-response","34","132132","0.0-34.0","530515F3F3F44A0CB00ED37C46A247E4","019d6b48-b107-7a99-9a59-392c6f6d8edd","019d6b28-084c-76dd-a1cb-5ac041bdee9a","","545","
                <div class=""stimulus-container"">
                    <img src=""images/causal_sequence/dog_causal/dog_causal_9.png"" class=""exp-image"">
                    <div class=""question-area"">
                        <p style=""font-size: 20px; font-weight: bold; margin: 0;"">Is there a person in this image?</p>
                    </div>
                </div>","0","main_experiment_trial","9","dog_causal","causal_sequence","chronological","","","","","","",""
"","","","","","html-keyboard-response","35","137135","0.0-35.0","530515F3F3F44A0CB00ED37C46A247E4","019d6b48-b107-7a99-9a59-392c6f6d8edd","019d6b28-084c-76dd-a1cb-5ac041bdee9a","","null","
                <div class=""stimulus-container"">
                    <img src=""images/causal_sequence/dog_causal/dog_causal_ten.png"" class=""exp-image"">
                    <div class=""question-area""></div> 
                </div>","null","","","","","","","","","","","",""
"","","","","","html-button-response","36","137683","0.0-36.0","530515F3F3F44A0CB00ED37C46A247E4","019d6b48-b107-7a99-9a59-392c6f6d8edd","019d6b28-084c-76dd-a1cb-5ac041bdee9a","","546","
                <div class=""stimulus-container"">
                    <img src=""images/causal_sequence/dog_causal/dog_causal_ten.png"" class=""exp-image"">
                    <div class=""question-area"">
                        <p style=""font-size: 20px; font-weight: bold; margin: 0;"">Is there a person in this image?</p>
                    </div>
                </div>","0","main_experiment_trial","ten","dog_causal","causal_sequence","chronological","","","","","","",""
"","","","","","html-keyboard-response","37","142685","0.0-37.0","530515F3F3F44A0CB00ED37C46A247E4","019d6b48-b107-7a99-9a59-392c6f6d8edd","019d6b28-084c-76dd-a1cb-5ac041bdee9a","","null","<div style=""background-color: white; width: 100vw; height: 100vh;""></div>","null","","","","","","","","","","","",""
"","","","","","html-keyboard-response","38","147688","0.0-38.0","530515F3F3F44A0CB00ED37C46A247E4","019d6b48-b107-7a99-9a59-392c6f6d8edd","019d6b28-084c-76dd-a1cb-5ac041bdee9a","","null","
                <div class=""stimulus-container"">
                    <img src=""semantic_sequence_notimeline/professions_semantic/professions_semantic_1.png"" class=""exp-image"">
                    <div class=""question-area""></div> 
                </div>","null","","","","","","","","","","","",""
"","","","","","html-button-response","39","148466","0.0-39.0","530515F3F3F44A0CB00ED37C46A247E4","019d6b48-b107-7a99-9a59-392c6f6d8edd","019d6b28-084c-76dd-a1cb-5ac041bdee9a","","776","
                <div class=""stimulus-container"">
                    <img src=""semantic_sequence_notimeline/professions_semantic/professions_semantic_1.png"" class=""exp-image"">
                    <div class=""question-area"">
                        <p style=""font-size: 20px; font-weight: bold; margin: 0;"">Is there a person in this image?</p>
                    </div>
                </div>","0","main_experiment_trial","1","professions_semantic","semantic_sequence_notimeline","chronological","","","","","","",""
"","","","","","html-keyboard-response","40","153469","0.0-40.0","530515F3F3F44A0CB00ED37C46A247E4","019d6b48-b107-7a99-9a59-392c6f6d8edd","019d6b28-084c-76dd-a1cb-5ac041bdee9a","","null","
                <div class=""stimulus-container"">
                    <img src=""semantic_sequence_notimeline/professions_semantic/professions_semantic_2.png"" class=""exp-image"">
                    <div class=""question-area""></div> 
                </div>","null","","","","","","","","","","","",""
"","","","","","html-button-response","41","154133","0.0-41.0","530515F3F3F44A0CB00ED37C46A247E4","019d6b48-b107-7a99-9a59-392c6f6d8edd","019d6b28-084c-76dd-a1cb-5ac041bdee9a","","662","
                <div class=""stimulus-container"">
                    <img src=""semantic_sequence_notimeline/professions_semantic/professions_semantic_2.png"" class=""exp-image"">
                    <div class=""question-area"">
                        <p style=""font-size: 20px; font-weight: bold; margin: 0;"">Is there a person in this image?</p>
                    </div>
                </div>","0","main_experiment_trial","2","professions_semantic","semantic_sequence_notimeline","chronological","","","","","","",""
"","","","","","html-keyboard-response","42","159135","0.0-42.0","530515F3F3F44A0CB00ED37C46A247E4","019d6b48-b107-7a99-9a59-392c6f6d8edd","019d6b28-084c-76dd-a1cb-5ac041bdee9a","","null","
                <div class=""stimulus-container"">
                    <img src=""semantic_sequence_notimeline/professions_semantic/professions_semantic_3.png"" class=""exp-image"">
                    <div class=""question-area""></div> 
                </div>","null","","","","","","","","","","","",""
"","","","","","html-button-response","43","159799","0.0-43.0","530515F3F3F44A0CB00ED37C46A247E4","019d6b48-b107-7a99-9a59-392c6f6d8edd","019d6b28-084c-76dd-a1cb-5ac041bdee9a","","662","
                <div class=""stimulus-container"">
                    <img src=""semantic_sequence_notimeline/professions_semantic/professions_semantic_3.png"" class=""exp-image"">
                    <div class=""question-area"">
                        <p style=""font-size: 20px; font-weight: bold; margin: 0;"">Is there a person in this image?</p>
                    </div>
                </div>","0","main_experiment_trial","3","professions_semantic","semantic_sequence_notimeline","chronological","","","","","","",""
"","","","","","html-keyboard-response","44","164801","0.0-44.0","530515F3F3F44A0CB00ED37C46A247E4","019d6b48-b107-7a99-9a59-392c6f6d8edd","019d6b28-084c-76dd-a1cb-5ac041bdee9a","","null","
                <div class=""stimulus-container"">
                    <img src=""semantic_sequence_notimeline/professions_semantic/professions_semantic_4.png"" class=""exp-image"">
                    <div class=""question-area""></div> 
                </div>","null","","","","","","","","","","","",""
"","","","","","html-button-response","45","165499","0.0-45.0","530515F3F3F44A0CB00ED37C46A247E4","019d6b48-b107-7a99-9a59-392c6f6d8edd","019d6b28-084c-76dd-a1cb-5ac041bdee9a","","697","
                <div class=""stimulus-container"">
                    <img src=""semantic_sequence_notimeline/professions_semantic/professions_semantic_4.png"" class=""exp-image"">
                    <div class=""question-area"">
                        <p style=""font-size: 20px; font-weight: bold; margin: 0;"">Is there a person in this image?</p>
                    </div>
                </div>","0","main_experiment_trial","4","professions_semantic","semantic_sequence_notimeline","chronological","","","","","","",""
"","","","","","html-keyboard-response","46","170501","0.0-46.0","530515F3F3F44A0CB00ED37C46A247E4","019d6b48-b107-7a99-9a59-392c6f6d8edd","019d6b28-084c-76dd-a1cb-5ac041bdee9a","","null","
                <div class=""stimulus-container"">
                    <img src=""semantic_sequence_notimeline/professions_semantic/professions_semantic_5.png"" class=""exp-image"">
                    <div class=""question-area""></div> 
                </div>","null","","","","","","","","","","","",""
"","","","","","html-button-response","47","171132","0.0-47.0","530515F3F3F44A0CB00ED37C46A247E4","019d6b48-b107-7a99-9a59-392c6f6d8edd","019d6b28-084c-76dd-a1cb-5ac041bdee9a","","629","
                <div class=""stimulus-container"">
                    <img src=""semantic_sequence_notimeline/professions_semantic/professions_semantic_5.png"" class=""exp-image"">
                    <div class=""question-area"">
                        <p style=""font-size: 20px; font-weight: bold; margin: 0;"">Is there a person in this image?</p>
                    </div>
                </div>","0","main_experiment_trial","5","professions_semantic","semantic_sequence_notimeline","chronological","","","","","","",""
"","","","","","html-keyboard-response","48","176134","0.0-48.0","530515F3F3F44A0CB00ED37C46A247E4","019d6b48-b107-7a99-9a59-392c6f6d8edd","019d6b28-084c-76dd-a1cb-5ac041bdee9a","","null","
                <div class=""stimulus-container"">
                    <img src=""semantic_sequence_notimeline/professions_semantic/professions_semantic_6.png"" class=""exp-image"">
                    <div class=""question-area""></div> 
                </div>","null","","","","","","","","","","","",""
"","","","","","html-button-response","49","176566","0.0-49.0","530515F3F3F44A0CB00ED37C46A247E4","019d6b48-b107-7a99-9a59-392c6f6d8edd","019d6b28-084c-76dd-a1cb-5ac041bdee9a","","430","
                <div class=""stimulus-container"">
                    <img src=""semantic_sequence_notimeline/professions_semantic/professions_semantic_6.png"" class=""exp-image"">
                    <div class=""question-area"">
                        <p style=""font-size: 20px; font-weight: bold; margin: 0;"">Is there a person in this image?</p>
                    </div>
                </div>","0","main_experiment_trial","6","professions_semantic","semantic_sequence_notimeline","chronological","","","","","","",""
"","","","","","html-keyboard-response","50","181568","0.0-50.0","530515F3F3F44A0CB00ED37C46A247E4","019d6b48-b107-7a99-9a59-392c6f6d8edd","019d6b28-084c-76dd-a1cb-5ac041bdee9a","","null","
                <div class=""stimulus-container"">
                    <img src=""semantic_sequence_notimeline/professions_semantic/professions_semantic_7.png"" class=""exp-image"">
                    <div class=""question-area""></div> 
                </div>","null","","","","","","","","","","","",""
"","","","","","html-button-response","51","182182","0.0-51.0","530515F3F3F44A0CB00ED37C46A247E4","019d6b48-b107-7a99-9a59-392c6f6d8edd","019d6b28-084c-76dd-a1cb-5ac041bdee9a","","612","
                <div class=""stimulus-container"">
                    <img src=""semantic_sequence_notimeline/professions_semantic/professions_semantic_7.png"" class=""exp-image"">
                    <div class=""question-area"">
                        <p style=""font-size: 20px; font-weight: bold; margin: 0;"">Is there a person in this image?</p>
                    </div>
                </div>","0","main_experiment_trial","7","professions_semantic","semantic_sequence_notimeline","chronological","","","","","","",""
"","","","","","html-keyboard-response","52","187185","0.0-52.0","530515F3F3F44A0CB00ED37C46A247E4","019d6b48-b107-7a99-9a59-392c6f6d8edd","019d6b28-084c-76dd-a1cb-5ac041bdee9a","","null","
                <div class=""stimulus-container"">
                    <img src=""semantic_sequence_notimeline/professions_semantic/professions_semantic_8.png"" class=""exp-image"">
                    <div class=""question-area""></div> 
                </div>","null","","","","","","","","","","","",""
"","","","","","html-button-response","53","187733","0.0-53.0","530515F3F3F44A0CB00ED37C46A247E4","019d6b48-b107-7a99-9a59-392c6f6d8edd","019d6b28-084c-76dd-a1cb-5ac041bdee9a","","546","
                <div class=""stimulus-container"">
                    <img src=""semantic_sequence_notimeline/professions_semantic/professions_semantic_8.png"" class=""exp-image"">
                    <div class=""question-area"">
                        <p style=""font-size: 20px; font-weight: bold; margin: 0;"">Is there a person in this image?</p>
                    </div>
                </div>","0","main_experiment_trial","8","professions_semantic","semantic_sequence_notimeline","chronological","","","","","","",""
"","","","","","html-keyboard-response","54","192735","0.0-54.0","530515F3F3F44A0CB00ED37C46A247E4","019d6b48-b107-7a99-9a59-392c6f6d8edd","019d6b28-084c-76dd-a1cb-5ac041bdee9a","","null","
                <div class=""stimulus-container"">
                    <img src=""semantic_sequence_notimeline/professions_semantic/professions_semantic_9.png"" class=""exp-image"">
                    <div class=""question-area""></div> 
                </div>","null","","","","","","","","","","","",""
"","","","","","html-button-response","55","193549","0.0-55.0","530515F3F3F44A0CB00ED37C46A247E4","019d6b48-b107-7a99-9a59-392c6f6d8edd","019d6b28-084c-76dd-a1cb-5ac041bdee9a","","813","
                <div class=""stimulus-container"">
                    <img src=""semantic_sequence_notimeline/professions_semantic/professions_semantic_9.png"" class=""exp-image"">
                    <div class=""question-area"">
                        <p style=""font-size: 20px; font-weight: bold; margin: 0;"">Is there a person in this image?</p>
                    </div>
                </div>","0","main_experiment_trial","9","professions_semantic","semantic_sequence_notimeline","chronological","","","","","","",""
"","","","","","html-keyboard-response","56","198552","0.0-56.0","530515F3F3F44A0CB00ED37C46A247E4","019d6b48-b107-7a99-9a59-392c6f6d8edd","019d6b28-084c-76dd-a1cb-5ac041bdee9a","","null","
                <div class=""stimulus-container"">
                    <img src=""semantic_sequence_notimeline/professions_semantic/professions_semantic_ten.png"" class=""exp-image"">
                    <div class=""question-area""></div> 
                </div>","null","","","","","","","","","","","",""
"","","","","","html-button-response","57","199266","0.0-57.0","530515F3F3F44A0CB00ED37C46A247E4","019d6b48-b107-7a99-9a59-392c6f6d8edd","019d6b28-084c-76dd-a1cb-5ac041bdee9a","","713","
                <div class=""stimulus-container"">
                    <img src=""semantic_sequence_notimeline/professions_semantic/professions_semantic_ten.png"" class=""exp-image"">
                    <div class=""question-area"">
                        <p style=""font-size: 20px; font-weight: bold; margin: 0;"">Is there a person in this image?</p>
                    </div>
                </div>","0","main_experiment_trial","ten","professions_semantic","semantic_sequence_notimeline","chronological","","","","","","",""
"","","","","","html-keyboard-response","58","204269","0.0-58.0","530515F3F3F44A0CB00ED37C46A247E4","019d6b48-b107-7a99-9a59-392c6f6d8edd","019d6b28-084c-76dd-a1cb-5ac041bdee9a","","null","<div style=""background-color: white; width: 100vw; height: 100vh;""></div>","null","","","","","","","","","","","",""
"","","","","","html-keyboard-response","59","209271","0.0-59.0","530515F3F3F44A0CB00ED37C46A247E4","019d6b48-b107-7a99-9a59-392c6f6d8edd","019d6b28-084c-76dd-a1cb-5ac041bdee9a","","null","
                <div class=""stimulus-container"">
                    <img src=""images/causal_sequence/coin_causal/coin_causal_1.png"" class=""exp-image"">
                    <div class=""question-area""></div> 
                </div>","null","","","","","","","","","","","",""
"","","","","","html-button-response","60","209699","0.0-60.0","530515F3F3F44A0CB00ED37C46A247E4","019d6b48-b107-7a99-9a59-392c6f6d8edd","019d6b28-084c-76dd-a1cb-5ac041bdee9a","","427","
                <div class=""stimulus-container"">
                    <img src=""images/causal_sequence/coin_causal/coin_causal_1.png"" class=""exp-image"">
                    <div class=""question-area"">
                        <p style=""font-size: 20px; font-weight: bold; margin: 0;"">Is there a person in this image?</p>
                    </div>
                </div>","0","main_experiment_trial","1","coin_causal","causal_sequence","chronological","","","","","","",""
"","","","","","html-keyboard-response","61","214702","0.0-61.0","530515F3F3F44A0CB00ED37C46A247E4","019d6b48-b107-7a99-9a59-392c6f6d8edd","019d6b28-084c-76dd-a1cb-5ac041bdee9a","","null","
                <div class=""stimulus-container"">
                    <img src=""images/causal_sequence/coin_causal/coin_causal_2.png"" class=""exp-image"">
                    <div class=""question-area""></div> 
                </div>","null","","","","","","","","","","","",""
"","","","","","html-button-response","62","215282","0.0-62.0","530515F3F3F44A0CB00ED37C46A247E4","019d6b48-b107-7a99-9a59-392c6f6d8edd","019d6b28-084c-76dd-a1cb-5ac041bdee9a","","580","
                <div class=""stimulus-container"">
                    <img src=""images/causal_sequence/coin_causal/coin_causal_2.png"" class=""exp-image"">
                    <div class=""question-area"">
                        <p style=""font-size: 20px; font-weight: bold; margin: 0;"">Is there a person in this image?</p>
                    </div>
                </div>","0","main_experiment_trial","2","coin_causal","causal_sequence","chronological","","","","","","",""
"","","","","","html-keyboard-response","63","220285","0.0-63.0","530515F3F3F44A0CB00ED37C46A247E4","019d6b48-b107-7a99-9a59-392c6f6d8edd","019d6b28-084c-76dd-a1cb-5ac041bdee9a","","null","
                <div class=""stimulus-container"">
                    <img src=""images/causal_sequence/coin_causal/coin_causal_3.png"" class=""exp-image"">
                    <div class=""question-area""></div> 
                </div>","null","","","","","","","","","","","",""
"","","","","","html-button-response","64","220882","0.0-64.0","530515F3F3F44A0CB00ED37C46A247E4","019d6b48-b107-7a99-9a59-392c6f6d8edd","019d6b28-084c-76dd-a1cb-5ac041bdee9a","","596","
                <div class=""stimulus-container"">
                    <img src=""images/causal_sequence/coin_causal/coin_causal_3.png"" class=""exp-image"">
                    <div class=""question-area"">
                        <p style=""font-size: 20px; font-weight: bold; margin: 0;"">Is there a person in this image?</p>
                    </div>
                </div>","0","main_experiment_trial","3","coin_causal","causal_sequence","chronological","","","","","","",""
"","","","","","html-keyboard-response","65","225885","0.0-65.0","530515F3F3F44A0CB00ED37C46A247E4","019d6b48-b107-7a99-9a59-392c6f6d8edd","019d6b28-084c-76dd-a1cb-5ac041bdee9a","","null","
                <div class=""stimulus-container"">
                    <img src=""images/causal_sequence/coin_causal/coin_causal_4.png"" class=""exp-image"">
                    <div class=""question-area""></div> 
                </div>","null","","","","","","","","","","","",""
"","","","","","html-button-response","66","226633","0.0-66.0","530515F3F3F44A0CB00ED37C46A247E4","019d6b48-b107-7a99-9a59-392c6f6d8edd","019d6b28-084c-76dd-a1cb-5ac041bdee9a","","747","
                <div class=""stimulus-container"">
                    <img src=""images/causal_sequence/coin_causal/coin_causal_4.png"" class=""exp-image"">
                    <div class=""question-area"">
                        <p style=""font-size: 20px; font-weight: bold; margin: 0;"">Is there a person in this image?</p>
                    </div>
                </div>","0","main_experiment_trial","4","coin_causal","causal_sequence","chronological","","","","","","",""
"","","","","","html-keyboard-response","67","231636","0.0-67.0","530515F3F3F44A0CB00ED37C46A247E4","019d6b48-b107-7a99-9a59-392c6f6d8edd","019d6b28-084c-76dd-a1cb-5ac041bdee9a","","null","
                <div class=""stimulus-container"">
                    <img src=""images/causal_sequence/coin_causal/coin_causal_5.png"" class=""exp-image"">
                    <div class=""question-area""></div> 
                </div>","null","","","","","","","","","","","",""
"","","","","","html-button-response","68","232016","0.0-68.0","530515F3F3F44A0CB00ED37C46A247E4","019d6b48-b107-7a99-9a59-392c6f6d8edd","019d6b28-084c-76dd-a1cb-5ac041bdee9a","","378","
                <div class=""stimulus-container"">
                    <img src=""images/causal_sequence/coin_causal/coin_causal_5.png"" class=""exp-image"">
                    <div class=""question-area"">
                        <p style=""font-size: 20px; font-weight: bold; margin: 0;"">Is there a person in this image?</p>
                    </div>
                </div>","0","main_experiment_trial","5","coin_causal","causal_sequence","chronological","","","","","","",""
"","","","","","html-keyboard-response","69","237017","0.0-69.0","530515F3F3F44A0CB00ED37C46A247E4","019d6b48-b107-7a99-9a59-392c6f6d8edd","019d6b28-084c-76dd-a1cb-5ac041bdee9a","","null","
                <div class=""stimulus-container"">
                    <img src=""images/causal_sequence/coin_causal/coin_causal_6.png"" class=""exp-image"">
                    <div class=""question-area""></div> 
                </div>","null","","","","","","","","","","","",""
"","","","","","html-button-response","70","237499","0.0-70.0","530515F3F3F44A0CB00ED37C46A247E4","019d6b48-b107-7a99-9a59-392c6f6d8edd","019d6b28-084c-76dd-a1cb-5ac041bdee9a","","480","
                <div class=""stimulus-container"">
                    <img src=""images/causal_sequence/coin_causal/coin_causal_6.png"" class=""exp-image"">
                    <div class=""question-area"">
                        <p style=""font-size: 20px; font-weight: bold; margin: 0;"">Is there a person in this image?</p>
                    </div>
                </div>","0","main_experiment_trial","6","coin_causal","causal_sequence","chronological","","","","","","",""
"","","","","","html-keyboard-response","71","242501","0.0-71.0","530515F3F3F44A0CB00ED37C46A247E4","019d6b48-b107-7a99-9a59-392c6f6d8edd","019d6b28-084c-76dd-a1cb-5ac041bdee9a","","null","
                <div class=""stimulus-container"">
                    <img src=""images/causal_sequence/coin_causal/coin_causal_7.png"" class=""exp-image"">
                    <div class=""question-area""></div> 
                </div>","null","","","","","","","","","","","",""
"","","","","","html-button-response","72","243182","0.0-72.0","530515F3F3F44A0CB00ED37C46A247E4","019d6b48-b107-7a99-9a59-392c6f6d8edd","019d6b28-084c-76dd-a1cb-5ac041bdee9a","","679","
                <div class=""stimulus-container"">
                    <img src=""images/causal_sequence/coin_causal/coin_causal_7.png"" class=""exp-image"">
                    <div class=""question-area"">
                        <p style=""font-size: 20px; font-weight: bold; margin: 0;"">Is there a person in this image?</p>
                    </div>
                </div>","1","main_experiment_trial","7","coin_causal","causal_sequence","chronological","","","","","","",""
"","","","","","html-keyboard-response","73","248184","0.0-73.0","530515F3F3F44A0CB00ED37C46A247E4","019d6b48-b107-7a99-9a59-392c6f6d8edd","019d6b28-084c-76dd-a1cb-5ac041bdee9a","","null","
                <div class=""stimulus-container"">
                    <img src=""images/causal_sequence/coin_causal/coin_causal_8.png"" class=""exp-image"">
                    <div class=""question-area""></div> 
                </div>","null","","","","","","","","","","","",""
"","","","","","html-button-response","74","249116","0.0-74.0","530515F3F3F44A0CB00ED37C46A247E4","019d6b48-b107-7a99-9a59-392c6f6d8edd","019d6b28-084c-76dd-a1cb-5ac041bdee9a","","930","
                <div class=""stimulus-container"">
                    <img src=""images/causal_sequence/coin_causal/coin_causal_8.png"" class=""exp-image"">
                    <div class=""question-area"">
                        <p style=""font-size: 20px; font-weight: bold; margin: 0;"">Is there a person in this image?</p>
                    </div>
                </div>","0","main_experiment_trial","8","coin_causal","causal_sequence","chronological","","","","","","",""
"","","","","","html-keyboard-response","75","254118","0.0-75.0","530515F3F3F44A0CB00ED37C46A247E4","019d6b48-b107-7a99-9a59-392c6f6d8edd","019d6b28-084c-76dd-a1cb-5ac041bdee9a","","null","
                <div class=""stimulus-container"">
                    <img src=""images/causal_sequence/coin_causal/coin_causal_9.png"" class=""exp-image"">
                    <div class=""question-area""></div> 
                </div>","null","","","","","","","","","","","",""
"","","","","","html-button-response","76","254933","0.0-76.0","530515F3F3F44A0CB00ED37C46A247E4","019d6b48-b107-7a99-9a59-392c6f6d8edd","019d6b28-084c-76dd-a1cb-5ac041bdee9a","","813","
                <div class=""stimulus-container"">
                    <img src=""images/causal_sequence/coin_causal/coin_causal_9.png"" class=""exp-image"">
                    <div class=""question-area"">
                        <p style=""font-size: 20px; font-weight: bold; margin: 0;"">Is there a person in this image?</p>
                    </div>
                </div>","0","main_experiment_trial","9","coin_causal","causal_sequence","chronological","","","","","","",""
"","","","","","html-keyboard-response","77","259935","0.0-77.0","530515F3F3F44A0CB00ED37C46A247E4","019d6b48-b107-7a99-9a59-392c6f6d8edd","019d6b28-084c-76dd-a1cb-5ac041bdee9a","","null","
                <div class=""stimulus-container"">
                    <img src=""images/causal_sequence/coin_causal/coin_causal_ten.png"" class=""exp-image"">
                    <div class=""question-area""></div> 
                </div>","null","","","","","","","","","","","",""
"","","","","","html-button-response","78","260349","0.0-78.0","530515F3F3F44A0CB00ED37C46A247E4","019d6b48-b107-7a99-9a59-392c6f6d8edd","019d6b28-084c-76dd-a1cb-5ac041bdee9a","","412","
                <div class=""stimulus-container"">
                    <img src=""images/causal_sequence/coin_causal/coin_causal_ten.png"" class=""exp-image"">
                    <div class=""question-area"">
                        <p style=""font-size: 20px; font-weight: bold; margin: 0;"">Is there a person in this image?</p>
                    </div>
                </div>","0","main_experiment_trial","ten","coin_causal","causal_sequence","chronological","","","","","","",""
"","","","","","html-keyboard-response","79","265351","0.0-79.0","530515F3F3F44A0CB00ED37C46A247E4","019d6b48-b107-7a99-9a59-392c6f6d8edd","019d6b28-084c-76dd-a1cb-5ac041bdee9a","","null","<div style=""background-color: white; width: 100vw; height: 100vh;""></div>","null","","","","","","","","","","","",""
"","","","","","html-keyboard-response","80","270354","0.0-80.0","530515F3F3F44A0CB00ED37C46A247E4","019d6b48-b107-7a99-9a59-392c6f6d8edd","019d6b28-084c-76dd-a1cb-5ac041bdee9a","","null","
                <div class=""stimulus-container"">
                    <img src=""semantic_sequence_notimeline/animals_semantic/animals_semantic_1.png"" class=""exp-image"">
                    <div class=""question-area""></div> 
                </div>","null","","","","","","","","","","","",""
"","","","","","html-button-response","81","271215","0.0-81.0","530515F3F3F44A0CB00ED37C46A247E4","019d6b48-b107-7a99-9a59-392c6f6d8edd","019d6b28-084c-76dd-a1cb-5ac041bdee9a","","860","
                <div class=""stimulus-container"">
                    <img src=""semantic_sequence_notimeline/animals_semantic/animals_semantic_1.png"" class=""exp-image"">
                    <div class=""question-area"">
                        <p style=""font-size: 20px; font-weight: bold; margin: 0;"">Is there a person in this image?</p>
                    </div>
                </div>","1","main_experiment_trial","1","animals_semantic","semantic_sequence_notimeline","chronological","","","","","","",""
"","","","","","html-keyboard-response","82","276218","0.0-82.0","530515F3F3F44A0CB00ED37C46A247E4","019d6b48-b107-7a99-9a59-392c6f6d8edd","019d6b28-084c-76dd-a1cb-5ac041bdee9a","","null","
                <div class=""stimulus-container"">
                    <img src=""semantic_sequence_notimeline/animals_semantic/animals_semantic_2.png"" class=""exp-image"">
                    <div class=""question-area""></div> 
                </div>","null","","","","","","","","","","","",""
"","","","","","html-button-response","83","276816","0.0-83.0","530515F3F3F44A0CB00ED37C46A247E4","019d6b48-b107-7a99-9a59-392c6f6d8edd","019d6b28-084c-76dd-a1cb-5ac041bdee9a","","596","
                <div class=""stimulus-container"">
                    <img src=""semantic_sequence_notimeline/animals_semantic/animals_semantic_2.png"" class=""exp-image"">
                    <div class=""question-area"">
                        <p style=""font-size: 20px; font-weight: bold; margin: 0;"">Is there a person in this image?</p>
                    </div>
                </div>","1","main_experiment_trial","2","animals_semantic","semantic_sequence_notimeline","chronological","","","","","","",""
"","","","","","html-keyboard-response","84","281818","0.0-84.0","530515F3F3F44A0CB00ED37C46A247E4","019d6b48-b107-7a99-9a59-392c6f6d8edd","019d6b28-084c-76dd-a1cb-5ac041bdee9a","","null","
                <div class=""stimulus-container"">
                    <img src=""semantic_sequence_notimeline/animals_semantic/animals_semantic_3.png"" class=""exp-image"">
                    <div class=""question-area""></div> 
                </div>","null","","","","","","","","","","","",""
"","","","","","html-button-response","85","282632","0.0-85.0","530515F3F3F44A0CB00ED37C46A247E4","019d6b48-b107-7a99-9a59-392c6f6d8edd","019d6b28-084c-76dd-a1cb-5ac041bdee9a","","812","
                <div class=""stimulus-container"">
                    <img src=""semantic_sequence_notimeline/animals_semantic/animals_semantic_3.png"" class=""exp-image"">
                    <div class=""question-area"">
                        <p style=""font-size: 20px; font-weight: bold; margin: 0;"">Is there a person in this image?</p>
                    </div>
                </div>","1","main_experiment_trial","3","animals_semantic","semantic_sequence_notimeline","chronological","","","","","","",""
"","","","","","html-keyboard-response","86","287634","0.0-86.0","530515F3F3F44A0CB00ED37C46A247E4","019d6b48-b107-7a99-9a59-392c6f6d8edd","019d6b28-084c-76dd-a1cb-5ac041bdee9a","","null","
                <div class=""stimulus-container"">
                    <img src=""semantic_sequence_notimeline/animals_semantic/animals_semantic_4.png"" class=""exp-image"">
                    <div class=""question-area""></div> 
                </div>","null","","","","","","","","","","","",""
"","","","","","html-button-response","87","288182","0.0-87.0","530515F3F3F44A0CB00ED37C46A247E4","019d6b48-b107-7a99-9a59-392c6f6d8edd","019d6b28-084c-76dd-a1cb-5ac041bdee9a","","547","
                <div class=""stimulus-container"">
                    <img src=""semantic_sequence_notimeline/animals_semantic/animals_semantic_4.png"" class=""exp-image"">
                    <div class=""question-area"">
                        <p style=""font-size: 20px; font-weight: bold; margin: 0;"">Is there a person in this image?</p>
                    </div>
                </div>","1","main_experiment_trial","4","animals_semantic","semantic_sequence_notimeline","chronological","","","","","","",""
"","","","","","html-keyboard-response","88","293185","0.0-88.0","530515F3F3F44A0CB00ED37C46A247E4","019d6b48-b107-7a99-9a59-392c6f6d8edd","019d6b28-084c-76dd-a1cb-5ac041bdee9a","","null","
                <div class=""stimulus-container"">
                    <img src=""semantic_sequence_notimeline/animals_semantic/animals_semantic_5.png"" class=""exp-image"">
                    <div class=""question-area""></div> 
                </div>","null","","","","","","","","","","","",""
"","","","","","html-button-response","89","294149","0.0-89.0","530515F3F3F44A0CB00ED37C46A247E4","019d6b48-b107-7a99-9a59-392c6f6d8edd","019d6b28-084c-76dd-a1cb-5ac041bdee9a","","962","
                <div class=""stimulus-container"">
                    <img src=""semantic_sequence_notimeline/animals_semantic/animals_semantic_5.png"" class=""exp-image"">
                    <div class=""question-area"">
                        <p style=""font-size: 20px; font-weight: bold; margin: 0;"">Is there a person in this image?</p>
                    </div>
                </div>","1","main_experiment_trial","5","animals_semantic","semantic_sequence_notimeline","chronological","","","","","","",""
"","","","","","html-keyboard-response","90","299151","0.0-90.0","530515F3F3F44A0CB00ED37C46A247E4","019d6b48-b107-7a99-9a59-392c6f6d8edd","019d6b28-084c-76dd-a1cb-5ac041bdee9a","","null","
                <div class=""stimulus-container"">
                    <img src=""semantic_sequence_notimeline/animals_semantic/animals_semantic_6.png"" class=""exp-image"">
                    <div class=""question-area""></div> 
                </div>","null","","","","","","","","","","","",""
"","","","","","html-button-response","91","299715","0.0-91.0","530515F3F3F44A0CB00ED37C46A247E4","019d6b48-b107-7a99-9a59-392c6f6d8edd","019d6b28-084c-76dd-a1cb-5ac041bdee9a","","562","
                <div class=""stimulus-container"">
                    <img src=""semantic_sequence_notimeline/animals_semantic/animals_semantic_6.png"" class=""exp-image"">
                    <div class=""question-area"">
                        <p style=""font-size: 20px; font-weight: bold; margin: 0;"">Is there a person in this image?</p>
                    </div>
                </div>","1","main_experiment_trial","6","animals_semantic","semantic_sequence_notimeline","chronological","","","","","","",""
"","","","","","html-keyboard-response","92","304717","0.0-92.0","530515F3F3F44A0CB00ED37C46A247E4","019d6b48-b107-7a99-9a59-392c6f6d8edd","019d6b28-084c-76dd-a1cb-5ac041bdee9a","","null","
                <div class=""stimulus-container"">
                    <img src=""semantic_sequence_notimeline/animals_semantic/animals_semantic_7.png"" class=""exp-image"">
                    <div class=""question-area""></div> 
                </div>","null","","","","","","","","","","","",""
"","","","","","html-button-response","93","305349","0.0-93.0","530515F3F3F44A0CB00ED37C46A247E4","019d6b48-b107-7a99-9a59-392c6f6d8edd","019d6b28-084c-76dd-a1cb-5ac041bdee9a","","630","
                <div class=""stimulus-container"">
                    <img src=""semantic_sequence_notimeline/animals_semantic/animals_semantic_7.png"" class=""exp-image"">
                    <div class=""question-area"">
                        <p style=""font-size: 20px; font-weight: bold; margin: 0;"">Is there a person in this image?</p>
                    </div>
                </div>","1","main_experiment_trial","7","animals_semantic","semantic_sequence_notimeline","chronological","","","","","","",""
"","","","","","html-keyboard-response","94","310351","0.0-94.0","530515F3F3F44A0CB00ED37C46A247E4","019d6b48-b107-7a99-9a59-392c6f6d8edd","019d6b28-084c-76dd-a1cb-5ac041bdee9a","","null","
                <div class=""stimulus-container"">
                    <img src=""semantic_sequence_notimeline/animals_semantic/animals_semantic_8.png"" class=""exp-image"">
                    <div class=""question-area""></div> 
                </div>","null","","","","","","","","","","","",""
"","","","","","html-button-response","95","310798","0.0-95.0","530515F3F3F44A0CB00ED37C46A247E4","019d6b48-b107-7a99-9a59-392c6f6d8edd","019d6b28-084c-76dd-a1cb-5ac041bdee9a","","446","
                <div class=""stimulus-container"">
                    <img src=""semantic_sequence_notimeline/animals_semantic/animals_semantic_8.png"" class=""exp-image"">
                    <div class=""question-area"">
                        <p style=""font-size: 20px; font-weight: bold; margin: 0;"">Is there a person in this image?</p>
                    </div>
                </div>","1","main_experiment_trial","8","animals_semantic","semantic_sequence_notimeline","chronological","","","","","","",""
"","","","","","html-keyboard-response","96","315801","0.0-96.0","530515F3F3F44A0CB00ED37C46A247E4","019d6b48-b107-7a99-9a59-392c6f6d8edd","019d6b28-084c-76dd-a1cb-5ac041bdee9a","","null","
                <div class=""stimulus-container"">
                    <img src=""semantic_sequence_notimeline/animals_semantic/animals_semantic_9.png"" class=""exp-image"">
                    <div class=""question-area""></div> 
                </div>","null","","","","","","","","","","","",""
"","","","","","html-button-response","97","316432","0.0-97.0","530515F3F3F44A0CB00ED37C46A247E4","019d6b48-b107-7a99-9a59-392c6f6d8edd","019d6b28-084c-76dd-a1cb-5ac041bdee9a","","629","
                <div class=""stimulus-container"">
                    <img src=""semantic_sequence_notimeline/animals_semantic/animals_semantic_9.png"" class=""exp-image"">
                    <div class=""question-area"">
                        <p style=""font-size: 20px; font-weight: bold; margin: 0;"">Is there a person in this image?</p>
                    </div>
                </div>","1","main_experiment_trial","9","animals_semantic","semantic_sequence_notimeline","chronological","","","","","","",""
"","","","","","html-keyboard-response","98","321434","0.0-98.0","530515F3F3F44A0CB00ED37C46A247E4","019d6b48-b107-7a99-9a59-392c6f6d8edd","019d6b28-084c-76dd-a1cb-5ac041bdee9a","","null","
                <div class=""stimulus-container"">
                    <img src=""semantic_sequence_notimeline/animals_semantic/animals_semantic_ten.png"" class=""exp-image"">
                    <div class=""question-area""></div> 
                </div>","null","","","","","","","","","","","",""
"","","","","","html-button-response","99","322049","0.0-99.0","530515F3F3F44A0CB00ED37C46A247E4","019d6b48-b107-7a99-9a59-392c6f6d8edd","019d6b28-084c-76dd-a1cb-5ac041bdee9a","","613","
                <div class=""stimulus-container"">
                    <img src=""semantic_sequence_notimeline/animals_semantic/animals_semantic_ten.png"" class=""exp-image"">
                    <div class=""question-area"">
                        <p style=""font-size: 20px; font-weight: bold; margin: 0;"">Is there a person in this image?</p>
                    </div>
                </div>","1","main_experiment_trial","ten","animals_semantic","semantic_sequence_notimeline","chronological","","","","","","",""
"","","","","","html-keyboard-response","100","327052","0.0-100.0","530515F3F3F44A0CB00ED37C46A247E4","019d6b48-b107-7a99-9a59-392c6f6d8edd","019d6b28-084c-76dd-a1cb-5ac041bdee9a","","null","<div style=""background-color: white; width: 100vw; height: 100vh;""></div>","null","","","","","","","","","","","",""
"","","","","","html-keyboard-response","101","332055","0.0-101.0","530515F3F3F44A0CB00ED37C46A247E4","019d6b48-b107-7a99-9a59-392c6f6d8edd","019d6b28-084c-76dd-a1cb-5ac041bdee9a","","null","
                <div class=""stimulus-container"">
                    <img src=""semantic_sequence_notimeline/fruits_semantic/fruits_semantic_1.png"" class=""exp-image"">
                    <div class=""question-area""></div> 
                </div>","null","","","","","","","","","","","",""
"","","","","","html-button-response","102","332882","0.0-102.0","530515F3F3F44A0CB00ED37C46A247E4","019d6b48-b107-7a99-9a59-392c6f6d8edd","019d6b28-084c-76dd-a1cb-5ac041bdee9a","","826","
                <div class=""stimulus-container"">
                    <img src=""semantic_sequence_notimeline/fruits_semantic/fruits_semantic_1.png"" class=""exp-image"">
                    <div class=""question-area"">
                        <p style=""font-size: 20px; font-weight: bold; margin: 0;"">Is there a person in this image?</p>
                    </div>
                </div>","1","main_experiment_trial","1","fruits_semantic","semantic_sequence_notimeline","chronological","","","","","","",""
"","","","","","html-keyboard-response","103","337884","0.0-103.0","530515F3F3F44A0CB00ED37C46A247E4","019d6b48-b107-7a99-9a59-392c6f6d8edd","019d6b28-084c-76dd-a1cb-5ac041bdee9a","","null","
                <div class=""stimulus-container"">
                    <img src=""semantic_sequence_notimeline/fruits_semantic/fruits_semantic_2.png"" class=""exp-image"">
                    <div class=""question-area""></div> 
                </div>","null","","","","","","","","","","","",""
"","","","","","html-button-response","104","338783","0.0-104.0","530515F3F3F44A0CB00ED37C46A247E4","019d6b48-b107-7a99-9a59-392c6f6d8edd","019d6b28-084c-76dd-a1cb-5ac041bdee9a","","898","
                <div class=""stimulus-container"">
                    <img src=""semantic_sequence_notimeline/fruits_semantic/fruits_semantic_2.png"" class=""exp-image"">
                    <div class=""question-area"">
                        <p style=""font-size: 20px; font-weight: bold; margin: 0;"">Is there a person in this image?</p>
                    </div>
                </div>","1","main_experiment_trial","2","fruits_semantic","semantic_sequence_notimeline","chronological","","","","","","",""
"","","","","","html-keyboard-response","105","343786","0.0-105.0","530515F3F3F44A0CB00ED37C46A247E4","019d6b48-b107-7a99-9a59-392c6f6d8edd","019d6b28-084c-76dd-a1cb-5ac041bdee9a","","null","
                <div class=""stimulus-container"">
                    <img src=""semantic_sequence_notimeline/fruits_semantic/fruits_semantic_3.png"" class=""exp-image"">
                    <div class=""question-area""></div> 
                </div>","null","","","","","","","","","","","",""
"","","","","","html-button-response","106","344715","0.0-106.0","530515F3F3F44A0CB00ED37C46A247E4","019d6b48-b107-7a99-9a59-392c6f6d8edd","019d6b28-084c-76dd-a1cb-5ac041bdee9a","","928","
                <div class=""stimulus-container"">
                    <img src=""semantic_sequence_notimeline/fruits_semantic/fruits_semantic_3.png"" class=""exp-image"">
                    <div class=""question-area"">
                        <p style=""font-size: 20px; font-weight: bold; margin: 0;"">Is there a person in this image?</p>
                    </div>
                </div>","1","main_experiment_trial","3","fruits_semantic","semantic_sequence_notimeline","chronological","","","","","","",""
"","","","","","html-keyboard-response","107","349717","0.0-107.0","530515F3F3F44A0CB00ED37C46A247E4","019d6b48-b107-7a99-9a59-392c6f6d8edd","019d6b28-084c-76dd-a1cb-5ac041bdee9a","","null","
                <div class=""stimulus-container"">
                    <img src=""semantic_sequence_notimeline/fruits_semantic/fruits_semantic_4.png"" class=""exp-image"">
                    <div class=""question-area""></div> 
                </div>","null","","","","","","","","","","","",""
"","","","","","html-button-response","108","351282","0.0-108.0","530515F3F3F44A0CB00ED37C46A247E4","019d6b48-b107-7a99-9a59-392c6f6d8edd","019d6b28-084c-76dd-a1cb-5ac041bdee9a","","1564","
                <div class=""stimulus-container"">
                    <img src=""semantic_sequence_notimeline/fruits_semantic/fruits_semantic_4.png"" class=""exp-image"">
                    <div class=""question-area"">
                        <p style=""font-size: 20px; font-weight: bold; margin: 0;"">Is there a person in this image?</p>
                    </div>
                </div>","1","main_experiment_trial","4","fruits_semantic","semantic_sequence_notimeline","chronological","","","","","","",""
"","","","","","html-keyboard-response","109","356285","0.0-109.0","530515F3F3F44A0CB00ED37C46A247E4","019d6b48-b107-7a99-9a59-392c6f6d8edd","019d6b28-084c-76dd-a1cb-5ac041bdee9a","","null","
                <div class=""stimulus-container"">
                    <img src=""semantic_sequence_notimeline/fruits_semantic/fruits_semantic_5.png"" class=""exp-image"">
                    <div class=""question-area""></div> 
                </div>","null","","","","","","","","","","","",""
"","","","","","html-button-response","110","357249","0.0-110.0","530515F3F3F44A0CB00ED37C46A247E4","019d6b48-b107-7a99-9a59-392c6f6d8edd","019d6b28-084c-76dd-a1cb-5ac041bdee9a","","963","
                <div class=""stimulus-container"">
                    <img src=""semantic_sequence_notimeline/fruits_semantic/fruits_semantic_5.png"" class=""exp-image"">
                    <div class=""question-area"">
                        <p style=""font-size: 20px; font-weight: bold; margin: 0;"">Is there a person in this image?</p>
                    </div>
                </div>","1","main_experiment_trial","5","fruits_semantic","semantic_sequence_notimeline","chronological","","","","","","",""
"","","","","","html-keyboard-response","111","362252","0.0-111.0","530515F3F3F44A0CB00ED37C46A247E4","019d6b48-b107-7a99-9a59-392c6f6d8edd","019d6b28-084c-76dd-a1cb-5ac041bdee9a","","null","
                <div class=""stimulus-container"">
                    <img src=""semantic_sequence_notimeline/fruits_semantic/fruits_semantic_6.png"" class=""exp-image"">
                    <div class=""question-area""></div> 
                </div>","null","","","","","","","","","","","",""
"","","","","","html-button-response","112","362665","0.0-112.0","530515F3F3F44A0CB00ED37C46A247E4","019d6b48-b107-7a99-9a59-392c6f6d8edd","019d6b28-084c-76dd-a1cb-5ac041bdee9a","","412","
                <div class=""stimulus-container"">
                    <img src=""semantic_sequence_notimeline/fruits_semantic/fruits_semantic_6.png"" class=""exp-image"">
                    <div class=""question-area"">
                        <p style=""font-size: 20px; font-weight: bold; margin: 0;"">Is there a person in this image?</p>
                    </div>
                </div>","1","main_experiment_trial","6","fruits_semantic","semantic_sequence_notimeline","chronological","","","","","","",""
"","","","","","html-keyboard-response","113","367668","0.0-113.0","530515F3F3F44A0CB00ED37C46A247E4","019d6b48-b107-7a99-9a59-392c6f6d8edd","019d6b28-084c-76dd-a1cb-5ac041bdee9a","","null","
                <div class=""stimulus-container"">
                    <img src=""semantic_sequence_notimeline/fruits_semantic/fruits_semantic_7.png"" class=""exp-image"">
                    <div class=""question-area""></div> 
                </div>","null","","","","","","","","","","","",""
"","","","","","html-button-response","114","368099","0.0-114.0","530515F3F3F44A0CB00ED37C46A247E4","019d6b48-b107-7a99-9a59-392c6f6d8edd","019d6b28-084c-76dd-a1cb-5ac041bdee9a","","430","
                <div class=""stimulus-container"">
                    <img src=""semantic_sequence_notimeline/fruits_semantic/fruits_semantic_7.png"" class=""exp-image"">
                    <div class=""question-area"">
                        <p style=""font-size: 20px; font-weight: bold; margin: 0;"">Is there a person in this image?</p>
                    </div>
                </div>","1","main_experiment_trial","7","fruits_semantic","semantic_sequence_notimeline","chronological","","","","","","",""
"","","","","","html-keyboard-response","115","373102","0.0-115.0","530515F3F3F44A0CB00ED37C46A247E4","019d6b48-b107-7a99-9a59-392c6f6d8edd","019d6b28-084c-76dd-a1cb-5ac041bdee9a","","null","
                <div class=""stimulus-container"">
                    <img src=""semantic_sequence_notimeline/fruits_semantic/fruits_semantic_8.png"" class=""exp-image"">
                    <div class=""question-area""></div> 
                </div>","null","","","","","","","","","","","",""
"","","","","","html-button-response","116","374483","0.0-116.0","530515F3F3F44A0CB00ED37C46A247E4","019d6b48-b107-7a99-9a59-392c6f6d8edd","019d6b28-084c-76dd-a1cb-5ac041bdee9a","","1379","
                <div class=""stimulus-container"">
                    <img src=""semantic_sequence_notimeline/fruits_semantic/fruits_semantic_8.png"" class=""exp-image"">
                    <div class=""question-area"">
                        <p style=""font-size: 20px; font-weight: bold; margin: 0;"">Is there a person in this image?</p>
                    </div>
                </div>","1","main_experiment_trial","8","fruits_semantic","semantic_sequence_notimeline","chronological","","","","","","",""
"","","","","","html-keyboard-response","117","379485","0.0-117.0","530515F3F3F44A0CB00ED37C46A247E4","019d6b48-b107-7a99-9a59-392c6f6d8edd","019d6b28-084c-76dd-a1cb-5ac041bdee9a","","null","
                <div class=""stimulus-container"">
                    <img src=""semantic_sequence_notimeline/fruits_semantic/fruits_semantic_9.png"" class=""exp-image"">
                    <div class=""question-area""></div> 
                </div>","null","","","","","","","","","","","",""
"","","","","","html-button-response","118","380299","0.0-118.0","530515F3F3F44A0CB00ED37C46A247E4","019d6b48-b107-7a99-9a59-392c6f6d8edd","019d6b28-084c-76dd-a1cb-5ac041bdee9a","","812","
                <div class=""stimulus-container"">
                    <img src=""semantic_sequence_notimeline/fruits_semantic/fruits_semantic_9.png"" class=""exp-image"">
                    <div class=""question-area"">
                        <p style=""font-size: 20px; font-weight: bold; margin: 0;"">Is there a person in this image?</p>
                    </div>
                </div>","1","main_experiment_trial","9","fruits_semantic","semantic_sequence_notimeline","chronological","","","","","","",""
"","","","","","html-keyboard-response","119","385302","0.0-119.0","530515F3F3F44A0CB00ED37C46A247E4","019d6b48-b107-7a99-9a59-392c6f6d8edd","019d6b28-084c-76dd-a1cb-5ac041bdee9a","","null","
                <div class=""stimulus-container"">
                    <img src=""semantic_sequence_notimeline/fruits_semantic/fruits_semantic_ten.png"" class=""exp-image"">
                    <div class=""question-area""></div> 
                </div>","null","","","","","","","","","","","",""
"","","","","","html-button-response","120","386449","0.0-120.0","530515F3F3F44A0CB00ED37C46A247E4","019d6b48-b107-7a99-9a59-392c6f6d8edd","019d6b28-084c-76dd-a1cb-5ac041bdee9a","","1146","
                <div class=""stimulus-container"">
                    <img src=""semantic_sequence_notimeline/fruits_semantic/fruits_semantic_ten.png"" class=""exp-image"">
                    <div class=""question-area"">
                        <p style=""font-size: 20px; font-weight: bold; margin: 0;"">Is there a person in this image?</p>
                    </div>
                </div>","1","main_experiment_trial","ten","fruits_semantic","semantic_sequence_notimeline","chronological","","","","","","",""
"","","","","","html-keyboard-response","121","391451","0.0-121.0","530515F3F3F44A0CB00ED37C46A247E4","019d6b48-b107-7a99-9a59-392c6f6d8edd","019d6b28-084c-76dd-a1cb-5ac041bdee9a","","null","<div style=""background-color: white; width: 100vw; height: 100vh;""></div>","null","","","","","","","","","","","",""
"","","","","","html-keyboard-response","122","396454","0.0-122.0","530515F3F3F44A0CB00ED37C46A247E4","019d6b48-b107-7a99-9a59-392c6f6d8edd","019d6b28-084c-76dd-a1cb-5ac041bdee9a","","null","
                <div class=""stimulus-container"">
                    <img src=""images/causal_sequence/the_performance_causal/the_performance_causal_1.png"" class=""exp-image"">
                    <div class=""question-area""></div> 
                </div>","null","","","","","","","","","","","",""
"","","","","","html-button-response","123","397365","0.0-123.0","530515F3F3F44A0CB00ED37C46A247E4","019d6b48-b107-7a99-9a59-392c6f6d8edd","019d6b28-084c-76dd-a1cb-5ac041bdee9a","","909","
                <div class=""stimulus-container"">
                    <img src=""images/causal_sequence/the_performance_causal/the_performance_causal_1.png"" class=""exp-image"">
                    <div class=""question-area"">
                        <p style=""font-size: 20px; font-weight: bold; margin: 0;"">Is there a person in this image?</p>
                    </div>
                </div>","0","main_experiment_trial","1","the_performance_causal","causal_sequence","chronological","","","","","","",""
"","","","","","html-keyboard-response","124","402368","0.0-124.0","530515F3F3F44A0CB00ED37C46A247E4","019d6b48-b107-7a99-9a59-392c6f6d8edd","019d6b28-084c-76dd-a1cb-5ac041bdee9a","","null","
                <div class=""stimulus-container"">
                    <img src=""images/causal_sequence/the_performance_causal/the_performance_causal_2.png"" class=""exp-image"">
                    <div class=""question-area""></div> 
                </div>","null","","","","","","","","","","","",""
"","","","","","html-button-response","125","402800","0.0-125.0","530515F3F3F44A0CB00ED37C46A247E4","019d6b48-b107-7a99-9a59-392c6f6d8edd","019d6b28-084c-76dd-a1cb-5ac041bdee9a","","430","
                <div class=""stimulus-container"">
                    <img src=""images/causal_sequence/the_performance_causal/the_performance_causal_2.png"" class=""exp-image"">
                    <div class=""question-area"">
                        <p style=""font-size: 20px; font-weight: bold; margin: 0;"">Is there a person in this image?</p>
                    </div>
                </div>","0","main_experiment_trial","2","the_performance_causal","causal_sequence","chronological","","","","","","",""
"","","","","","html-keyboard-response","126","407802","0.0-126.0","530515F3F3F44A0CB00ED37C46A247E4","019d6b48-b107-7a99-9a59-392c6f6d8edd","019d6b28-084c-76dd-a1cb-5ac041bdee9a","","null","
                <div class=""stimulus-container"">
                    <img src=""images/causal_sequence/the_performance_causal/the_performance_causal_3.png"" class=""exp-image"">
                    <div class=""question-area""></div> 
                </div>","null","","","","","","","","","","","",""
"","","","","","html-button-response","127","408249","0.0-127.0","530515F3F3F44A0CB00ED37C46A247E4","019d6b48-b107-7a99-9a59-392c6f6d8edd","019d6b28-084c-76dd-a1cb-5ac041bdee9a","","445","
                <div class=""stimulus-container"">
                    <img src=""images/causal_sequence/the_performance_causal/the_performance_causal_3.png"" class=""exp-image"">
                    <div class=""question-area"">
                        <p style=""font-size: 20px; font-weight: bold; margin: 0;"">Is there a person in this image?</p>
                    </div>
                </div>","0","main_experiment_trial","3","the_performance_causal","causal_sequence","chronological","","","","","","",""
"","","","","","html-keyboard-response","128","413251","0.0-128.0","530515F3F3F44A0CB00ED37C46A247E4","019d6b48-b107-7a99-9a59-392c6f6d8edd","019d6b28-084c-76dd-a1cb-5ac041bdee9a","","null","
                <div class=""stimulus-container"">
                    <img src=""images/causal_sequence/the_performance_causal/the_performance_causal_4.png"" class=""exp-image"">
                    <div class=""question-area""></div> 
                </div>","null","","","","","","","","","","","",""
"","","","","","html-button-response","129","413932","0.0-129.0","530515F3F3F44A0CB00ED37C46A247E4","019d6b48-b107-7a99-9a59-392c6f6d8edd","019d6b28-084c-76dd-a1cb-5ac041bdee9a","","679","
                <div class=""stimulus-container"">
                    <img src=""images/causal_sequence/the_performance_causal/the_performance_causal_4.png"" class=""exp-image"">
                    <div class=""question-area"">
                        <p style=""font-size: 20px; font-weight: bold; margin: 0;"">Is there a person in this image?</p>
                    </div>
                </div>","0","main_experiment_trial","4","the_performance_causal","causal_sequence","chronological","","","","","","",""
"","","","","","html-keyboard-response","130","418933","0.0-130.0","530515F3F3F44A0CB00ED37C46A247E4","019d6b48-b107-7a99-9a59-392c6f6d8edd","019d6b28-084c-76dd-a1cb-5ac041bdee9a","","null","
                <div class=""stimulus-container"">
                    <img src=""images/causal_sequence/the_performance_causal/the_performance_causal_5.png"" class=""exp-image"">
                    <div class=""question-area""></div> 
                </div>","null","","","","","","","","","","","",""
"","","","","","html-button-response","131","419683","0.0-131.0","530515F3F3F44A0CB00ED37C46A247E4","019d6b48-b107-7a99-9a59-392c6f6d8edd","019d6b28-084c-76dd-a1cb-5ac041bdee9a","","748","
                <div class=""stimulus-container"">
                    <img src=""images/causal_sequence/the_performance_causal/the_performance_causal_5.png"" class=""exp-image"">
                    <div class=""question-area"">
                        <p style=""font-size: 20px; font-weight: bold; margin: 0;"">Is there a person in this image?</p>
                    </div>
                </div>","0","main_experiment_trial","5","the_performance_causal","causal_sequence","chronological","","","","","","",""
"","","","","","html-keyboard-response","132","424685","0.0-132.0","530515F3F3F44A0CB00ED37C46A247E4","019d6b48-b107-7a99-9a59-392c6f6d8edd","019d6b28-084c-76dd-a1cb-5ac041bdee9a","","null","
                <div class=""stimulus-container"">
                    <img src=""images/causal_sequence/the_performance_causal/the_performance_causal_6.png"" class=""exp-image"">
                    <div class=""question-area""></div> 
                </div>","null","","","","","","","","","","","",""
"","","","","","html-button-response","133","425133","0.0-133.0","530515F3F3F44A0CB00ED37C46A247E4","019d6b48-b107-7a99-9a59-392c6f6d8edd","019d6b28-084c-76dd-a1cb-5ac041bdee9a","","446","
                <div class=""stimulus-container"">
                    <img src=""images/causal_sequence/the_performance_causal/the_performance_causal_6.png"" class=""exp-image"">
                    <div class=""question-area"">
                        <p style=""font-size: 20px; font-weight: bold; margin: 0;"">Is there a person in this image?</p>
                    </div>
                </div>","0","main_experiment_trial","6","the_performance_causal","causal_sequence","chronological","","","","","","",""
"","","","","","html-keyboard-response","134","430135","0.0-134.0","530515F3F3F44A0CB00ED37C46A247E4","019d6b48-b107-7a99-9a59-392c6f6d8edd","019d6b28-084c-76dd-a1cb-5ac041bdee9a","","null","
                <div class=""stimulus-container"">
                    <img src=""images/causal_sequence/the_performance_causal/the_performance_causal_7.png"" class=""exp-image"">
                    <div class=""question-area""></div> 
                </div>","null","","","","","","","","","","","",""
"","","","","","html-button-response","135","430866","0.0-135.0","530515F3F3F44A0CB00ED37C46A247E4","019d6b48-b107-7a99-9a59-392c6f6d8edd","019d6b28-084c-76dd-a1cb-5ac041bdee9a","","729","
                <div class=""stimulus-container"">
                    <img src=""images/causal_sequence/the_performance_causal/the_performance_causal_7.png"" class=""exp-image"">
                    <div class=""question-area"">
                        <p style=""font-size: 20px; font-weight: bold; margin: 0;"">Is there a person in this image?</p>
                    </div>
                </div>","0","main_experiment_trial","7","the_performance_causal","causal_sequence","chronological","","","","","","",""
"","","","","","html-keyboard-response","136","435868","0.0-136.0","530515F3F3F44A0CB00ED37C46A247E4","019d6b48-b107-7a99-9a59-392c6f6d8edd","019d6b28-084c-76dd-a1cb-5ac041bdee9a","","null","
                <div class=""stimulus-container"">
                    <img src=""images/causal_sequence/the_performance_causal/the_performance_causal_8.png"" class=""exp-image"">
                    <div class=""question-area""></div> 
                </div>","null","","","","","","","","","","","",""
"","","","","","html-button-response","137","436633","0.0-137.0","530515F3F3F44A0CB00ED37C46A247E4","019d6b48-b107-7a99-9a59-392c6f6d8edd","019d6b28-084c-76dd-a1cb-5ac041bdee9a","","763","
                <div class=""stimulus-container"">
                    <img src=""images/causal_sequence/the_performance_causal/the_performance_causal_8.png"" class=""exp-image"">
                    <div class=""question-area"">
                        <p style=""font-size: 20px; font-weight: bold; margin: 0;"">Is there a person in this image?</p>
                    </div>
                </div>","0","main_experiment_trial","8","the_performance_causal","causal_sequence","chronological","","","","","","",""
"","","","","","html-keyboard-response","138","441635","0.0-138.0","530515F3F3F44A0CB00ED37C46A247E4","019d6b48-b107-7a99-9a59-392c6f6d8edd","019d6b28-084c-76dd-a1cb-5ac041bdee9a","","null","
                <div class=""stimulus-container"">
                    <img src=""images/causal_sequence/the_performance_causal/the_performance_causal_9.png"" class=""exp-image"">
                    <div class=""question-area""></div> 
                </div>","null","","","","","","","","","","","",""
"","","","","","html-button-response","139","442815","0.0-139.0","530515F3F3F44A0CB00ED37C46A247E4","019d6b48-b107-7a99-9a59-392c6f6d8edd","019d6b28-084c-76dd-a1cb-5ac041bdee9a","","1179","
                <div class=""stimulus-container"">
                    <img src=""images/causal_sequence/the_performance_causal/the_performance_causal_9.png"" class=""exp-image"">
                    <div class=""question-area"">
                        <p style=""font-size: 20px; font-weight: bold; margin: 0;"">Is there a person in this image?</p>
                    </div>
                </div>","0","main_experiment_trial","9","the_performance_causal","causal_sequence","chronological","","","","","","",""
"","","","","","html-keyboard-response","140","447817","0.0-140.0","530515F3F3F44A0CB00ED37C46A247E4","019d6b48-b107-7a99-9a59-392c6f6d8edd","019d6b28-084c-76dd-a1cb-5ac041bdee9a","","null","
                <div class=""stimulus-container"">
                    <img src=""images/causal_sequence/the_performance_causal/the_performance_causal_ten.png"" class=""exp-image"">
                    <div class=""question-area""></div> 
                </div>","null","","","","","","","","","","","",""
"","","","","","html-button-response","141","448465","0.0-141.0","530515F3F3F44A0CB00ED37C46A247E4","019d6b48-b107-7a99-9a59-392c6f6d8edd","019d6b28-084c-76dd-a1cb-5ac041bdee9a","","647","
                <div class=""stimulus-container"">
                    <img src=""images/causal_sequence/the_performance_causal/the_performance_causal_ten.png"" class=""exp-image"">
                    <div class=""question-area"">
                        <p style=""font-size: 20px; font-weight: bold; margin: 0;"">Is there a person in this image?</p>
                    </div>
                </div>","0","main_experiment_trial","ten","the_performance_causal","causal_sequence","chronological","","","","","","",""
"","","","","","html-keyboard-response","142","453467","0.0-142.0","530515F3F3F44A0CB00ED37C46A247E4","019d6b48-b107-7a99-9a59-392c6f6d8edd","019d6b28-084c-76dd-a1cb-5ac041bdee9a","","null","<div style=""background-color: white; width: 100vw; height: 100vh;""></div>","null","","","","","","","","","","","",""
"","","","","","html-keyboard-response","143","458470","0.0-143.0","530515F3F3F44A0CB00ED37C46A247E4","019d6b48-b107-7a99-9a59-392c6f6d8edd","019d6b28-084c-76dd-a1cb-5ac041bdee9a","","null","
                <div class=""stimulus-container"">
                    <img src=""semantic_sequence_notimeline/clothing_semantic/clothing_semantic_1.png"" class=""exp-image"">
                    <div class=""question-area""></div> 
                </div>","null","","","","","","","","","","","",""
"","","","","","html-button-response","144","459382","0.0-144.0","530515F3F3F44A0CB00ED37C46A247E4","019d6b48-b107-7a99-9a59-392c6f6d8edd","019d6b28-084c-76dd-a1cb-5ac041bdee9a","","911","
                <div class=""stimulus-container"">
                    <img src=""semantic_sequence_notimeline/clothing_semantic/clothing_semantic_1.png"" class=""exp-image"">
                    <div class=""question-area"">
                        <p style=""font-size: 20px; font-weight: bold; margin: 0;"">Is there a person in this image?</p>
                    </div>
                </div>","1","main_experiment_trial","1","clothing_semantic","semantic_sequence_notimeline","chronological","","","","","","",""
"","","","","","html-keyboard-response","145","464385","0.0-145.0","530515F3F3F44A0CB00ED37C46A247E4","019d6b48-b107-7a99-9a59-392c6f6d8edd","019d6b28-084c-76dd-a1cb-5ac041bdee9a","","null","
                <div class=""stimulus-container"">
                    <img src=""semantic_sequence_notimeline/clothing_semantic/clothing_semantic_2.png"" class=""exp-image"">
                    <div class=""question-area""></div> 
                </div>","null","","","","","","","","","","","",""
"","","","","","html-button-response","146","464899","0.0-146.0","530515F3F3F44A0CB00ED37C46A247E4","019d6b48-b107-7a99-9a59-392c6f6d8edd","019d6b28-084c-76dd-a1cb-5ac041bdee9a","","513","
                <div class=""stimulus-container"">
                    <img src=""semantic_sequence_notimeline/clothing_semantic/clothing_semantic_2.png"" class=""exp-image"">
                    <div class=""question-area"">
                        <p style=""font-size: 20px; font-weight: bold; margin: 0;"">Is there a person in this image?</p>
                    </div>
                </div>","1","main_experiment_trial","2","clothing_semantic","semantic_sequence_notimeline","chronological","","","","","","",""
"","","","","","html-keyboard-response","147","469902","0.0-147.0","530515F3F3F44A0CB00ED37C46A247E4","019d6b48-b107-7a99-9a59-392c6f6d8edd","019d6b28-084c-76dd-a1cb-5ac041bdee9a","","null","
                <div class=""stimulus-container"">
                    <img src=""semantic_sequence_notimeline/clothing_semantic/clothing_semantic_3.png"" class=""exp-image"">
                    <div class=""question-area""></div> 
                </div>","null","","","","","","","","","","","",""
"","","","","","html-button-response","148","470332","0.0-148.0","530515F3F3F44A0CB00ED37C46A247E4","019d6b48-b107-7a99-9a59-392c6f6d8edd","019d6b28-084c-76dd-a1cb-5ac041bdee9a","","429","
                <div class=""stimulus-container"">
                    <img src=""semantic_sequence_notimeline/clothing_semantic/clothing_semantic_3.png"" class=""exp-image"">
                    <div class=""question-area"">
                        <p style=""font-size: 20px; font-weight: bold; margin: 0;"">Is there a person in this image?</p>
                    </div>
                </div>","1","main_experiment_trial","3","clothing_semantic","semantic_sequence_notimeline","chronological","","","","","","",""
"","","","","","html-keyboard-response","149","475335","0.0-149.0","530515F3F3F44A0CB00ED37C46A247E4","019d6b48-b107-7a99-9a59-392c6f6d8edd","019d6b28-084c-76dd-a1cb-5ac041bdee9a","","null","
                <div class=""stimulus-container"">
                    <img src=""semantic_sequence_notimeline/clothing_semantic/clothing_semantic_4.png"" class=""exp-image"">
                    <div class=""question-area""></div> 
                </div>","null","","","","","","","","","","","",""
"","","","","","html-button-response","150","476765","0.0-150.0","530515F3F3F44A0CB00ED37C46A247E4","019d6b48-b107-7a99-9a59-392c6f6d8edd","019d6b28-084c-76dd-a1cb-5ac041bdee9a","","1429","
                <div class=""stimulus-container"">
                    <img src=""semantic_sequence_notimeline/clothing_semantic/clothing_semantic_4.png"" class=""exp-image"">
                    <div class=""question-area"">
                        <p style=""font-size: 20px; font-weight: bold; margin: 0;"">Is there a person in this image?</p>
                    </div>
                </div>","1","main_experiment_trial","4","clothing_semantic","semantic_sequence_notimeline","chronological","","","","","","",""
"","","","","","html-keyboard-response","151","481767","0.0-151.0","530515F3F3F44A0CB00ED37C46A247E4","019d6b48-b107-7a99-9a59-392c6f6d8edd","019d6b28-084c-76dd-a1cb-5ac041bdee9a","","null","
                <div class=""stimulus-container"">
                    <img src=""semantic_sequence_notimeline/clothing_semantic/clothing_semantic_5.png"" class=""exp-image"">
                    <div class=""question-area""></div> 
                </div>","null","","","","","","","","","","","",""
"","","","","","html-button-response","152","482616","0.0-152.0","530515F3F3F44A0CB00ED37C46A247E4","019d6b48-b107-7a99-9a59-392c6f6d8edd","019d6b28-084c-76dd-a1cb-5ac041bdee9a","","848","
                <div class=""stimulus-container"">
                    <img src=""semantic_sequence_notimeline/clothing_semantic/clothing_semantic_5.png"" class=""exp-image"">
                    <div class=""question-area"">
                        <p style=""font-size: 20px; font-weight: bold; margin: 0;"">Is there a person in this image?</p>
                    </div>
                </div>","1","main_experiment_trial","5","clothing_semantic","semantic_sequence_notimeline","chronological","","","","","","",""
"","","","","","html-keyboard-response","153","487618","0.0-153.0","530515F3F3F44A0CB00ED37C46A247E4","019d6b48-b107-7a99-9a59-392c6f6d8edd","019d6b28-084c-76dd-a1cb-5ac041bdee9a","","null","
                <div class=""stimulus-container"">
                    <img src=""semantic_sequence_notimeline/clothing_semantic/clothing_semantic_6.png"" class=""exp-image"">
                    <div class=""question-area""></div> 
                </div>","null","","","","","","","","","","","",""
"","","","","","html-button-response","154","490620","0.0-154.0","530515F3F3F44A0CB00ED37C46A247E4","019d6b48-b107-7a99-9a59-392c6f6d8edd","019d6b28-084c-76dd-a1cb-5ac041bdee9a","","null","
                <div class=""stimulus-container"">
                    <img src=""semantic_sequence_notimeline/clothing_semantic/clothing_semantic_6.png"" class=""exp-image"">
                    <div class=""question-area"">
                        <p style=""font-size: 20px; font-weight: bold; margin: 0;"">Is there a person in this image?</p>
                    </div>
                </div>","null","main_experiment_trial","6","clothing_semantic","semantic_sequence_notimeline","chronological","","","","","","",""
"","","","","","html-keyboard-response","155","495623","0.0-155.0","530515F3F3F44A0CB00ED37C46A247E4","019d6b48-b107-7a99-9a59-392c6f6d8edd","019d6b28-084c-76dd-a1cb-5ac041bdee9a","","null","
                <div class=""stimulus-container"">
                    <img src=""semantic_sequence_notimeline/clothing_semantic/clothing_semantic_7.png"" class=""exp-image"">
                    <div class=""question-area""></div> 
                </div>","null","","","","","","","","","","","",""
"","","","","","html-button-response","156","496548","0.0-156.0","530515F3F3F44A0CB00ED37C46A247E4","019d6b48-b107-7a99-9a59-392c6f6d8edd","019d6b28-084c-76dd-a1cb-5ac041bdee9a","","924","
                <div class=""stimulus-container"">
                    <img src=""semantic_sequence_notimeline/clothing_semantic/clothing_semantic_7.png"" class=""exp-image"">
                    <div class=""question-area"">
                        <p style=""font-size: 20px; font-weight: bold; margin: 0;"">Is there a person in this image?</p>
                    </div>
                </div>","1","main_experiment_trial","7","clothing_semantic","semantic_sequence_notimeline","chronological","","","","","","",""
"","","","","","html-keyboard-response","157","501551","0.0-157.0","530515F3F3F44A0CB00ED37C46A247E4","019d6b48-b107-7a99-9a59-392c6f6d8edd","019d6b28-084c-76dd-a1cb-5ac041bdee9a","","null","
                <div class=""stimulus-container"">
                    <img src=""semantic_sequence_notimeline/clothing_semantic/clothing_semantic_8.png"" class=""exp-image"">
                    <div class=""question-area""></div> 
                </div>","null","","","","","","","","","","","",""
"","","","","","html-button-response","158","504449","0.0-158.0","530515F3F3F44A0CB00ED37C46A247E4","019d6b48-b107-7a99-9a59-392c6f6d8edd","019d6b28-084c-76dd-a1cb-5ac041bdee9a","","2896","
                <div class=""stimulus-container"">
                    <img src=""semantic_sequence_notimeline/clothing_semantic/clothing_semantic_8.png"" class=""exp-image"">
                    <div class=""question-area"">
                        <p style=""font-size: 20px; font-weight: bold; margin: 0;"">Is there a person in this image?</p>
                    </div>
                </div>","1","main_experiment_trial","8","clothing_semantic","semantic_sequence_notimeline","chronological","","","","","","",""
"","","","","","html-keyboard-response","159","509452","0.0-159.0","530515F3F3F44A0CB00ED37C46A247E4","019d6b48-b107-7a99-9a59-392c6f6d8edd","019d6b28-084c-76dd-a1cb-5ac041bdee9a","","null","
                <div class=""stimulus-container"">
                    <img src=""semantic_sequence_notimeline/clothing_semantic/clothing_semantic_9.png"" class=""exp-image"">
                    <div class=""question-area""></div> 
                </div>","null","","","","","","","","","","","",""
"","","","","","html-button-response","160","510149","0.0-160.0","530515F3F3F44A0CB00ED37C46A247E4","019d6b48-b107-7a99-9a59-392c6f6d8edd","019d6b28-084c-76dd-a1cb-5ac041bdee9a","","696","
                <div class=""stimulus-container"">
                    <img src=""semantic_sequence_notimeline/clothing_semantic/clothing_semantic_9.png"" class=""exp-image"">
                    <div class=""question-area"">
                        <p style=""font-size: 20px; font-weight: bold; margin: 0;"">Is there a person in this image?</p>
                    </div>
                </div>","1","main_experiment_trial","9","clothing_semantic","semantic_sequence_notimeline","chronological","","","","","","",""
"","","","","","html-keyboard-response","161","515152","0.0-161.0","530515F3F3F44A0CB00ED37C46A247E4","019d6b48-b107-7a99-9a59-392c6f6d8edd","019d6b28-084c-76dd-a1cb-5ac041bdee9a","","null","
                <div class=""stimulus-container"">
                    <img src=""semantic_sequence_notimeline/clothing_semantic/clothing_semantic_ten.png"" class=""exp-image"">
                    <div class=""question-area""></div> 
                </div>","null","","","","","","","","","","","",""
"","","","","","html-button-response","162","517616","0.0-162.0","530515F3F3F44A0CB00ED37C46A247E4","019d6b48-b107-7a99-9a59-392c6f6d8edd","019d6b28-084c-76dd-a1cb-5ac041bdee9a","","2463","
                <div class=""stimulus-container"">
                    <img src=""semantic_sequence_notimeline/clothing_semantic/clothing_semantic_ten.png"" class=""exp-image"">
                    <div class=""question-area"">
                        <p style=""font-size: 20px; font-weight: bold; margin: 0;"">Is there a person in this image?</p>
                    </div>
                </div>","1","main_experiment_trial","ten","clothing_semantic","semantic_sequence_notimeline","chronological","","","","","","",""
"","","","","","html-keyboard-response","163","522618","0.0-163.0","530515F3F3F44A0CB00ED37C46A247E4","019d6b48-b107-7a99-9a59-392c6f6d8edd","019d6b28-084c-76dd-a1cb-5ac041bdee9a","","null","<div style=""background-color: white; width: 100vw; height: 100vh;""></div>","null","","","","","","","","","","","",""
"","","","","","html-keyboard-response","164","527622","0.0-164.0","530515F3F3F44A0CB00ED37C46A247E4","019d6b48-b107-7a99-9a59-392c6f6d8edd","019d6b28-084c-76dd-a1cb-5ac041bdee9a","","null","
                <div class=""stimulus-container"">
                    <img src=""images/causal_sequence/saving_a_cat_causal/saving_a_cat_causal_1.png"" class=""exp-image"">
                    <div class=""question-area""></div> 
                </div>","null","","","","","","","","","","","",""
"","","","","","html-button-response","165","530299","0.0-165.0","530515F3F3F44A0CB00ED37C46A247E4","019d6b48-b107-7a99-9a59-392c6f6d8edd","019d6b28-084c-76dd-a1cb-5ac041bdee9a","","2676","
                <div class=""stimulus-container"">
                    <img src=""images/causal_sequence/saving_a_cat_causal/saving_a_cat_causal_1.png"" class=""exp-image"">
                    <div class=""question-area"">
                        <p style=""font-size: 20px; font-weight: bold; margin: 0;"">Is there a person in this image?</p>
                    </div>
                </div>","0","main_experiment_trial","1","saving_a_cat_causal","causal_sequence","chronological","","","","","","",""
"","","","","","html-keyboard-response","166","535302","0.0-166.0","530515F3F3F44A0CB00ED37C46A247E4","019d6b48-b107-7a99-9a59-392c6f6d8edd","019d6b28-084c-76dd-a1cb-5ac041bdee9a","","null","
                <div class=""stimulus-container"">
                    <img src=""images/causal_sequence/saving_a_cat_causal/saving_a_cat_causal_2.png"" class=""exp-image"">
                    <div class=""question-area""></div> 
                </div>","null","","","","","","","","","","","",""
"","","","","","html-button-response","167","536282","0.0-167.0","530515F3F3F44A0CB00ED37C46A247E4","019d6b48-b107-7a99-9a59-392c6f6d8edd","019d6b28-084c-76dd-a1cb-5ac041bdee9a","","979","
                <div class=""stimulus-container"">
                    <img src=""images/causal_sequence/saving_a_cat_causal/saving_a_cat_causal_2.png"" class=""exp-image"">
                    <div class=""question-area"">
                        <p style=""font-size: 20px; font-weight: bold; margin: 0;"">Is there a person in this image?</p>
                    </div>
                </div>","1","main_experiment_trial","2","saving_a_cat_causal","causal_sequence","chronological","","","","","","",""
"","","","","","html-keyboard-response","168","541285","0.0-168.0","530515F3F3F44A0CB00ED37C46A247E4","019d6b48-b107-7a99-9a59-392c6f6d8edd","019d6b28-084c-76dd-a1cb-5ac041bdee9a","","null","
                <div class=""stimulus-container"">
                    <img src=""images/causal_sequence/saving_a_cat_causal/saving_a_cat_causal_3.png"" class=""exp-image"">
                    <div class=""question-area""></div> 
                </div>","null","","","","","","","","","","","",""
"","","","","","html-button-response","169","542132","0.0-169.0","530515F3F3F44A0CB00ED37C46A247E4","019d6b48-b107-7a99-9a59-392c6f6d8edd","019d6b28-084c-76dd-a1cb-5ac041bdee9a","","845","
                <div class=""stimulus-container"">
                    <img src=""images/causal_sequence/saving_a_cat_causal/saving_a_cat_causal_3.png"" class=""exp-image"">
                    <div class=""question-area"">
                        <p style=""font-size: 20px; font-weight: bold; margin: 0;"">Is there a person in this image?</p>
                    </div>
                </div>","1","main_experiment_trial","3","saving_a_cat_causal","causal_sequence","chronological","","","","","","",""
"","","","","","html-keyboard-response","170","547133","0.0-170.0","530515F3F3F44A0CB00ED37C46A247E4","019d6b48-b107-7a99-9a59-392c6f6d8edd","019d6b28-084c-76dd-a1cb-5ac041bdee9a","","null","
                <div class=""stimulus-container"">
                    <img src=""images/causal_sequence/saving_a_cat_causal/saving_a_cat_causal_4.png"" class=""exp-image"">
                    <div class=""question-area""></div> 
                </div>","null","","","","","","","","","","","",""
"","","","","","html-button-response","171","547632","0.0-171.0","530515F3F3F44A0CB00ED37C46A247E4","019d6b48-b107-7a99-9a59-392c6f6d8edd","019d6b28-084c-76dd-a1cb-5ac041bdee9a","","497","
                <div class=""stimulus-container"">
                    <img src=""images/causal_sequence/saving_a_cat_causal/saving_a_cat_causal_4.png"" class=""exp-image"">
                    <div class=""question-area"">
                        <p style=""font-size: 20px; font-weight: bold; margin: 0;"">Is there a person in this image?</p>
                    </div>
                </div>","0","main_experiment_trial","4","saving_a_cat_causal","causal_sequence","chronological","","","","","","",""
"","","","","","html-keyboard-response","172","552635","0.0-172.0","530515F3F3F44A0CB00ED37C46A247E4","019d6b48-b107-7a99-9a59-392c6f6d8edd","019d6b28-084c-76dd-a1cb-5ac041bdee9a","","null","
                <div class=""stimulus-container"">
                    <img src=""images/causal_sequence/saving_a_cat_causal/saving_a_cat_causal_5.png"" class=""exp-image"">
                    <div class=""question-area""></div> 
                </div>","null","","","","","","","","","","","",""
"","","","","","html-button-response","173","553132","0.0-173.0","530515F3F3F44A0CB00ED37C46A247E4","019d6b48-b107-7a99-9a59-392c6f6d8edd","019d6b28-084c-76dd-a1cb-5ac041bdee9a","","496","
                <div class=""stimulus-container"">
                    <img src=""images/causal_sequence/saving_a_cat_causal/saving_a_cat_causal_5.png"" class=""exp-image"">
                    <div class=""question-area"">
                        <p style=""font-size: 20px; font-weight: bold; margin: 0;"">Is there a person in this image?</p>
                    </div>
                </div>","0","main_experiment_trial","5","saving_a_cat_causal","causal_sequence","chronological","","","","","","",""
"","","","","","html-keyboard-response","174","558135","0.0-174.0","530515F3F3F44A0CB00ED37C46A247E4","019d6b48-b107-7a99-9a59-392c6f6d8edd","019d6b28-084c-76dd-a1cb-5ac041bdee9a","","null","
                <div class=""stimulus-container"">
                    <img src=""images/causal_sequence/saving_a_cat_causal/saving_a_cat_causal_6.png"" class=""exp-image"">
                    <div class=""question-area""></div> 
                </div>","null","","","","","","","","","","","",""
"","","","","","html-button-response","175","560899","0.0-175.0","530515F3F3F44A0CB00ED37C46A247E4","019d6b48-b107-7a99-9a59-392c6f6d8edd","019d6b28-084c-76dd-a1cb-5ac041bdee9a","","2763","
                <div class=""stimulus-container"">
                    <img src=""images/causal_sequence/saving_a_cat_causal/saving_a_cat_causal_6.png"" class=""exp-image"">
                    <div class=""question-area"">
                        <p style=""font-size: 20px; font-weight: bold; margin: 0;"">Is there a person in this image?</p>
                    </div>
                </div>","0","main_experiment_trial","6","saving_a_cat_causal","causal_sequence","chronological","","","","","","",""
"","","","","","html-keyboard-response","176","565902","0.0-176.0","530515F3F3F44A0CB00ED37C46A247E4","019d6b48-b107-7a99-9a59-392c6f6d8edd","019d6b28-084c-76dd-a1cb-5ac041bdee9a","","null","
                <div class=""stimulus-container"">
                    <img src=""images/causal_sequence/saving_a_cat_causal/saving_a_cat_causal_7.png"" class=""exp-image"">
                    <div class=""question-area""></div> 
                </div>","null","","","","","","","","","","","",""
"","","","","","html-button-response","177","566449","0.0-177.0","530515F3F3F44A0CB00ED37C46A247E4","019d6b48-b107-7a99-9a59-392c6f6d8edd","019d6b28-084c-76dd-a1cb-5ac041bdee9a","","546","
                <div class=""stimulus-container"">
                    <img src=""images/causal_sequence/saving_a_cat_causal/saving_a_cat_causal_7.png"" class=""exp-image"">
                    <div class=""question-area"">
                        <p style=""font-size: 20px; font-weight: bold; margin: 0;"">Is there a person in this image?</p>
                    </div>
