"success","timeout","failed_images","failed_audio","failed_video","trial_type","trial_index","time_elapsed","internal_node_id","subject_id","study_id","session_id","view_history","rt","stimulus","response","task","image_index","folder","sequence_type","presentation_order","valuable_image_index","reward_type","correct_choice","distance_from_x","target_X","chosen_image_index","is_x_plus_dist"
"true","false","[]","[]","[]","preload","0","14144","0.0-0.0","EE50FE4297774D8B955D4C33BA4B9BFE","019cfa71-bef6-797f-b8a8-b50545f07451","019cfa3a-388e-72ab-ad58-bdeb258f96cd","","","","","","","","","","","","","","","",""
"","","","","","instructions","1","167274","0.0-1.0","EE50FE4297774D8B955D4C33BA4B9BFE","019cfa71-bef6-797f-b8a8-b50545f07451","019cfa3a-388e-72ab-ad58-bdeb258f96cd","[{""page_index"":0,""viewing_time"":153130}]","153130","","","","","","","","","","","","","",""
"","","","","","instructions","2","195149","0.0-2.0","EE50FE4297774D8B955D4C33BA4B9BFE","019cfa71-bef6-797f-b8a8-b50545f07451","019cfa3a-388e-72ab-ad58-bdeb258f96cd","[{""page_index"":0,""viewing_time"":27872}]","27873","","","","","","","","","","","","","",""
"true","","","","","fullscreen","3","197719","0.0-3.0","EE50FE4297774D8B955D4C33BA4B9BFE","019cfa71-bef6-797f-b8a8-b50545f07451","019cfa3a-388e-72ab-ad58-bdeb258f96cd","","1564","","","","","","","","","","","","","",""
"","","","","","instructions","4","201319","0.0-4.0","EE50FE4297774D8B955D4C33BA4B9BFE","019cfa71-bef6-797f-b8a8-b50545f07451","019cfa3a-388e-72ab-ad58-bdeb258f96cd","[{""page_index"":0,""viewing_time"":3600}]","3600","","","","","","","","","","","","","",""
"","","","","","instructions","5","204145","0.0-5.0","EE50FE4297774D8B955D4C33BA4B9BFE","019cfa71-bef6-797f-b8a8-b50545f07451","019cfa3a-388e-72ab-ad58-bdeb258f96cd","[{""page_index"":0,""viewing_time"":2823}]","2824","","","","","","","","","","","","","",""
"","","","","","html-keyboard-response","6","208148","0.0-6.0","EE50FE4297774D8B955D4C33BA4B9BFE","019cfa71-bef6-797f-b8a8-b50545f07451","019cfa3a-388e-72ab-ad58-bdeb258f96cd","","null","
                <div class=""stimulus-container"">
                    <img src=""images/instructions/movie_1.png"" class=""exp-image"">
                    <div class=""question-area""></div> 
                </div>","null","","","","","","","","","","","",""
"","","","","","html-button-response","7","211152","0.0-7.0","EE50FE4297774D8B955D4C33BA4B9BFE","019cfa71-bef6-797f-b8a8-b50545f07451","019cfa3a-388e-72ab-ad58-bdeb258f96cd","","null","
                <div class=""stimulus-container"">
                    <img src=""images/instructions/movie_1.png"" class=""exp-image"">
                    <div class=""question-area"">
                        <p style=""font-size: 20px; font-weight: bold; margin: 0;"">Was there a person in this image?</p>
                    </div>
                </div>","null","example_question","1","","","","","","","","","",""
"","","","","","html-keyboard-response","8","215170","0.0-8.0","EE50FE4297774D8B955D4C33BA4B9BFE","019cfa71-bef6-797f-b8a8-b50545f07451","019cfa3a-388e-72ab-ad58-bdeb258f96cd","","null","
                <div class=""stimulus-container"">
                    <img src=""images/instructions/movie_2.png"" class=""exp-image"">
                    <div class=""question-area""></div> 
                </div>","null","","","","","","","","","","","",""
"","","","","","html-button-response","9","215919","0.0-9.0","EE50FE4297774D8B955D4C33BA4B9BFE","019cfa71-bef6-797f-b8a8-b50545f07451","019cfa3a-388e-72ab-ad58-bdeb258f96cd","","747","
                <div class=""stimulus-container"">
                    <img src=""images/instructions/movie_2.png"" class=""exp-image"">
                    <div class=""question-area"">
                        <p style=""font-size: 20px; font-weight: bold; margin: 0;"">Was there a person in this image?</p>
                    </div>
                </div>","0","example_question","2","","","","","","","","","",""
"","","","","","html-keyboard-response","10","219962","0.0-10.0","EE50FE4297774D8B955D4C33BA4B9BFE","019cfa71-bef6-797f-b8a8-b50545f07451","019cfa3a-388e-72ab-ad58-bdeb258f96cd","","null","
                <div class=""stimulus-container"">
                    <img src=""images/instructions/movie_3.png"" class=""exp-image"">
                    <div class=""question-area""></div> 
                </div>","null","","","","","","","","","","","",""
"","","","","","html-button-response","11","220543","0.0-11.0","EE50FE4297774D8B955D4C33BA4B9BFE","019cfa71-bef6-797f-b8a8-b50545f07451","019cfa3a-388e-72ab-ad58-bdeb258f96cd","","579","
                <div class=""stimulus-container"">
                    <img src=""images/instructions/movie_3.png"" class=""exp-image"">
                    <div class=""question-area"">
                        <p style=""font-size: 20px; font-weight: bold; margin: 0;"">Was there a person in this image?</p>
                    </div>
                </div>","0","example_question","3","","","","","","","","","",""
"","","","","","html-keyboard-response","12","224549","0.0-12.0","EE50FE4297774D8B955D4C33BA4B9BFE","019cfa71-bef6-797f-b8a8-b50545f07451","019cfa3a-388e-72ab-ad58-bdeb258f96cd","","null","
                <div class=""stimulus-container"">
                    <img src=""images/instructions/movie_4.png"" class=""exp-image"">
                    <div class=""question-area""></div> 
                </div>","null","","","","","","","","","","","",""
"","","","","","html-button-response","13","225083","0.0-13.0","EE50FE4297774D8B955D4C33BA4B9BFE","019cfa71-bef6-797f-b8a8-b50545f07451","019cfa3a-388e-72ab-ad58-bdeb258f96cd","","531","
                <div class=""stimulus-container"">
                    <img src=""images/instructions/movie_4.png"" class=""exp-image"">
                    <div class=""question-area"">
                        <p style=""font-size: 20px; font-weight: bold; margin: 0;"">Was there a person in this image?</p>
                    </div>
                </div>","0","example_question","4","","","","","","","","","",""
"","","","","","instructions","14","242834","0.0-14.0","EE50FE4297774D8B955D4C33BA4B9BFE","019cfa71-bef6-797f-b8a8-b50545f07451","019cfa3a-388e-72ab-ad58-bdeb258f96cd","[{""page_index"":0,""viewing_time"":17750}]","17750","","","","","","","","","","","","","",""
"","","","","","instructions","15","265178","0.0-15.0","EE50FE4297774D8B955D4C33BA4B9BFE","019cfa71-bef6-797f-b8a8-b50545f07451","019cfa3a-388e-72ab-ad58-bdeb258f96cd","[{""page_index"":0,""viewing_time"":22343}]","22343","","","","","","","","","","","","","",""
"","","","","","html-keyboard-response","16","270249","0.0-16.0","EE50FE4297774D8B955D4C33BA4B9BFE","019cfa71-bef6-797f-b8a8-b50545f07451","019cfa3a-388e-72ab-ad58-bdeb258f96cd","","null","<div style=""background-color: white; width: 100vw; height: 100vh;""></div>","null","","","","","","","","","","","",""
"","","","","","html-keyboard-response","17","271253","0.0-17.0","EE50FE4297774D8B955D4C33BA4B9BFE","019cfa71-bef6-797f-b8a8-b50545f07451","019cfa3a-388e-72ab-ad58-bdeb258f96cd","","null","
                <div class=""stimulus-container"">
                    <img src=""images/semantic_sequence/exploring_nature_semantic/exploring_nature_semantic_1.png"" class=""exp-image"">
                    <div class=""question-area""></div> 
                </div>","null","","","","","","","","","","","",""
"","","","","","html-button-response","18","272349","0.0-18.0","EE50FE4297774D8B955D4C33BA4B9BFE","019cfa71-bef6-797f-b8a8-b50545f07451","019cfa3a-388e-72ab-ad58-bdeb258f96cd","","1095","
                <div class=""stimulus-container"">
                    <img src=""images/semantic_sequence/exploring_nature_semantic/exploring_nature_semantic_1.png"" class=""exp-image"">
                    <div class=""question-area"">
                        <p style=""font-size: 20px; font-weight: bold; margin: 0;"">Is there a person in this image?</p>
                    </div>
                </div>","0","main_experiment_trial","1","exploring_nature_semantic","semantic_sequence","chronological","","","","","","",""
"","","","","","html-keyboard-response","19","273351","0.0-19.0","EE50FE4297774D8B955D4C33BA4B9BFE","019cfa71-bef6-797f-b8a8-b50545f07451","019cfa3a-388e-72ab-ad58-bdeb258f96cd","","null","
                <div class=""stimulus-container"">
                    <img src=""images/semantic_sequence/exploring_nature_semantic/exploring_nature_semantic_2.png"" class=""exp-image"">
                    <div class=""question-area""></div> 
                </div>","null","","","","","","","","","","","",""
"","","","","","html-button-response","20","273966","0.0-20.0","EE50FE4297774D8B955D4C33BA4B9BFE","019cfa71-bef6-797f-b8a8-b50545f07451","019cfa3a-388e-72ab-ad58-bdeb258f96cd","","614","
                <div class=""stimulus-container"">
                    <img src=""images/semantic_sequence/exploring_nature_semantic/exploring_nature_semantic_2.png"" class=""exp-image"">
                    <div class=""question-area"">
                        <p style=""font-size: 20px; font-weight: bold; margin: 0;"">Is there a person in this image?</p>
                    </div>
                </div>","0","main_experiment_trial","2","exploring_nature_semantic","semantic_sequence","chronological","","","","","","",""
"","","","","","html-keyboard-response","21","274972","0.0-21.0","EE50FE4297774D8B955D4C33BA4B9BFE","019cfa71-bef6-797f-b8a8-b50545f07451","019cfa3a-388e-72ab-ad58-bdeb258f96cd","","null","
                <div class=""stimulus-container"">
                    <img src=""images/semantic_sequence/exploring_nature_semantic/exploring_nature_semantic_3.png"" class=""exp-image"">
                    <div class=""question-area""></div> 
                </div>","null","","","","","","","","","","","",""
"","","","","","html-button-response","22","275569","0.0-22.0","EE50FE4297774D8B955D4C33BA4B9BFE","019cfa71-bef6-797f-b8a8-b50545f07451","019cfa3a-388e-72ab-ad58-bdeb258f96cd","","595","
                <div class=""stimulus-container"">
                    <img src=""images/semantic_sequence/exploring_nature_semantic/exploring_nature_semantic_3.png"" class=""exp-image"">
                    <div class=""question-area"">
                        <p style=""font-size: 20px; font-weight: bold; margin: 0;"">Is there a person in this image?</p>
                    </div>
                </div>","0","main_experiment_trial","3","exploring_nature_semantic","semantic_sequence","chronological","","","","","","",""
"","","","","","html-keyboard-response","23","276576","0.0-23.0","EE50FE4297774D8B955D4C33BA4B9BFE","019cfa71-bef6-797f-b8a8-b50545f07451","019cfa3a-388e-72ab-ad58-bdeb258f96cd","","null","
                <div class=""stimulus-container"">
                    <img src=""images/semantic_sequence/exploring_nature_semantic/exploring_nature_semantic_4.png"" class=""exp-image"">
                    <div class=""question-area""></div> 
                </div>","null","","","","","","","","","","","",""
"","","","","","html-button-response","24","277096","0.0-24.0","EE50FE4297774D8B955D4C33BA4B9BFE","019cfa71-bef6-797f-b8a8-b50545f07451","019cfa3a-388e-72ab-ad58-bdeb258f96cd","","519","
                <div class=""stimulus-container"">
                    <img src=""images/semantic_sequence/exploring_nature_semantic/exploring_nature_semantic_4.png"" class=""exp-image"">
                    <div class=""question-area"">
                        <p style=""font-size: 20px; font-weight: bold; margin: 0;"">Is there a person in this image?</p>
                    </div>
                </div>","0","main_experiment_trial","4","exploring_nature_semantic","semantic_sequence","chronological","","","","","","",""
"","","","","","html-keyboard-response","25","278102","0.0-25.0","EE50FE4297774D8B955D4C33BA4B9BFE","019cfa71-bef6-797f-b8a8-b50545f07451","019cfa3a-388e-72ab-ad58-bdeb258f96cd","","null","
                <div class=""stimulus-container"">
                    <img src=""images/semantic_sequence/exploring_nature_semantic/exploring_nature_semantic_5.png"" class=""exp-image"">
                    <div class=""question-area""></div> 
                </div>","null","","","","","","","","","","","",""
"","","","","","html-button-response","26","278641","0.0-26.0","EE50FE4297774D8B955D4C33BA4B9BFE","019cfa71-bef6-797f-b8a8-b50545f07451","019cfa3a-388e-72ab-ad58-bdeb258f96cd","","538","
                <div class=""stimulus-container"">
                    <img src=""images/semantic_sequence/exploring_nature_semantic/exploring_nature_semantic_5.png"" class=""exp-image"">
                    <div class=""question-area"">
                        <p style=""font-size: 20px; font-weight: bold; margin: 0;"">Is there a person in this image?</p>
                    </div>
                </div>","0","main_experiment_trial","5","exploring_nature_semantic","semantic_sequence","chronological","","","","","","",""
"","","","","","html-keyboard-response","27","279647","0.0-27.0","EE50FE4297774D8B955D4C33BA4B9BFE","019cfa71-bef6-797f-b8a8-b50545f07451","019cfa3a-388e-72ab-ad58-bdeb258f96cd","","null","
                <div class=""stimulus-container"">
                    <img src=""images/semantic_sequence/exploring_nature_semantic/exploring_nature_semantic_6.png"" class=""exp-image"">
                    <div class=""question-area""></div> 
                </div>","null","","","","","","","","","","","",""
"","","","","","html-button-response","28","280154","0.0-28.0","EE50FE4297774D8B955D4C33BA4B9BFE","019cfa71-bef6-797f-b8a8-b50545f07451","019cfa3a-388e-72ab-ad58-bdeb258f96cd","","507","
                <div class=""stimulus-container"">
                    <img src=""images/semantic_sequence/exploring_nature_semantic/exploring_nature_semantic_6.png"" class=""exp-image"">
                    <div class=""question-area"">
                        <p style=""font-size: 20px; font-weight: bold; margin: 0;"">Is there a person in this image?</p>
                    </div>
                </div>","0","main_experiment_trial","6","exploring_nature_semantic","semantic_sequence","chronological","","","","","","",""
"","","","","","html-keyboard-response","29","281158","0.0-29.0","EE50FE4297774D8B955D4C33BA4B9BFE","019cfa71-bef6-797f-b8a8-b50545f07451","019cfa3a-388e-72ab-ad58-bdeb258f96cd","","null","
                <div class=""stimulus-container"">
                    <img src=""images/semantic_sequence/exploring_nature_semantic/exploring_nature_semantic_7.png"" class=""exp-image"">
                    <div class=""question-area""></div> 
                </div>","null","","","","","","","","","","","",""
"","","","","","html-button-response","30","281900","0.0-30.0","EE50FE4297774D8B955D4C33BA4B9BFE","019cfa71-bef6-797f-b8a8-b50545f07451","019cfa3a-388e-72ab-ad58-bdeb258f96cd","","742","
                <div class=""stimulus-container"">
                    <img src=""images/semantic_sequence/exploring_nature_semantic/exploring_nature_semantic_7.png"" class=""exp-image"">
                    <div class=""question-area"">
                        <p style=""font-size: 20px; font-weight: bold; margin: 0;"">Is there a person in this image?</p>
                    </div>
                </div>","0","main_experiment_trial","7","exploring_nature_semantic","semantic_sequence","chronological","","","","","","",""
"","","","","","html-keyboard-response","31","282904","0.0-31.0","EE50FE4297774D8B955D4C33BA4B9BFE","019cfa71-bef6-797f-b8a8-b50545f07451","019cfa3a-388e-72ab-ad58-bdeb258f96cd","","null","
                <div class=""stimulus-container"">
                    <img src=""images/semantic_sequence/exploring_nature_semantic/exploring_nature_semantic_8.png"" class=""exp-image"">
                    <div class=""question-area""></div> 
                </div>","null","","","","","","","","","","","",""
"","","","","","html-button-response","32","283488","0.0-32.0","EE50FE4297774D8B955D4C33BA4B9BFE","019cfa71-bef6-797f-b8a8-b50545f07451","019cfa3a-388e-72ab-ad58-bdeb258f96cd","","583","
                <div class=""stimulus-container"">
                    <img src=""images/semantic_sequence/exploring_nature_semantic/exploring_nature_semantic_8.png"" class=""exp-image"">
                    <div class=""question-area"">
                        <p style=""font-size: 20px; font-weight: bold; margin: 0;"">Is there a person in this image?</p>
                    </div>
                </div>","0","main_experiment_trial","8","exploring_nature_semantic","semantic_sequence","chronological","","","","","","",""
"","","","","","html-keyboard-response","33","284494","0.0-33.0","EE50FE4297774D8B955D4C33BA4B9BFE","019cfa71-bef6-797f-b8a8-b50545f07451","019cfa3a-388e-72ab-ad58-bdeb258f96cd","","null","
                <div class=""stimulus-container"">
                    <img src=""images/semantic_sequence/exploring_nature_semantic/exploring_nature_semantic_9.png"" class=""exp-image"">
                    <div class=""question-area""></div> 
                </div>","null","","","","","","","","","","","",""
"","","","","","html-button-response","34","285006","0.0-34.0","EE50FE4297774D8B955D4C33BA4B9BFE","019cfa71-bef6-797f-b8a8-b50545f07451","019cfa3a-388e-72ab-ad58-bdeb258f96cd","","512","
                <div class=""stimulus-container"">
                    <img src=""images/semantic_sequence/exploring_nature_semantic/exploring_nature_semantic_9.png"" class=""exp-image"">
                    <div class=""question-area"">
                        <p style=""font-size: 20px; font-weight: bold; margin: 0;"">Is there a person in this image?</p>
                    </div>
                </div>","0","main_experiment_trial","9","exploring_nature_semantic","semantic_sequence","chronological","","","","","","",""
"","","","","","html-keyboard-response","35","286013","0.0-35.0","EE50FE4297774D8B955D4C33BA4B9BFE","019cfa71-bef6-797f-b8a8-b50545f07451","019cfa3a-388e-72ab-ad58-bdeb258f96cd","","null","
                <div class=""stimulus-container"">
                    <img src=""images/semantic_sequence/exploring_nature_semantic/exploring_nature_semantic_ten.png"" class=""exp-image"">
                    <div class=""question-area""></div> 
                </div>","null","","","","","","","","","","","",""
"","","","","","html-button-response","36","286519","0.0-36.0","EE50FE4297774D8B955D4C33BA4B9BFE","019cfa71-bef6-797f-b8a8-b50545f07451","019cfa3a-388e-72ab-ad58-bdeb258f96cd","","506","
                <div class=""stimulus-container"">
                    <img src=""images/semantic_sequence/exploring_nature_semantic/exploring_nature_semantic_ten.png"" class=""exp-image"">
                    <div class=""question-area"">
                        <p style=""font-size: 20px; font-weight: bold; margin: 0;"">Is there a person in this image?</p>
                    </div>
                </div>","0","main_experiment_trial","ten","exploring_nature_semantic","semantic_sequence","chronological","","","","","","",""
"","","","","","html-keyboard-response","37","291523","0.0-37.0","EE50FE4297774D8B955D4C33BA4B9BFE","019cfa71-bef6-797f-b8a8-b50545f07451","019cfa3a-388e-72ab-ad58-bdeb258f96cd","","null","<div style=""background-color: white; width: 100vw; height: 100vh;""></div>","null","","","","","","","","","","","",""
"","","","","","html-keyboard-response","38","292524","0.0-38.0","EE50FE4297774D8B955D4C33BA4B9BFE","019cfa71-bef6-797f-b8a8-b50545f07451","019cfa3a-388e-72ab-ad58-bdeb258f96cd","","null","
                <div class=""stimulus-container"">
                    <img src=""images/semantic_sequence/redecorating_a_house_semantic/redecorating_a_house_semantic_1.png"" class=""exp-image"">
                    <div class=""question-area""></div> 
                </div>","null","","","","","","","","","","","",""
"","","","","","html-button-response","39","294576","0.0-39.0","EE50FE4297774D8B955D4C33BA4B9BFE","019cfa71-bef6-797f-b8a8-b50545f07451","019cfa3a-388e-72ab-ad58-bdeb258f96cd","","2051","
                <div class=""stimulus-container"">
                    <img src=""images/semantic_sequence/redecorating_a_house_semantic/redecorating_a_house_semantic_1.png"" class=""exp-image"">
                    <div class=""question-area"">
                        <p style=""font-size: 20px; font-weight: bold; margin: 0;"">Is there a person in this image?</p>
                    </div>
                </div>","0","main_experiment_trial","1","redecorating_a_house_semantic","semantic_sequence","chronological","","","","","","",""
"","","","","","html-keyboard-response","40","295583","0.0-40.0","EE50FE4297774D8B955D4C33BA4B9BFE","019cfa71-bef6-797f-b8a8-b50545f07451","019cfa3a-388e-72ab-ad58-bdeb258f96cd","","null","
                <div class=""stimulus-container"">
                    <img src=""images/semantic_sequence/redecorating_a_house_semantic/redecorating_a_house_semantic_2.png"" class=""exp-image"">
                    <div class=""question-area""></div> 
                </div>","null","","","","","","","","","","","",""
"","","","","","html-button-response","41","296732","0.0-41.0","EE50FE4297774D8B955D4C33BA4B9BFE","019cfa71-bef6-797f-b8a8-b50545f07451","019cfa3a-388e-72ab-ad58-bdeb258f96cd","","1147","
                <div class=""stimulus-container"">
                    <img src=""images/semantic_sequence/redecorating_a_house_semantic/redecorating_a_house_semantic_2.png"" class=""exp-image"">
                    <div class=""question-area"">
                        <p style=""font-size: 20px; font-weight: bold; margin: 0;"">Is there a person in this image?</p>
                    </div>
                </div>","0","main_experiment_trial","2","redecorating_a_house_semantic","semantic_sequence","chronological","","","","","","",""
"","","","","","html-keyboard-response","42","297738","0.0-42.0","EE50FE4297774D8B955D4C33BA4B9BFE","019cfa71-bef6-797f-b8a8-b50545f07451","019cfa3a-388e-72ab-ad58-bdeb258f96cd","","null","
                <div class=""stimulus-container"">
                    <img src=""images/semantic_sequence/redecorating_a_house_semantic/redecorating_a_house_semantic_3.png"" class=""exp-image"">
                    <div class=""question-area""></div> 
                </div>","null","","","","","","","","","","","",""
"","","","","","html-button-response","43","298305","0.0-43.0","EE50FE4297774D8B955D4C33BA4B9BFE","019cfa71-bef6-797f-b8a8-b50545f07451","019cfa3a-388e-72ab-ad58-bdeb258f96cd","","567","
                <div class=""stimulus-container"">
                    <img src=""images/semantic_sequence/redecorating_a_house_semantic/redecorating_a_house_semantic_3.png"" class=""exp-image"">
                    <div class=""question-area"">
                        <p style=""font-size: 20px; font-weight: bold; margin: 0;"">Is there a person in this image?</p>
                    </div>
                </div>","0","main_experiment_trial","3","redecorating_a_house_semantic","semantic_sequence","chronological","","","","","","",""
"","","","","","html-keyboard-response","44","299309","0.0-44.0","EE50FE4297774D8B955D4C33BA4B9BFE","019cfa71-bef6-797f-b8a8-b50545f07451","019cfa3a-388e-72ab-ad58-bdeb258f96cd","","null","
                <div class=""stimulus-container"">
                    <img src=""images/semantic_sequence/redecorating_a_house_semantic/redecorating_a_house_semantic_4.png"" class=""exp-image"">
                    <div class=""question-area""></div> 
                </div>","null","","","","","","","","","","","",""
"","","","","","html-button-response","45","299901","0.0-45.0","EE50FE4297774D8B955D4C33BA4B9BFE","019cfa71-bef6-797f-b8a8-b50545f07451","019cfa3a-388e-72ab-ad58-bdeb258f96cd","","592","
                <div class=""stimulus-container"">
                    <img src=""images/semantic_sequence/redecorating_a_house_semantic/redecorating_a_house_semantic_4.png"" class=""exp-image"">
                    <div class=""question-area"">
                        <p style=""font-size: 20px; font-weight: bold; margin: 0;"">Is there a person in this image?</p>
                    </div>
                </div>","0","main_experiment_trial","4","redecorating_a_house_semantic","semantic_sequence","chronological","","","","","","",""
"","","","","","html-keyboard-response","46","300905","0.0-46.0","EE50FE4297774D8B955D4C33BA4B9BFE","019cfa71-bef6-797f-b8a8-b50545f07451","019cfa3a-388e-72ab-ad58-bdeb258f96cd","","null","
                <div class=""stimulus-container"">
                    <img src=""images/semantic_sequence/redecorating_a_house_semantic/redecorating_a_house_semantic_5.png"" class=""exp-image"">
                    <div class=""question-area""></div> 
                </div>","null","","","","","","","","","","","",""
"","","","","","html-button-response","47","301436","0.0-47.0","EE50FE4297774D8B955D4C33BA4B9BFE","019cfa71-bef6-797f-b8a8-b50545f07451","019cfa3a-388e-72ab-ad58-bdeb258f96cd","","529","
                <div class=""stimulus-container"">
                    <img src=""images/semantic_sequence/redecorating_a_house_semantic/redecorating_a_house_semantic_5.png"" class=""exp-image"">
                    <div class=""question-area"">
                        <p style=""font-size: 20px; font-weight: bold; margin: 0;"">Is there a person in this image?</p>
                    </div>
                </div>","0","main_experiment_trial","5","redecorating_a_house_semantic","semantic_sequence","chronological","","","","","","",""
"","","","","","html-keyboard-response","48","302443","0.0-48.0","EE50FE4297774D8B955D4C33BA4B9BFE","019cfa71-bef6-797f-b8a8-b50545f07451","019cfa3a-388e-72ab-ad58-bdeb258f96cd","","null","
                <div class=""stimulus-container"">
                    <img src=""images/semantic_sequence/redecorating_a_house_semantic/redecorating_a_house_semantic_6.png"" class=""exp-image"">
                    <div class=""question-area""></div> 
                </div>","null","","","","","","","","","","","",""
"","","","","","html-button-response","49","302991","0.0-49.0","EE50FE4297774D8B955D4C33BA4B9BFE","019cfa71-bef6-797f-b8a8-b50545f07451","019cfa3a-388e-72ab-ad58-bdeb258f96cd","","548","
                <div class=""stimulus-container"">
                    <img src=""images/semantic_sequence/redecorating_a_house_semantic/redecorating_a_house_semantic_6.png"" class=""exp-image"">
                    <div class=""question-area"">
                        <p style=""font-size: 20px; font-weight: bold; margin: 0;"">Is there a person in this image?</p>
                    </div>
                </div>","0","main_experiment_trial","6","redecorating_a_house_semantic","semantic_sequence","chronological","","","","","","",""
"","","","","","html-keyboard-response","50","303996","0.0-50.0","EE50FE4297774D8B955D4C33BA4B9BFE","019cfa71-bef6-797f-b8a8-b50545f07451","019cfa3a-388e-72ab-ad58-bdeb258f96cd","","null","
                <div class=""stimulus-container"">
                    <img src=""images/semantic_sequence/redecorating_a_house_semantic/redecorating_a_house_semantic_7.png"" class=""exp-image"">
                    <div class=""question-area""></div> 
                </div>","null","","","","","","","","","","","",""
"","","","","","html-button-response","51","304675","0.0-51.0","EE50FE4297774D8B955D4C33BA4B9BFE","019cfa71-bef6-797f-b8a8-b50545f07451","019cfa3a-388e-72ab-ad58-bdeb258f96cd","","679","
                <div class=""stimulus-container"">
                    <img src=""images/semantic_sequence/redecorating_a_house_semantic/redecorating_a_house_semantic_7.png"" class=""exp-image"">
                    <div class=""question-area"">
                        <p style=""font-size: 20px; font-weight: bold; margin: 0;"">Is there a person in this image?</p>
                    </div>
                </div>","0","main_experiment_trial","7","redecorating_a_house_semantic","semantic_sequence","chronological","","","","","","",""
"","","","","","html-keyboard-response","52","305679","0.0-52.0","EE50FE4297774D8B955D4C33BA4B9BFE","019cfa71-bef6-797f-b8a8-b50545f07451","019cfa3a-388e-72ab-ad58-bdeb258f96cd","","null","
                <div class=""stimulus-container"">
                    <img src=""images/semantic_sequence/redecorating_a_house_semantic/redecorating_a_house_semantic_8.png"" class=""exp-image"">
                    <div class=""question-area""></div> 
                </div>","null","","","","","","","","","","","",""
"","","","","","html-button-response","53","306153","0.0-53.0","EE50FE4297774D8B955D4C33BA4B9BFE","019cfa71-bef6-797f-b8a8-b50545f07451","019cfa3a-388e-72ab-ad58-bdeb258f96cd","","473","
                <div class=""stimulus-container"">
                    <img src=""images/semantic_sequence/redecorating_a_house_semantic/redecorating_a_house_semantic_8.png"" class=""exp-image"">
                    <div class=""question-area"">
                        <p style=""font-size: 20px; font-weight: bold; margin: 0;"">Is there a person in this image?</p>
                    </div>
                </div>","0","main_experiment_trial","8","redecorating_a_house_semantic","semantic_sequence","chronological","","","","","","",""
"","","","","","html-keyboard-response","54","307157","0.0-54.0","EE50FE4297774D8B955D4C33BA4B9BFE","019cfa71-bef6-797f-b8a8-b50545f07451","019cfa3a-388e-72ab-ad58-bdeb258f96cd","","null","
                <div class=""stimulus-container"">
                    <img src=""images/semantic_sequence/redecorating_a_house_semantic/redecorating_a_house_semantic_9.png"" class=""exp-image"">
                    <div class=""question-area""></div> 
                </div>","null","","","","","","","","","","","",""
"","","","","","html-button-response","55","307707","0.0-55.0","EE50FE4297774D8B955D4C33BA4B9BFE","019cfa71-bef6-797f-b8a8-b50545f07451","019cfa3a-388e-72ab-ad58-bdeb258f96cd","","550","
                <div class=""stimulus-container"">
                    <img src=""images/semantic_sequence/redecorating_a_house_semantic/redecorating_a_house_semantic_9.png"" class=""exp-image"">
                    <div class=""question-area"">
                        <p style=""font-size: 20px; font-weight: bold; margin: 0;"">Is there a person in this image?</p>
                    </div>
                </div>","0","main_experiment_trial","9","redecorating_a_house_semantic","semantic_sequence","chronological","","","","","","",""
"","","","","","html-keyboard-response","56","308714","0.0-56.0","EE50FE4297774D8B955D4C33BA4B9BFE","019cfa71-bef6-797f-b8a8-b50545f07451","019cfa3a-388e-72ab-ad58-bdeb258f96cd","","null","
                <div class=""stimulus-container"">
                    <img src=""images/semantic_sequence/redecorating_a_house_semantic/redecorating_a_house_semantic_ten.png"" class=""exp-image"">
                    <div class=""question-area""></div> 
                </div>","null","","","","","","","","","","","",""
"","","","","","html-button-response","57","309419","0.0-57.0","EE50FE4297774D8B955D4C33BA4B9BFE","019cfa71-bef6-797f-b8a8-b50545f07451","019cfa3a-388e-72ab-ad58-bdeb258f96cd","","705","
                <div class=""stimulus-container"">
                    <img src=""images/semantic_sequence/redecorating_a_house_semantic/redecorating_a_house_semantic_ten.png"" class=""exp-image"">
                    <div class=""question-area"">
                        <p style=""font-size: 20px; font-weight: bold; margin: 0;"">Is there a person in this image?</p>
                    </div>
                </div>","0","main_experiment_trial","ten","redecorating_a_house_semantic","semantic_sequence","chronological","","","","","","",""
"","","","","","html-keyboard-response","58","314426","0.0-58.0","EE50FE4297774D8B955D4C33BA4B9BFE","019cfa71-bef6-797f-b8a8-b50545f07451","019cfa3a-388e-72ab-ad58-bdeb258f96cd","","null","<div style=""background-color: white; width: 100vw; height: 100vh;""></div>","null","","","","","","","","","","","",""
"","","","","","html-keyboard-response","59","315432","0.0-59.0","EE50FE4297774D8B955D4C33BA4B9BFE","019cfa71-bef6-797f-b8a8-b50545f07451","019cfa3a-388e-72ab-ad58-bdeb258f96cd","","null","
                <div class=""stimulus-container"">
                    <img src=""images/semantic_sequence/creative_activities_semantic/creative_activities_semantic_1.png"" class=""exp-image"">
                    <div class=""question-area""></div> 
                </div>","null","","","","","","","","","","","",""
"","","","","","html-button-response","60","316892","0.0-60.0","EE50FE4297774D8B955D4C33BA4B9BFE","019cfa71-bef6-797f-b8a8-b50545f07451","019cfa3a-388e-72ab-ad58-bdeb258f96cd","","1460","
                <div class=""stimulus-container"">
                    <img src=""images/semantic_sequence/creative_activities_semantic/creative_activities_semantic_1.png"" class=""exp-image"">
                    <div class=""question-area"">
                        <p style=""font-size: 20px; font-weight: bold; margin: 0;"">Is there a person in this image?</p>
                    </div>
                </div>","0","main_experiment_trial","1","creative_activities_semantic","semantic_sequence","chronological","","","","","","",""
"","","","","","html-keyboard-response","61","317894","0.0-61.0","EE50FE4297774D8B955D4C33BA4B9BFE","019cfa71-bef6-797f-b8a8-b50545f07451","019cfa3a-388e-72ab-ad58-bdeb258f96cd","","null","
                <div class=""stimulus-container"">
                    <img src=""images/semantic_sequence/creative_activities_semantic/creative_activities_semantic_2.png"" class=""exp-image"">
                    <div class=""question-area""></div> 
                </div>","null","","","","","","","","","","","",""
"","","","","","html-button-response","62","318426","0.0-62.0","EE50FE4297774D8B955D4C33BA4B9BFE","019cfa71-bef6-797f-b8a8-b50545f07451","019cfa3a-388e-72ab-ad58-bdeb258f96cd","","532","
                <div class=""stimulus-container"">
                    <img src=""images/semantic_sequence/creative_activities_semantic/creative_activities_semantic_2.png"" class=""exp-image"">
                    <div class=""question-area"">
                        <p style=""font-size: 20px; font-weight: bold; margin: 0;"">Is there a person in this image?</p>
                    </div>
                </div>","0","main_experiment_trial","2","creative_activities_semantic","semantic_sequence","chronological","","","","","","",""
"","","","","","html-keyboard-response","63","319433","0.0-63.0","EE50FE4297774D8B955D4C33BA4B9BFE","019cfa71-bef6-797f-b8a8-b50545f07451","019cfa3a-388e-72ab-ad58-bdeb258f96cd","","null","
                <div class=""stimulus-container"">
                    <img src=""images/semantic_sequence/creative_activities_semantic/creative_activities_semantic_3.png"" class=""exp-image"">
                    <div class=""question-area""></div> 
                </div>","null","","","","","","","","","","","",""
"","","","","","html-button-response","64","319972","0.0-64.0","EE50FE4297774D8B955D4C33BA4B9BFE","019cfa71-bef6-797f-b8a8-b50545f07451","019cfa3a-388e-72ab-ad58-bdeb258f96cd","","538","
                <div class=""stimulus-container"">
                    <img src=""images/semantic_sequence/creative_activities_semantic/creative_activities_semantic_3.png"" class=""exp-image"">
                    <div class=""question-area"">
                        <p style=""font-size: 20px; font-weight: bold; margin: 0;"">Is there a person in this image?</p>
                    </div>
                </div>","0","main_experiment_trial","3","creative_activities_semantic","semantic_sequence","chronological","","","","","","",""
"","","","","","html-keyboard-response","65","320976","0.0-65.0","EE50FE4297774D8B955D4C33BA4B9BFE","019cfa71-bef6-797f-b8a8-b50545f07451","019cfa3a-388e-72ab-ad58-bdeb258f96cd","","null","
                <div class=""stimulus-container"">
                    <img src=""images/semantic_sequence/creative_activities_semantic/creative_activities_semantic_4.png"" class=""exp-image"">
                    <div class=""question-area""></div> 
                </div>","null","","","","","","","","","","","",""
"","","","","","html-button-response","66","321559","0.0-66.0","EE50FE4297774D8B955D4C33BA4B9BFE","019cfa71-bef6-797f-b8a8-b50545f07451","019cfa3a-388e-72ab-ad58-bdeb258f96cd","","582","
                <div class=""stimulus-container"">
                    <img src=""images/semantic_sequence/creative_activities_semantic/creative_activities_semantic_4.png"" class=""exp-image"">
                    <div class=""question-area"">
                        <p style=""font-size: 20px; font-weight: bold; margin: 0;"">Is there a person in this image?</p>
                    </div>
                </div>","0","main_experiment_trial","4","creative_activities_semantic","semantic_sequence","chronological","","","","","","",""
"","","","","","html-keyboard-response","67","322614","0.0-67.0","EE50FE4297774D8B955D4C33BA4B9BFE","019cfa71-bef6-797f-b8a8-b50545f07451","019cfa3a-388e-72ab-ad58-bdeb258f96cd","","null","
                <div class=""stimulus-container"">
                    <img src=""images/semantic_sequence/creative_activities_semantic/creative_activities_semantic_5.png"" class=""exp-image"">
                    <div class=""question-area""></div> 
                </div>","null","","","","","","","","","","","",""
"","","","","","html-button-response","68","323198","0.0-68.0","EE50FE4297774D8B955D4C33BA4B9BFE","019cfa71-bef6-797f-b8a8-b50545f07451","019cfa3a-388e-72ab-ad58-bdeb258f96cd","","585","
                <div class=""stimulus-container"">
                    <img src=""images/semantic_sequence/creative_activities_semantic/creative_activities_semantic_5.png"" class=""exp-image"">
                    <div class=""question-area"">
                        <p style=""font-size: 20px; font-weight: bold; margin: 0;"">Is there a person in this image?</p>
                    </div>
                </div>","0","main_experiment_trial","5","creative_activities_semantic","semantic_sequence","chronological","","","","","","",""
"","","","","","html-keyboard-response","69","324205","0.0-69.0","EE50FE4297774D8B955D4C33BA4B9BFE","019cfa71-bef6-797f-b8a8-b50545f07451","019cfa3a-388e-72ab-ad58-bdeb258f96cd","","null","
                <div class=""stimulus-container"">
                    <img src=""images/semantic_sequence/creative_activities_semantic/creative_activities_semantic_6.png"" class=""exp-image"">
                    <div class=""question-area""></div> 
                </div>","null","","","","","","","","","","","",""
"","","","","","html-button-response","70","324721","0.0-70.0","EE50FE4297774D8B955D4C33BA4B9BFE","019cfa71-bef6-797f-b8a8-b50545f07451","019cfa3a-388e-72ab-ad58-bdeb258f96cd","","516","
                <div class=""stimulus-container"">
                    <img src=""images/semantic_sequence/creative_activities_semantic/creative_activities_semantic_6.png"" class=""exp-image"">
                    <div class=""question-area"">
                        <p style=""font-size: 20px; font-weight: bold; margin: 0;"">Is there a person in this image?</p>
                    </div>
                </div>","0","main_experiment_trial","6","creative_activities_semantic","semantic_sequence","chronological","","","","","","",""
"","","","","","html-keyboard-response","71","325727","0.0-71.0","EE50FE4297774D8B955D4C33BA4B9BFE","019cfa71-bef6-797f-b8a8-b50545f07451","019cfa3a-388e-72ab-ad58-bdeb258f96cd","","null","
                <div class=""stimulus-container"">
                    <img src=""images/semantic_sequence/creative_activities_semantic/creative_activities_semantic_7.png"" class=""exp-image"">
                    <div class=""question-area""></div> 
                </div>","null","","","","","","","","","","","",""
"","","","","","html-button-response","72","326312","0.0-72.0","EE50FE4297774D8B955D4C33BA4B9BFE","019cfa71-bef6-797f-b8a8-b50545f07451","019cfa3a-388e-72ab-ad58-bdeb258f96cd","","584","
                <div class=""stimulus-container"">
                    <img src=""images/semantic_sequence/creative_activities_semantic/creative_activities_semantic_7.png"" class=""exp-image"">
                    <div class=""question-area"">
                        <p style=""font-size: 20px; font-weight: bold; margin: 0;"">Is there a person in this image?</p>
                    </div>
                </div>","0","main_experiment_trial","7","creative_activities_semantic","semantic_sequence","chronological","","","","","","",""
"","","","","","html-keyboard-response","73","327319","0.0-73.0","EE50FE4297774D8B955D4C33BA4B9BFE","019cfa71-bef6-797f-b8a8-b50545f07451","019cfa3a-388e-72ab-ad58-bdeb258f96cd","","null","
                <div class=""stimulus-container"">
                    <img src=""images/semantic_sequence/creative_activities_semantic/creative_activities_semantic_8.png"" class=""exp-image"">
                    <div class=""question-area""></div> 
                </div>","null","","","","","","","","","","","",""
"","","","","","html-button-response","74","327842","0.0-74.0","EE50FE4297774D8B955D4C33BA4B9BFE","019cfa71-bef6-797f-b8a8-b50545f07451","019cfa3a-388e-72ab-ad58-bdeb258f96cd","","523","
                <div class=""stimulus-container"">
                    <img src=""images/semantic_sequence/creative_activities_semantic/creative_activities_semantic_8.png"" class=""exp-image"">
                    <div class=""question-area"">
                        <p style=""font-size: 20px; font-weight: bold; margin: 0;"">Is there a person in this image?</p>
                    </div>
                </div>","0","main_experiment_trial","8","creative_activities_semantic","semantic_sequence","chronological","","","","","","",""
"","","","","","html-keyboard-response","75","328845","0.0-75.0","EE50FE4297774D8B955D4C33BA4B9BFE","019cfa71-bef6-797f-b8a8-b50545f07451","019cfa3a-388e-72ab-ad58-bdeb258f96cd","","null","
                <div class=""stimulus-container"">
                    <img src=""images/semantic_sequence/creative_activities_semantic/creative_activities_semantic_9.png"" class=""exp-image"">
                    <div class=""question-area""></div> 
                </div>","null","","","","","","","","","","","",""
"","","","","","html-button-response","76","329275","0.0-76.0","EE50FE4297774D8B955D4C33BA4B9BFE","019cfa71-bef6-797f-b8a8-b50545f07451","019cfa3a-388e-72ab-ad58-bdeb258f96cd","","428","
                <div class=""stimulus-container"">
                    <img src=""images/semantic_sequence/creative_activities_semantic/creative_activities_semantic_9.png"" class=""exp-image"">
                    <div class=""question-area"">
                        <p style=""font-size: 20px; font-weight: bold; margin: 0;"">Is there a person in this image?</p>
                    </div>
                </div>","0","main_experiment_trial","9","creative_activities_semantic","semantic_sequence","chronological","","","","","","",""
"","","","","","html-keyboard-response","77","330281","0.0-77.0","EE50FE4297774D8B955D4C33BA4B9BFE","019cfa71-bef6-797f-b8a8-b50545f07451","019cfa3a-388e-72ab-ad58-bdeb258f96cd","","null","
                <div class=""stimulus-container"">
                    <img src=""images/semantic_sequence/creative_activities_semantic/creative_activities_semantic_ten.png"" class=""exp-image"">
                    <div class=""question-area""></div> 
                </div>","null","","","","","","","","","","","",""
"","","","","","html-button-response","78","331558","0.0-78.0","EE50FE4297774D8B955D4C33BA4B9BFE","019cfa71-bef6-797f-b8a8-b50545f07451","019cfa3a-388e-72ab-ad58-bdeb258f96cd","","1276","
                <div class=""stimulus-container"">
                    <img src=""images/semantic_sequence/creative_activities_semantic/creative_activities_semantic_ten.png"" class=""exp-image"">
                    <div class=""question-area"">
                        <p style=""font-size: 20px; font-weight: bold; margin: 0;"">Is there a person in this image?</p>
                    </div>
                </div>","0","main_experiment_trial","ten","creative_activities_semantic","semantic_sequence","chronological","","","","","","",""
"","","","","","html-keyboard-response","79","336564","0.0-79.0","EE50FE4297774D8B955D4C33BA4B9BFE","019cfa71-bef6-797f-b8a8-b50545f07451","019cfa3a-388e-72ab-ad58-bdeb258f96cd","","null","<div style=""background-color: white; width: 100vw; height: 100vh;""></div>","null","","","","","","","","","","","",""
"","","","","","html-keyboard-response","80","337570","0.0-80.0","EE50FE4297774D8B955D4C33BA4B9BFE","019cfa71-bef6-797f-b8a8-b50545f07451","019cfa3a-388e-72ab-ad58-bdeb258f96cd","","null","
                <div class=""stimulus-container"">
                    <img src=""images/causal_sequence/the_performance_causal/the_performance_causal_1.png"" class=""exp-image"">
                    <div class=""question-area""></div> 
                </div>","null","","","","","","","","","","","",""
"","","","","","html-button-response","81","338572","0.0-81.0","EE50FE4297774D8B955D4C33BA4B9BFE","019cfa71-bef6-797f-b8a8-b50545f07451","019cfa3a-388e-72ab-ad58-bdeb258f96cd","","1001","
                <div class=""stimulus-container"">
                    <img src=""images/causal_sequence/the_performance_causal/the_performance_causal_1.png"" class=""exp-image"">
                    <div class=""question-area"">
                        <p style=""font-size: 20px; font-weight: bold; margin: 0;"">Is there a person in this image?</p>
                    </div>
                </div>","0","main_experiment_trial","1","the_performance_causal","causal_sequence","chronological","","","","","","",""
"","","","","","html-keyboard-response","82","339573","0.0-82.0","EE50FE4297774D8B955D4C33BA4B9BFE","019cfa71-bef6-797f-b8a8-b50545f07451","019cfa3a-388e-72ab-ad58-bdeb258f96cd","","null","
                <div class=""stimulus-container"">
                    <img src=""images/causal_sequence/the_performance_causal/the_performance_causal_2.png"" class=""exp-image"">
                    <div class=""question-area""></div> 
                </div>","null","","","","","","","","","","","",""
"","","","","","html-button-response","83","340151","0.0-83.0","EE50FE4297774D8B955D4C33BA4B9BFE","019cfa71-bef6-797f-b8a8-b50545f07451","019cfa3a-388e-72ab-ad58-bdeb258f96cd","","577","
                <div class=""stimulus-container"">
                    <img src=""images/causal_sequence/the_performance_causal/the_performance_causal_2.png"" class=""exp-image"">
                    <div class=""question-area"">
                        <p style=""font-size: 20px; font-weight: bold; margin: 0;"">Is there a person in this image?</p>
                    </div>
                </div>","0","main_experiment_trial","2","the_performance_causal","causal_sequence","chronological","","","","","","",""
"","","","","","html-keyboard-response","84","341158","0.0-84.0","EE50FE4297774D8B955D4C33BA4B9BFE","019cfa71-bef6-797f-b8a8-b50545f07451","019cfa3a-388e-72ab-ad58-bdeb258f96cd","","null","
                <div class=""stimulus-container"">
                    <img src=""images/causal_sequence/the_performance_causal/the_performance_causal_3.png"" class=""exp-image"">
                    <div class=""question-area""></div> 
                </div>","null","","","","","","","","","","","",""
"","","","","","html-button-response","85","341753","0.0-85.0","EE50FE4297774D8B955D4C33BA4B9BFE","019cfa71-bef6-797f-b8a8-b50545f07451","019cfa3a-388e-72ab-ad58-bdeb258f96cd","","595","
                <div class=""stimulus-container"">
                    <img src=""images/causal_sequence/the_performance_causal/the_performance_causal_3.png"" class=""exp-image"">
                    <div class=""question-area"">
                        <p style=""font-size: 20px; font-weight: bold; margin: 0;"">Is there a person in this image?</p>
                    </div>
                </div>","0","main_experiment_trial","3","the_performance_causal","causal_sequence","chronological","","","","","","",""
"","","","","","html-keyboard-response","86","342759","0.0-86.0","EE50FE4297774D8B955D4C33BA4B9BFE","019cfa71-bef6-797f-b8a8-b50545f07451","019cfa3a-388e-72ab-ad58-bdeb258f96cd","","null","
                <div class=""stimulus-container"">
                    <img src=""images/causal_sequence/the_performance_causal/the_performance_causal_4.png"" class=""exp-image"">
                    <div class=""question-area""></div> 
                </div>","null","","","","","","","","","","","",""
"","","","","","html-button-response","87","343288","0.0-87.0","EE50FE4297774D8B955D4C33BA4B9BFE","019cfa71-bef6-797f-b8a8-b50545f07451","019cfa3a-388e-72ab-ad58-bdeb258f96cd","","527","
                <div class=""stimulus-container"">
                    <img src=""images/causal_sequence/the_performance_causal/the_performance_causal_4.png"" class=""exp-image"">
                    <div class=""question-area"">
                        <p style=""font-size: 20px; font-weight: bold; margin: 0;"">Is there a person in this image?</p>
                    </div>
                </div>","0","main_experiment_trial","4","the_performance_causal","causal_sequence","chronological","","","","","","",""
"","","","","","html-keyboard-response","88","344294","0.0-88.0","EE50FE4297774D8B955D4C33BA4B9BFE","019cfa71-bef6-797f-b8a8-b50545f07451","019cfa3a-388e-72ab-ad58-bdeb258f96cd","","null","
                <div class=""stimulus-container"">
                    <img src=""images/causal_sequence/the_performance_causal/the_performance_causal_5.png"" class=""exp-image"">
                    <div class=""question-area""></div> 
                </div>","null","","","","","","","","","","","",""
"","","","","","html-button-response","89","344892","0.0-89.0","EE50FE4297774D8B955D4C33BA4B9BFE","019cfa71-bef6-797f-b8a8-b50545f07451","019cfa3a-388e-72ab-ad58-bdeb258f96cd","","596","
                <div class=""stimulus-container"">
                    <img src=""images/causal_sequence/the_performance_causal/the_performance_causal_5.png"" class=""exp-image"">
                    <div class=""question-area"">
                        <p style=""font-size: 20px; font-weight: bold; margin: 0;"">Is there a person in this image?</p>
                    </div>
                </div>","0","main_experiment_trial","5","the_performance_causal","causal_sequence","chronological","","","","","","",""
"","","","","","html-keyboard-response","90","345898","0.0-90.0","EE50FE4297774D8B955D4C33BA4B9BFE","019cfa71-bef6-797f-b8a8-b50545f07451","019cfa3a-388e-72ab-ad58-bdeb258f96cd","","null","
                <div class=""stimulus-container"">
                    <img src=""images/causal_sequence/the_performance_causal/the_performance_causal_6.png"" class=""exp-image"">
                    <div class=""question-area""></div> 
                </div>","null","","","","","","","","","","","",""
"","","","","","html-button-response","91","346434","0.0-91.0","EE50FE4297774D8B955D4C33BA4B9BFE","019cfa71-bef6-797f-b8a8-b50545f07451","019cfa3a-388e-72ab-ad58-bdeb258f96cd","","534","
                <div class=""stimulus-container"">
                    <img src=""images/causal_sequence/the_performance_causal/the_performance_causal_6.png"" class=""exp-image"">
                    <div class=""question-area"">
                        <p style=""font-size: 20px; font-weight: bold; margin: 0;"">Is there a person in this image?</p>
                    </div>
                </div>","0","main_experiment_trial","6","the_performance_causal","causal_sequence","chronological","","","","","","",""
"","","","","","html-keyboard-response","92","347443","0.0-92.0","EE50FE4297774D8B955D4C33BA4B9BFE","019cfa71-bef6-797f-b8a8-b50545f07451","019cfa3a-388e-72ab-ad58-bdeb258f96cd","","null","
                <div class=""stimulus-container"">
                    <img src=""images/causal_sequence/the_performance_causal/the_performance_causal_7.png"" class=""exp-image"">
                    <div class=""question-area""></div> 
                </div>","null","","","","","","","","","","","",""
"","","","","","html-button-response","93","348329","0.0-93.0","EE50FE4297774D8B955D4C33BA4B9BFE","019cfa71-bef6-797f-b8a8-b50545f07451","019cfa3a-388e-72ab-ad58-bdeb258f96cd","","885","
                <div class=""stimulus-container"">
                    <img src=""images/causal_sequence/the_performance_causal/the_performance_causal_7.png"" class=""exp-image"">
                    <div class=""question-area"">
                        <p style=""font-size: 20px; font-weight: bold; margin: 0;"">Is there a person in this image?</p>
                    </div>
                </div>","0","main_experiment_trial","7","the_performance_causal","causal_sequence","chronological","","","","","","",""
"","","","","","html-keyboard-response","94","349335","0.0-94.0","EE50FE4297774D8B955D4C33BA4B9BFE","019cfa71-bef6-797f-b8a8-b50545f07451","019cfa3a-388e-72ab-ad58-bdeb258f96cd","","null","
                <div class=""stimulus-container"">
                    <img src=""images/causal_sequence/the_performance_causal/the_performance_causal_8.png"" class=""exp-image"">
                    <div class=""question-area""></div> 
                </div>","null","","","","","","","","","","","",""
"","","","","","html-button-response","95","349974","0.0-95.0","EE50FE4297774D8B955D4C33BA4B9BFE","019cfa71-bef6-797f-b8a8-b50545f07451","019cfa3a-388e-72ab-ad58-bdeb258f96cd","","637","
                <div class=""stimulus-container"">
                    <img src=""images/causal_sequence/the_performance_causal/the_performance_causal_8.png"" class=""exp-image"">
                    <div class=""question-area"">
                        <p style=""font-size: 20px; font-weight: bold; margin: 0;"">Is there a person in this image?</p>
                    </div>
                </div>","0","main_experiment_trial","8","the_performance_causal","causal_sequence","chronological","","","","","","",""
"","","","","","html-keyboard-response","96","350981","0.0-96.0","EE50FE4297774D8B955D4C33BA4B9BFE","019cfa71-bef6-797f-b8a8-b50545f07451","019cfa3a-388e-72ab-ad58-bdeb258f96cd","","null","
                <div class=""stimulus-container"">
                    <img src=""images/causal_sequence/the_performance_causal/the_performance_causal_9.png"" class=""exp-image"">
                    <div class=""question-area""></div> 
                </div>","null","","","","","","","","","","","",""
"","","","","","html-button-response","97","351621","0.0-97.0","EE50FE4297774D8B955D4C33BA4B9BFE","019cfa71-bef6-797f-b8a8-b50545f07451","019cfa3a-388e-72ab-ad58-bdeb258f96cd","","639","
                <div class=""stimulus-container"">
                    <img src=""images/causal_sequence/the_performance_causal/the_performance_causal_9.png"" class=""exp-image"">
                    <div class=""question-area"">
                        <p style=""font-size: 20px; font-weight: bold; margin: 0;"">Is there a person in this image?</p>
                    </div>
                </div>","0","main_experiment_trial","9","the_performance_causal","causal_sequence","chronological","","","","","","",""
"","","","","","html-keyboard-response","98","352625","0.0-98.0","EE50FE4297774D8B955D4C33BA4B9BFE","019cfa71-bef6-797f-b8a8-b50545f07451","019cfa3a-388e-72ab-ad58-bdeb258f96cd","","null","
                <div class=""stimulus-container"">
                    <img src=""images/causal_sequence/the_performance_causal/the_performance_causal_ten.png"" class=""exp-image"">
                    <div class=""question-area""></div> 
                </div>","null","","","","","","","","","","","",""
"","","","","","html-button-response","99","353200","0.0-99.0","EE50FE4297774D8B955D4C33BA4B9BFE","019cfa71-bef6-797f-b8a8-b50545f07451","019cfa3a-388e-72ab-ad58-bdeb258f96cd","","574","
                <div class=""stimulus-container"">
                    <img src=""images/causal_sequence/the_performance_causal/the_performance_causal_ten.png"" class=""exp-image"">
                    <div class=""question-area"">
                        <p style=""font-size: 20px; font-weight: bold; margin: 0;"">Is there a person in this image?</p>
                    </div>
                </div>","0","main_experiment_trial","ten","the_performance_causal","causal_sequence","chronological","","","","","","",""
"","","","","","html-keyboard-response","100","358201","0.0-100.0","EE50FE4297774D8B955D4C33BA4B9BFE","019cfa71-bef6-797f-b8a8-b50545f07451","019cfa3a-388e-72ab-ad58-bdeb258f96cd","","null","<div style=""background-color: white; width: 100vw; height: 100vh;""></div>","null","","","","","","","","","","","",""
"","","","","","html-keyboard-response","101","359204","0.0-101.0","EE50FE4297774D8B955D4C33BA4B9BFE","019cfa71-bef6-797f-b8a8-b50545f07451","019cfa3a-388e-72ab-ad58-bdeb258f96cd","","null","
                <div class=""stimulus-container"">
                    <img src=""images/causal_sequence/package_causal/package_causal_1.png"" class=""exp-image"">
                    <div class=""question-area""></div> 
                </div>","null","","","","","","","","","","","",""
"","","","","","html-button-response","102","360055","0.0-102.0","EE50FE4297774D8B955D4C33BA4B9BFE","019cfa71-bef6-797f-b8a8-b50545f07451","019cfa3a-388e-72ab-ad58-bdeb258f96cd","","849","
                <div class=""stimulus-container"">
                    <img src=""images/causal_sequence/package_causal/package_causal_1.png"" class=""exp-image"">
                    <div class=""question-area"">
                        <p style=""font-size: 20px; font-weight: bold; margin: 0;"">Is there a person in this image?</p>
                    </div>
                </div>","0","main_experiment_trial","1","package_causal","causal_sequence","chronological","","","","","","",""
"","","","","","html-keyboard-response","103","361057","0.0-103.0","EE50FE4297774D8B955D4C33BA4B9BFE","019cfa71-bef6-797f-b8a8-b50545f07451","019cfa3a-388e-72ab-ad58-bdeb258f96cd","","null","
                <div class=""stimulus-container"">
                    <img src=""images/causal_sequence/package_causal/package_causal_2.png"" class=""exp-image"">
                    <div class=""question-area""></div> 
                </div>","null","","","","","","","","","","","",""
"","","","","","html-button-response","104","361576","0.0-104.0","EE50FE4297774D8B955D4C33BA4B9BFE","019cfa71-bef6-797f-b8a8-b50545f07451","019cfa3a-388e-72ab-ad58-bdeb258f96cd","","520","
                <div class=""stimulus-container"">
                    <img src=""images/causal_sequence/package_causal/package_causal_2.png"" class=""exp-image"">
                    <div class=""question-area"">
                        <p style=""font-size: 20px; font-weight: bold; margin: 0;"">Is there a person in this image?</p>
                    </div>
                </div>","0","main_experiment_trial","2","package_causal","causal_sequence","chronological","","","","","","",""
"","","","","","html-keyboard-response","105","362580","0.0-105.0","EE50FE4297774D8B955D4C33BA4B9BFE","019cfa71-bef6-797f-b8a8-b50545f07451","019cfa3a-388e-72ab-ad58-bdeb258f96cd","","null","
                <div class=""stimulus-container"">
                    <img src=""images/causal_sequence/package_causal/package_causal_3.png"" class=""exp-image"">
                    <div class=""question-area""></div> 
                </div>","null","","","","","","","","","","","",""
"","","","","","html-button-response","106","363469","0.0-106.0","EE50FE4297774D8B955D4C33BA4B9BFE","019cfa71-bef6-797f-b8a8-b50545f07451","019cfa3a-388e-72ab-ad58-bdeb258f96cd","","888","
                <div class=""stimulus-container"">
                    <img src=""images/causal_sequence/package_causal/package_causal_3.png"" class=""exp-image"">
                    <div class=""question-area"">
                        <p style=""font-size: 20px; font-weight: bold; margin: 0;"">Is there a person in this image?</p>
                    </div>
                </div>","0","main_experiment_trial","3","package_causal","causal_sequence","chronological","","","","","","",""
"","","","","","html-keyboard-response","107","364470","0.0-107.0","EE50FE4297774D8B955D4C33BA4B9BFE","019cfa71-bef6-797f-b8a8-b50545f07451","019cfa3a-388e-72ab-ad58-bdeb258f96cd","","null","
                <div class=""stimulus-container"">
                    <img src=""images/causal_sequence/package_causal/package_causal_4.png"" class=""exp-image"">
                    <div class=""question-area""></div> 
                </div>","null","","","","","","","","","","","",""
"","","","","","html-button-response","108","365039","0.0-108.0","EE50FE4297774D8B955D4C33BA4B9BFE","019cfa71-bef6-797f-b8a8-b50545f07451","019cfa3a-388e-72ab-ad58-bdeb258f96cd","","569","
                <div class=""stimulus-container"">
                    <img src=""images/causal_sequence/package_causal/package_causal_4.png"" class=""exp-image"">
                    <div class=""question-area"">
                        <p style=""font-size: 20px; font-weight: bold; margin: 0;"">Is there a person in this image?</p>
                    </div>
                </div>","0","main_experiment_trial","4","package_causal","causal_sequence","chronological","","","","","","",""
"","","","","","html-keyboard-response","109","366062","0.0-109.0","EE50FE4297774D8B955D4C33BA4B9BFE","019cfa71-bef6-797f-b8a8-b50545f07451","019cfa3a-388e-72ab-ad58-bdeb258f96cd","","null","
                <div class=""stimulus-container"">
                    <img src=""images/causal_sequence/package_causal/package_causal_5.png"" class=""exp-image"">
                    <div class=""question-area""></div> 
                </div>","null","","","","","","","","","","","",""
"","","","","","html-button-response","110","366674","0.0-110.0","EE50FE4297774D8B955D4C33BA4B9BFE","019cfa71-bef6-797f-b8a8-b50545f07451","019cfa3a-388e-72ab-ad58-bdeb258f96cd","","612","
                <div class=""stimulus-container"">
                    <img src=""images/causal_sequence/package_causal/package_causal_5.png"" class=""exp-image"">
                    <div class=""question-area"">
                        <p style=""font-size: 20px; font-weight: bold; margin: 0;"">Is there a person in this image?</p>
                    </div>
                </div>","0","main_experiment_trial","5","package_causal","causal_sequence","chronological","","","","","","",""
"","","","","","html-keyboard-response","111","367680","0.0-111.0","EE50FE4297774D8B955D4C33BA4B9BFE","019cfa71-bef6-797f-b8a8-b50545f07451","019cfa3a-388e-72ab-ad58-bdeb258f96cd","","null","
                <div class=""stimulus-container"">
                    <img src=""images/causal_sequence/package_causal/package_causal_6.png"" class=""exp-image"">
                    <div class=""question-area""></div> 
                </div>","null","","","","","","","","","","","",""
"","","","","","html-button-response","112","368283","0.0-112.0","EE50FE4297774D8B955D4C33BA4B9BFE","019cfa71-bef6-797f-b8a8-b50545f07451","019cfa3a-388e-72ab-ad58-bdeb258f96cd","","601","
                <div class=""stimulus-container"">
                    <img src=""images/causal_sequence/package_causal/package_causal_6.png"" class=""exp-image"">
                    <div class=""question-area"">
                        <p style=""font-size: 20px; font-weight: bold; margin: 0;"">Is there a person in this image?</p>
                    </div>
                </div>","0","main_experiment_trial","6","package_causal","causal_sequence","chronological","","","","","","",""
"","","","","","html-keyboard-response","113","369290","0.0-113.0","EE50FE4297774D8B955D4C33BA4B9BFE","019cfa71-bef6-797f-b8a8-b50545f07451","019cfa3a-388e-72ab-ad58-bdeb258f96cd","","null","
                <div class=""stimulus-container"">
                    <img src=""images/causal_sequence/package_causal/package_causal_7.png"" class=""exp-image"">
                    <div class=""question-area""></div> 
                </div>","null","","","","","","","","","","","",""
"","","","","","html-button-response","114","370634","0.0-114.0","EE50FE4297774D8B955D4C33BA4B9BFE","019cfa71-bef6-797f-b8a8-b50545f07451","019cfa3a-388e-72ab-ad58-bdeb258f96cd","","1345","
                <div class=""stimulus-container"">
                    <img src=""images/causal_sequence/package_causal/package_causal_7.png"" class=""exp-image"">
                    <div class=""question-area"">
                        <p style=""font-size: 20px; font-weight: bold; margin: 0;"">Is there a person in this image?</p>
                    </div>
                </div>","0","main_experiment_trial","7","package_causal","causal_sequence","chronological","","","","","","",""
"","","","","","html-keyboard-response","115","371640","0.0-115.0","EE50FE4297774D8B955D4C33BA4B9BFE","019cfa71-bef6-797f-b8a8-b50545f07451","019cfa3a-388e-72ab-ad58-bdeb258f96cd","","null","
                <div class=""stimulus-container"">
                    <img src=""images/causal_sequence/package_causal/package_causal_8.png"" class=""exp-image"">
                    <div class=""question-area""></div> 
                </div>","null","","","","","","","","","","","",""
"","","","","","html-button-response","116","372503","0.0-116.0","EE50FE4297774D8B955D4C33BA4B9BFE","019cfa71-bef6-797f-b8a8-b50545f07451","019cfa3a-388e-72ab-ad58-bdeb258f96cd","","862","
                <div class=""stimulus-container"">
                    <img src=""images/causal_sequence/package_causal/package_causal_8.png"" class=""exp-image"">
                    <div class=""question-area"">
                        <p style=""font-size: 20px; font-weight: bold; margin: 0;"">Is there a person in this image?</p>
                    </div>
                </div>","0","main_experiment_trial","8","package_causal","causal_sequence","chronological","","","","","","",""
"","","","","","html-keyboard-response","117","373505","0.0-117.0","EE50FE4297774D8B955D4C33BA4B9BFE","019cfa71-bef6-797f-b8a8-b50545f07451","019cfa3a-388e-72ab-ad58-bdeb258f96cd","","null","
                <div class=""stimulus-container"">
                    <img src=""images/causal_sequence/package_causal/package_causal_9.png"" class=""exp-image"">
                    <div class=""question-area""></div> 
                </div>","null","","","","","","","","","","","",""
"","","","","","html-button-response","118","374617","0.0-118.0","EE50FE4297774D8B955D4C33BA4B9BFE","019cfa71-bef6-797f-b8a8-b50545f07451","019cfa3a-388e-72ab-ad58-bdeb258f96cd","","1112","
                <div class=""stimulus-container"">
                    <img src=""images/causal_sequence/package_causal/package_causal_9.png"" class=""exp-image"">
                    <div class=""question-area"">
                        <p style=""font-size: 20px; font-weight: bold; margin: 0;"">Is there a person in this image?</p>
                    </div>
                </div>","0","main_experiment_trial","9","package_causal","causal_sequence","chronological","","","","","","",""
"","","","","","html-keyboard-response","119","375625","0.0-119.0","EE50FE4297774D8B955D4C33BA4B9BFE","019cfa71-bef6-797f-b8a8-b50545f07451","019cfa3a-388e-72ab-ad58-bdeb258f96cd","","null","
                <div class=""stimulus-container"">
                    <img src=""images/causal_sequence/package_causal/package_causal_ten.png"" class=""exp-image"">
                    <div class=""question-area""></div> 
                </div>","null","","","","","","","","","","","",""
"","","","","","html-button-response","120","376568","0.0-120.0","EE50FE4297774D8B955D4C33BA4B9BFE","019cfa71-bef6-797f-b8a8-b50545f07451","019cfa3a-388e-72ab-ad58-bdeb258f96cd","","941","
                <div class=""stimulus-container"">
                    <img src=""images/causal_sequence/package_causal/package_causal_ten.png"" class=""exp-image"">
                    <div class=""question-area"">
                        <p style=""font-size: 20px; font-weight: bold; margin: 0;"">Is there a person in this image?</p>
                    </div>
                </div>","0","main_experiment_trial","ten","package_causal","causal_sequence","chronological","","","","","","",""
"","","","","","html-keyboard-response","121","381648","0.0-121.0","EE50FE4297774D8B955D4C33BA4B9BFE","019cfa71-bef6-797f-b8a8-b50545f07451","019cfa3a-388e-72ab-ad58-bdeb258f96cd","","null","<div style=""background-color: white; width: 100vw; height: 100vh;""></div>","null","","","","","","","","","","","",""
"","","","","","html-keyboard-response","122","382654","0.0-122.0","EE50FE4297774D8B955D4C33BA4B9BFE","019cfa71-bef6-797f-b8a8-b50545f07451","019cfa3a-388e-72ab-ad58-bdeb258f96cd","","null","
                <div class=""stimulus-container"">
                    <img src=""images/semantic_sequence/market_semantic/market_semantic_1.png"" class=""exp-image"">
                    <div class=""question-area""></div> 
                </div>","null","","","","","","","","","","","",""
"","","","","","html-button-response","123","383873","0.0-123.0","EE50FE4297774D8B955D4C33BA4B9BFE","019cfa71-bef6-797f-b8a8-b50545f07451","019cfa3a-388e-72ab-ad58-bdeb258f96cd","","1218","
                <div class=""stimulus-container"">
                    <img src=""images/semantic_sequence/market_semantic/market_semantic_1.png"" class=""exp-image"">
                    <div class=""question-area"">
                        <p style=""font-size: 20px; font-weight: bold; margin: 0;"">Is there a person in this image?</p>
                    </div>
                </div>","0","main_experiment_trial","1","market_semantic","semantic_sequence","chronological","","","","","","",""
"","","","","","html-keyboard-response","124","384880","0.0-124.0","EE50FE4297774D8B955D4C33BA4B9BFE","019cfa71-bef6-797f-b8a8-b50545f07451","019cfa3a-388e-72ab-ad58-bdeb258f96cd","","null","
                <div class=""stimulus-container"">
                    <img src=""images/semantic_sequence/market_semantic/market_semantic_2.png"" class=""exp-image"">
                    <div class=""question-area""></div> 
                </div>","null","","","","","","","","","","","",""
"","","","","","html-button-response","125","385770","0.0-125.0","EE50FE4297774D8B955D4C33BA4B9BFE","019cfa71-bef6-797f-b8a8-b50545f07451","019cfa3a-388e-72ab-ad58-bdeb258f96cd","","890","
                <div class=""stimulus-container"">
                    <img src=""images/semantic_sequence/market_semantic/market_semantic_2.png"" class=""exp-image"">
                    <div class=""question-area"">
                        <p style=""font-size: 20px; font-weight: bold; margin: 0;"">Is there a person in this image?</p>
                    </div>
                </div>","0","main_experiment_trial","2","market_semantic","semantic_sequence","chronological","","","","","","",""
"","","","","","html-keyboard-response","126","386774","0.0-126.0","EE50FE4297774D8B955D4C33BA4B9BFE","019cfa71-bef6-797f-b8a8-b50545f07451","019cfa3a-388e-72ab-ad58-bdeb258f96cd","","null","
                <div class=""stimulus-container"">
                    <img src=""images/semantic_sequence/market_semantic/market_semantic_3.png"" class=""exp-image"">
                    <div class=""question-area""></div> 
                </div>","null","","","","","","","","","","","",""
"","","","","","html-button-response","127","387463","0.0-127.0","EE50FE4297774D8B955D4C33BA4B9BFE","019cfa71-bef6-797f-b8a8-b50545f07451","019cfa3a-388e-72ab-ad58-bdeb258f96cd","","688","
                <div class=""stimulus-container"">
                    <img src=""images/semantic_sequence/market_semantic/market_semantic_3.png"" class=""exp-image"">
                    <div class=""question-area"">
                        <p style=""font-size: 20px; font-weight: bold; margin: 0;"">Is there a person in this image?</p>
                    </div>
                </div>","0","main_experiment_trial","3","market_semantic","semantic_sequence","chronological","","","","","","",""
"","","","","","html-keyboard-response","128","388464","0.0-128.0","EE50FE4297774D8B955D4C33BA4B9BFE","019cfa71-bef6-797f-b8a8-b50545f07451","019cfa3a-388e-72ab-ad58-bdeb258f96cd","","null","
                <div class=""stimulus-container"">
                    <img src=""images/semantic_sequence/market_semantic/market_semantic_4.png"" class=""exp-image"">
                    <div class=""question-area""></div> 
                </div>","null","","","","","","","","","","","",""
"","","","","","html-button-response","129","389363","0.0-129.0","EE50FE4297774D8B955D4C33BA4B9BFE","019cfa71-bef6-797f-b8a8-b50545f07451","019cfa3a-388e-72ab-ad58-bdeb258f96cd","","898","
                <div class=""stimulus-container"">
                    <img src=""images/semantic_sequence/market_semantic/market_semantic_4.png"" class=""exp-image"">
                    <div class=""question-area"">
                        <p style=""font-size: 20px; font-weight: bold; margin: 0;"">Is there a person in this image?</p>
                    </div>
                </div>","0","main_experiment_trial","4","market_semantic","semantic_sequence","chronological","","","","","","",""
"","","","","","html-keyboard-response","130","390468","0.0-130.0","EE50FE4297774D8B955D4C33BA4B9BFE","019cfa71-bef6-797f-b8a8-b50545f07451","019cfa3a-388e-72ab-ad58-bdeb258f96cd","","null","
                <div class=""stimulus-container"">
                    <img src=""images/semantic_sequence/market_semantic/market_semantic_5.png"" class=""exp-image"">
                    <div class=""question-area""></div> 
                </div>","null","","","","","","","","","","","",""
"","","","","","html-button-response","131","391365","0.0-131.0","EE50FE4297774D8B955D4C33BA4B9BFE","019cfa71-bef6-797f-b8a8-b50545f07451","019cfa3a-388e-72ab-ad58-bdeb258f96cd","","896","
                <div class=""stimulus-container"">
                    <img src=""images/semantic_sequence/market_semantic/market_semantic_5.png"" class=""exp-image"">
                    <div class=""question-area"">
                        <p style=""font-size: 20px; font-weight: bold; margin: 0;"">Is there a person in this image?</p>
                    </div>
                </div>","0","main_experiment_trial","5","market_semantic","semantic_sequence","chronological","","","","","","",""
"","","","","","html-keyboard-response","132","392370","0.0-132.0","EE50FE4297774D8B955D4C33BA4B9BFE","019cfa71-bef6-797f-b8a8-b50545f07451","019cfa3a-388e-72ab-ad58-bdeb258f96cd","","null","
                <div class=""stimulus-container"">
                    <img src=""images/semantic_sequence/market_semantic/market_semantic_6.png"" class=""exp-image"">
                    <div class=""question-area""></div> 
                </div>","null","","","","","","","","","","","",""
"","","","","","html-button-response","133","393270","0.0-133.0","EE50FE4297774D8B955D4C33BA4B9BFE","019cfa71-bef6-797f-b8a8-b50545f07451","019cfa3a-388e-72ab-ad58-bdeb258f96cd","","900","
                <div class=""stimulus-container"">
                    <img src=""images/semantic_sequence/market_semantic/market_semantic_6.png"" class=""exp-image"">
                    <div class=""question-area"">
                        <p style=""font-size: 20px; font-weight: bold; margin: 0;"">Is there a person in this image?</p>
                    </div>
                </div>","0","main_experiment_trial","6","market_semantic","semantic_sequence","chronological","","","","","","",""
"","","","","","html-keyboard-response","134","394271","0.0-134.0","EE50FE4297774D8B955D4C33BA4B9BFE","019cfa71-bef6-797f-b8a8-b50545f07451","019cfa3a-388e-72ab-ad58-bdeb258f96cd","","null","
                <div class=""stimulus-container"">
                    <img src=""images/semantic_sequence/market_semantic/market_semantic_7.png"" class=""exp-image"">
                    <div class=""question-area""></div> 
                </div>","null","","","","","","","","","","","",""
"","","","","","html-button-response","135","395222","0.0-135.0","EE50FE4297774D8B955D4C33BA4B9BFE","019cfa71-bef6-797f-b8a8-b50545f07451","019cfa3a-388e-72ab-ad58-bdeb258f96cd","","951","
                <div class=""stimulus-container"">
                    <img src=""images/semantic_sequence/market_semantic/market_semantic_7.png"" class=""exp-image"">
                    <div class=""question-area"">
                        <p style=""font-size: 20px; font-weight: bold; margin: 0;"">Is there a person in this image?</p>
                    </div>
                </div>","0","main_experiment_trial","7","market_semantic","semantic_sequence","chronological","","","","","","",""
"","","","","","html-keyboard-response","136","396224","0.0-136.0","EE50FE4297774D8B955D4C33BA4B9BFE","019cfa71-bef6-797f-b8a8-b50545f07451","019cfa3a-388e-72ab-ad58-bdeb258f96cd","","null","
                <div class=""stimulus-container"">
                    <img src=""images/semantic_sequence/market_semantic/market_semantic_8.png"" class=""exp-image"">
                    <div class=""question-area""></div> 
                </div>","null","","","","","","","","","","","",""
"","","","","","html-button-response","137","396884","0.0-137.0","EE50FE4297774D8B955D4C33BA4B9BFE","019cfa71-bef6-797f-b8a8-b50545f07451","019cfa3a-388e-72ab-ad58-bdeb258f96cd","","659","
                <div class=""stimulus-container"">
                    <img src=""images/semantic_sequence/market_semantic/market_semantic_8.png"" class=""exp-image"">
                    <div class=""question-area"">
                        <p style=""font-size: 20px; font-weight: bold; margin: 0;"">Is there a person in this image?</p>
                    </div>
                </div>","0","main_experiment_trial","8","market_semantic","semantic_sequence","chronological","","","","","","",""
"","","","","","html-keyboard-response","138","397885","0.0-138.0","EE50FE4297774D8B955D4C33BA4B9BFE","019cfa71-bef6-797f-b8a8-b50545f07451","019cfa3a-388e-72ab-ad58-bdeb258f96cd","","null","
                <div class=""stimulus-container"">
                    <img src=""images/semantic_sequence/market_semantic/market_semantic_9.png"" class=""exp-image"">
                    <div class=""question-area""></div> 
                </div>","null","","","","","","","","","","","",""
"","","","","","html-button-response","139","398731","0.0-139.0","EE50FE4297774D8B955D4C33BA4B9BFE","019cfa71-bef6-797f-b8a8-b50545f07451","019cfa3a-388e-72ab-ad58-bdeb258f96cd","","845","
                <div class=""stimulus-container"">
                    <img src=""images/semantic_sequence/market_semantic/market_semantic_9.png"" class=""exp-image"">
                    <div class=""question-area"">
                        <p style=""font-size: 20px; font-weight: bold; margin: 0;"">Is there a person in this image?</p>
                    </div>
                </div>","1","main_experiment_trial","9","market_semantic","semantic_sequence","chronological","","","","","","",""
"","","","","","html-keyboard-response","140","399737","0.0-140.0","EE50FE4297774D8B955D4C33BA4B9BFE","019cfa71-bef6-797f-b8a8-b50545f07451","019cfa3a-388e-72ab-ad58-bdeb258f96cd","","null","
                <div class=""stimulus-container"">
                    <img src=""images/semantic_sequence/market_semantic/market_semantic_ten.png"" class=""exp-image"">
                    <div class=""question-area""></div> 
                </div>","null","","","","","","","","","","","",""
"","","","","","html-button-response","141","401397","0.0-141.0","EE50FE4297774D8B955D4C33BA4B9BFE","019cfa71-bef6-797f-b8a8-b50545f07451","019cfa3a-388e-72ab-ad58-bdeb258f96cd","","1661","
                <div class=""stimulus-container"">
                    <img src=""images/semantic_sequence/market_semantic/market_semantic_ten.png"" class=""exp-image"">
                    <div class=""question-area"">
                        <p style=""font-size: 20px; font-weight: bold; margin: 0;"">Is there a person in this image?</p>
                    </div>
                </div>","1","main_experiment_trial","ten","market_semantic","semantic_sequence","chronological","","","","","","",""
"","","","","","html-keyboard-response","142","406399","0.0-142.0","EE50FE4297774D8B955D4C33BA4B9BFE","019cfa71-bef6-797f-b8a8-b50545f07451","019cfa3a-388e-72ab-ad58-bdeb258f96cd","","null","<div style=""background-color: white; width: 100vw; height: 100vh;""></div>","null","","","","","","","","","","","",""
"","","","","","html-keyboard-response","143","407428","0.0-143.0","EE50FE4297774D8B955D4C33BA4B9BFE","019cfa71-bef6-797f-b8a8-b50545f07451","019cfa3a-388e-72ab-ad58-bdeb258f96cd","","null","
                <div class=""stimulus-container"">
                    <img src=""images/semantic_sequence/kitchen_operations_semantic/kitchen_operations_semantic_1.png"" class=""exp-image"">
                    <div class=""question-area""></div> 
                </div>","null","","","","","","","","","","","",""
"","","","","","html-button-response","144","408359","0.0-144.0","EE50FE4297774D8B955D4C33BA4B9BFE","019cfa71-bef6-797f-b8a8-b50545f07451","019cfa3a-388e-72ab-ad58-bdeb258f96cd","","930","
                <div class=""stimulus-container"">
                    <img src=""images/semantic_sequence/kitchen_operations_semantic/kitchen_operations_semantic_1.png"" class=""exp-image"">
                    <div class=""question-area"">
                        <p style=""font-size: 20px; font-weight: bold; margin: 0;"">Is there a person in this image?</p>
                    </div>
                </div>","0","main_experiment_trial","1","kitchen_operations_semantic","semantic_sequence","chronological","","","","","","",""
"","","","","","html-keyboard-response","145","409365","0.0-145.0","EE50FE4297774D8B955D4C33BA4B9BFE","019cfa71-bef6-797f-b8a8-b50545f07451","019cfa3a-388e-72ab-ad58-bdeb258f96cd","","null","
                <div class=""stimulus-container"">
                    <img src=""images/semantic_sequence/kitchen_operations_semantic/kitchen_operations_semantic_2.png"" class=""exp-image"">
                    <div class=""question-area""></div> 
                </div>","null","","","","","","","","","","","",""
"","","","","","html-button-response","146","409828","0.0-146.0","EE50FE4297774D8B955D4C33BA4B9BFE","019cfa71-bef6-797f-b8a8-b50545f07451","019cfa3a-388e-72ab-ad58-bdeb258f96cd","","462","
                <div class=""stimulus-container"">
                    <img src=""images/semantic_sequence/kitchen_operations_semantic/kitchen_operations_semantic_2.png"" class=""exp-image"">
                    <div class=""question-area"">
                        <p style=""font-size: 20px; font-weight: bold; margin: 0;"">Is there a person in this image?</p>
                    </div>
                </div>","0","main_experiment_trial","2","kitchen_operations_semantic","semantic_sequence","chronological","","","","","","",""
"","","","","","html-keyboard-response","147","410834","0.0-147.0","EE50FE4297774D8B955D4C33BA4B9BFE","019cfa71-bef6-797f-b8a8-b50545f07451","019cfa3a-388e-72ab-ad58-bdeb258f96cd","","null","
                <div class=""stimulus-container"">
                    <img src=""images/semantic_sequence/kitchen_operations_semantic/kitchen_operations_semantic_3.png"" class=""exp-image"">
                    <div class=""question-area""></div> 
                </div>","null","","","","","","","","","","","",""
"","","","","","html-button-response","148","411447","0.0-148.0","EE50FE4297774D8B955D4C33BA4B9BFE","019cfa71-bef6-797f-b8a8-b50545f07451","019cfa3a-388e-72ab-ad58-bdeb258f96cd","","613","
                <div class=""stimulus-container"">
                    <img src=""images/semantic_sequence/kitchen_operations_semantic/kitchen_operations_semantic_3.png"" class=""exp-image"">
                    <div class=""question-area"">
                        <p style=""font-size: 20px; font-weight: bold; margin: 0;"">Is there a person in this image?</p>
                    </div>
                </div>","0","main_experiment_trial","3","kitchen_operations_semantic","semantic_sequence","chronological","","","","","","",""
"","","","","","html-keyboard-response","149","412453","0.0-149.0","EE50FE4297774D8B955D4C33BA4B9BFE","019cfa71-bef6-797f-b8a8-b50545f07451","019cfa3a-388e-72ab-ad58-bdeb258f96cd","","null","
                <div class=""stimulus-container"">
                    <img src=""images/semantic_sequence/kitchen_operations_semantic/kitchen_operations_semantic_4.png"" class=""exp-image"">
                    <div class=""question-area""></div> 
                </div>","null","","","","","","","","","","","",""
"","","","","","html-button-response","150","412972","0.0-150.0","EE50FE4297774D8B955D4C33BA4B9BFE","019cfa71-bef6-797f-b8a8-b50545f07451","019cfa3a-388e-72ab-ad58-bdeb258f96cd","","519","
                <div class=""stimulus-container"">
                    <img src=""images/semantic_sequence/kitchen_operations_semantic/kitchen_operations_semantic_4.png"" class=""exp-image"">
                    <div class=""question-area"">
                        <p style=""font-size: 20px; font-weight: bold; margin: 0;"">Is there a person in this image?</p>
                    </div>
                </div>","0","main_experiment_trial","4","kitchen_operations_semantic","semantic_sequence","chronological","","","","","","",""
"","","","","","html-keyboard-response","151","413978","0.0-151.0","EE50FE4297774D8B955D4C33BA4B9BFE","019cfa71-bef6-797f-b8a8-b50545f07451","019cfa3a-388e-72ab-ad58-bdeb258f96cd","","null","
                <div class=""stimulus-container"">
                    <img src=""images/semantic_sequence/kitchen_operations_semantic/kitchen_operations_semantic_5.png"" class=""exp-image"">
                    <div class=""question-area""></div> 
                </div>","null","","","","","","","","","","","",""
"","","","","","html-button-response","152","414551","0.0-152.0","EE50FE4297774D8B955D4C33BA4B9BFE","019cfa71-bef6-797f-b8a8-b50545f07451","019cfa3a-388e-72ab-ad58-bdeb258f96cd","","573","
                <div class=""stimulus-container"">
                    <img src=""images/semantic_sequence/kitchen_operations_semantic/kitchen_operations_semantic_5.png"" class=""exp-image"">
                    <div class=""question-area"">
                        <p style=""font-size: 20px; font-weight: bold; margin: 0;"">Is there a person in this image?</p>
                    </div>
                </div>","0","main_experiment_trial","5","kitchen_operations_semantic","semantic_sequence","chronological","","","","","","",""
"","","","","","html-keyboard-response","153","415557","0.0-153.0","EE50FE4297774D8B955D4C33BA4B9BFE","019cfa71-bef6-797f-b8a8-b50545f07451","019cfa3a-388e-72ab-ad58-bdeb258f96cd","","null","
                <div class=""stimulus-container"">
                    <img src=""images/semantic_sequence/kitchen_operations_semantic/kitchen_operations_semantic_6.png"" class=""exp-image"">
                    <div class=""question-area""></div> 
                </div>","null","","","","","","","","","","","",""
"","","","","","html-button-response","154","416106","0.0-154.0","EE50FE4297774D8B955D4C33BA4B9BFE","019cfa71-bef6-797f-b8a8-b50545f07451","019cfa3a-388e-72ab-ad58-bdeb258f96cd","","546","
                <div class=""stimulus-container"">
                    <img src=""images/semantic_sequence/kitchen_operations_semantic/kitchen_operations_semantic_6.png"" class=""exp-image"">
                    <div class=""question-area"">
                        <p style=""font-size: 20px; font-weight: bold; margin: 0;"">Is there a person in this image?</p>
                    </div>
                </div>","0","main_experiment_trial","6","kitchen_operations_semantic","semantic_sequence","chronological","","","","","","",""
"","","","","","html-keyboard-response","155","417108","0.0-155.0","EE50FE4297774D8B955D4C33BA4B9BFE","019cfa71-bef6-797f-b8a8-b50545f07451","019cfa3a-388e-72ab-ad58-bdeb258f96cd","","null","
                <div class=""stimulus-container"">
                    <img src=""images/semantic_sequence/kitchen_operations_semantic/kitchen_operations_semantic_7.png"" class=""exp-image"">
                    <div class=""question-area""></div> 
                </div>","null","","","","","","","","","","","",""
"","","","","","html-button-response","156","417915","0.0-156.0","EE50FE4297774D8B955D4C33BA4B9BFE","019cfa71-bef6-797f-b8a8-b50545f07451","019cfa3a-388e-72ab-ad58-bdeb258f96cd","","808","
                <div class=""stimulus-container"">
                    <img src=""images/semantic_sequence/kitchen_operations_semantic/kitchen_operations_semantic_7.png"" class=""exp-image"">
                    <div class=""question-area"">
                        <p style=""font-size: 20px; font-weight: bold; margin: 0;"">Is there a person in this image?</p>
                    </div>
                </div>","0","main_experiment_trial","7","kitchen_operations_semantic","semantic_sequence","chronological","","","","","","",""
"","","","","","html-keyboard-response","157","418918","0.0-157.0","EE50FE4297774D8B955D4C33BA4B9BFE","019cfa71-bef6-797f-b8a8-b50545f07451","019cfa3a-388e-72ab-ad58-bdeb258f96cd","","null","
                <div class=""stimulus-container"">
                    <img src=""images/semantic_sequence/kitchen_operations_semantic/kitchen_operations_semantic_8.png"" class=""exp-image"">
                    <div class=""question-area""></div> 
                </div>","null","","","","","","","","","","","",""
"","","","","","html-button-response","158","419542","0.0-158.0","EE50FE4297774D8B955D4C33BA4B9BFE","019cfa71-bef6-797f-b8a8-b50545f07451","019cfa3a-388e-72ab-ad58-bdeb258f96cd","","624","
                <div class=""stimulus-container"">
                    <img src=""images/semantic_sequence/kitchen_operations_semantic/kitchen_operations_semantic_8.png"" class=""exp-image"">
                    <div class=""question-area"">
                        <p style=""font-size: 20px; font-weight: bold; margin: 0;"">Is there a person in this image?</p>
                    </div>
                </div>","0","main_experiment_trial","8","kitchen_operations_semantic","semantic_sequence","chronological","","","","","","",""
"","","","","","html-keyboard-response","159","420544","0.0-159.0","EE50FE4297774D8B955D4C33BA4B9BFE","019cfa71-bef6-797f-b8a8-b50545f07451","019cfa3a-388e-72ab-ad58-bdeb258f96cd","","null","
                <div class=""stimulus-container"">
                    <img src=""images/semantic_sequence/kitchen_operations_semantic/kitchen_operations_semantic_9.png"" class=""exp-image"">
                    <div class=""question-area""></div> 
                </div>","null","","","","","","","","","","","",""
"","","","","","html-button-response","160","421085","0.0-160.0","EE50FE4297774D8B955D4C33BA4B9BFE","019cfa71-bef6-797f-b8a8-b50545f07451","019cfa3a-388e-72ab-ad58-bdeb258f96cd","","540","
                <div class=""stimulus-container"">
                    <img src=""images/semantic_sequence/kitchen_operations_semantic/kitchen_operations_semantic_9.png"" class=""exp-image"">
                    <div class=""question-area"">
                        <p style=""font-size: 20px; font-weight: bold; margin: 0;"">Is there a person in this image?</p>
                    </div>
                </div>","0","main_experiment_trial","9","kitchen_operations_semantic","semantic_sequence","chronological","","","","","","",""
"","","","","","html-keyboard-response","161","422092","0.0-161.0","EE50FE4297774D8B955D4C33BA4B9BFE","019cfa71-bef6-797f-b8a8-b50545f07451","019cfa3a-388e-72ab-ad58-bdeb258f96cd","","null","
                <div class=""stimulus-container"">
                    <img src=""images/semantic_sequence/kitchen_operations_semantic/kitchen_operations_semantic_ten.png"" class=""exp-image"">
                    <div class=""question-area""></div> 
                </div>","null","","","","","","","","","","","",""
"","","","","","html-button-response","162","422948","0.0-162.0","EE50FE4297774D8B955D4C33BA4B9BFE","019cfa71-bef6-797f-b8a8-b50545f07451","019cfa3a-388e-72ab-ad58-bdeb258f96cd","","856","
                <div class=""stimulus-container"">
                    <img src=""images/semantic_sequence/kitchen_operations_semantic/kitchen_operations_semantic_ten.png"" class=""exp-image"">
                    <div class=""question-area"">
                        <p style=""font-size: 20px; font-weight: bold; margin: 0;"">Is there a person in this image?</p>
                    </div>
                </div>","0","main_experiment_trial","ten","kitchen_operations_semantic","semantic_sequence","chronological","","","","","","",""
"","","","","","html-keyboard-response","163","427953","0.0-163.0","EE50FE4297774D8B955D4C33BA4B9BFE","019cfa71-bef6-797f-b8a8-b50545f07451","019cfa3a-388e-72ab-ad58-bdeb258f96cd","","null","<div style=""background-color: white; width: 100vw; height: 100vh;""></div>","null","","","","","","","","","","","",""
"","","","","","html-keyboard-response","164","428958","0.0-164.0","EE50FE4297774D8B955D4C33BA4B9BFE","019cfa71-bef6-797f-b8a8-b50545f07451","019cfa3a-388e-72ab-ad58-bdeb258f96cd","","null","
                <div class=""stimulus-container"">
                    <img src=""images/causal_sequence/dog_causal/dog_causal_1.png"" class=""exp-image"">
                    <div class=""question-area""></div> 
                </div>","null","","","","","","","","","","","",""
"","","","","","html-button-response","165","430031","0.0-165.0","EE50FE4297774D8B955D4C33BA4B9BFE","019cfa71-bef6-797f-b8a8-b50545f07451","019cfa3a-388e-72ab-ad58-bdeb258f96cd","","1072","
                <div class=""stimulus-container"">
                    <img src=""images/causal_sequence/dog_causal/dog_causal_1.png"" class=""exp-image"">
                    <div class=""question-area"">
                        <p style=""font-size: 20px; font-weight: bold; margin: 0;"">Is there a person in this image?</p>
                    </div>
                </div>","0","main_experiment_trial","1","dog_causal","causal_sequence","chronological","","","","","","",""
"","","","","","html-keyboard-response","166","431040","0.0-166.0","EE50FE4297774D8B955D4C33BA4B9BFE","019cfa71-bef6-797f-b8a8-b50545f07451","019cfa3a-388e-72ab-ad58-bdeb258f96cd","","null","
                <div class=""stimulus-container"">
                    <img src=""images/causal_sequence/dog_causal/dog_causal_2.png"" class=""exp-image"">
                    <div class=""question-area""></div> 
                </div>","null","","","","","","","","","","","",""
"","","","","","html-button-response","167","431591","0.0-167.0","EE50FE4297774D8B955D4C33BA4B9BFE","019cfa71-bef6-797f-b8a8-b50545f07451","019cfa3a-388e-72ab-ad58-bdeb258f96cd","","551","
                <div class=""stimulus-container"">
                    <img src=""images/causal_sequence/dog_causal/dog_causal_2.png"" class=""exp-image"">
                    <div class=""question-area"">
                        <p style=""font-size: 20px; font-weight: bold; margin: 0;"">Is there a person in this image?</p>
                    </div>
                </div>","0","main_experiment_trial","2","dog_causal","causal_sequence","chronological","","","","","","",""
"","","","","","html-keyboard-response","168","432592","0.0-168.0","EE50FE4297774D8B955D4C33BA4B9BFE","019cfa71-bef6-797f-b8a8-b50545f07451","019cfa3a-388e-72ab-ad58-bdeb258f96cd","","null","
                <div class=""stimulus-container"">
                    <img src=""images/causal_sequence/dog_causal/dog_causal_3.png"" class=""exp-image"">
                    <div class=""question-area""></div> 
                </div>","null","","","","","","","","","","","",""
"","","","","","html-button-response","169","433057","0.0-169.0","EE50FE4297774D8B955D4C33BA4B9BFE","019cfa71-bef6-797f-b8a8-b50545f07451","019cfa3a-388e-72ab-ad58-bdeb258f96cd","","463","
                <div class=""stimulus-container"">
                    <img src=""images/causal_sequence/dog_causal/dog_causal_3.png"" class=""exp-image"">
                    <div class=""question-area"">
                        <p style=""font-size: 20px; font-weight: bold; margin: 0;"">Is there a person in this image?</p>
                    </div>
                </div>","0","main_experiment_trial","3","dog_causal","causal_sequence","chronological","","","","","","",""
"","","","","","html-keyboard-response","170","434062","0.0-170.0","EE50FE4297774D8B955D4C33BA4B9BFE","019cfa71-bef6-797f-b8a8-b50545f07451","019cfa3a-388e-72ab-ad58-bdeb258f96cd","","null","
                <div class=""stimulus-container"">
                    <img src=""images/causal_sequence/dog_causal/dog_causal_4.png"" class=""exp-image"">
                    <div class=""question-area""></div> 
                </div>","null","","","","","","","","","","","",""
"","","","","","html-button-response","171","435168","0.0-171.0","EE50FE4297774D8B955D4C33BA4B9BFE","019cfa71-bef6-797f-b8a8-b50545f07451","019cfa3a-388e-72ab-ad58-bdeb258f96cd","","1105","
                <div class=""stimulus-container"">
                    <img src=""images/causal_sequence/dog_causal/dog_causal_4.png"" class=""exp-image"">
                    <div class=""question-area"">
                        <p style=""font-size: 20px; font-weight: bold; margin: 0;"">Is there a person in this image?</p>
                    </div>
                </div>","0","main_experiment_trial","4","dog_causal","causal_sequence","chronological","","","","","","",""
"","","","","","html-keyboard-response","172","436170","0.0-172.0","EE50FE4297774D8B955D4C33BA4B9BFE","019cfa71-bef6-797f-b8a8-b50545f07451","019cfa3a-388e-72ab-ad58-bdeb258f96cd","","null","
                <div class=""stimulus-container"">
                    <img src=""images/causal_sequence/dog_causal/dog_causal_5.png"" class=""exp-image"">
                    <div class=""question-area""></div> 
                </div>","null","","","","","","","","","","","",""
"","","","","","html-button-response","173","437365","0.0-173.0","EE50FE4297774D8B955D4C33BA4B9BFE","019cfa71-bef6-797f-b8a8-b50545f07451","019cfa3a-388e-72ab-ad58-bdeb258f96cd","","1194","
                <div class=""stimulus-container"">
                    <img src=""images/causal_sequence/dog_causal/dog_causal_5.png"" class=""exp-image"">
                    <div class=""question-area"">
                        <p style=""font-size: 20px; font-weight: bold; margin: 0;"">Is there a person in this image?</p>
                    </div>
                </div>","0","main_experiment_trial","5","dog_causal","causal_sequence","chronological","","","","","","",""
"","","","","","html-keyboard-response","174","438371","0.0-174.0","EE50FE4297774D8B955D4C33BA4B9BFE","019cfa71-bef6-797f-b8a8-b50545f07451","019cfa3a-388e-72ab-ad58-bdeb258f96cd","","null","
                <div class=""stimulus-container"">
                    <img src=""images/causal_sequence/dog_causal/dog_causal_6.png"" class=""exp-image"">
                    <div class=""question-area""></div> 
                </div>","null","","","","","","","","","","","",""
