"success","timeout","failed_images","failed_audio","failed_video","trial_type","trial_index","time_elapsed","internal_node_id","subject_id","study_id","session_id","view_history","rt","stimulus","response","task","image_index","folder","sequence_type","presentation_order","valuable_image_index","reward_type","correct_choice","distance_from_x","target_X","chosen_image_index","is_x_plus_dist"
"false","false","[]","[]","[]","preload","0","85190","0.0-0.0","F68059D809CF411A976512607F014387","019d0652-062e-7bc6-90ff-abf86577c6a8","019d0640-0a2d-7740-a972-9c73365b2dcb","","","","","","","","","","","","","","","",""
"","","","","","instructions","1","90961","0.0-1.0","F68059D809CF411A976512607F014387","019d0652-062e-7bc6-90ff-abf86577c6a8","019d0640-0a2d-7740-a972-9c73365b2dcb","[{""page_index"":0,""viewing_time"":5770}]","5770","","","","","","","","","","","","","",""
"","","","","","instructions","2","117947","0.0-2.0","F68059D809CF411A976512607F014387","019d0652-062e-7bc6-90ff-abf86577c6a8","019d0640-0a2d-7740-a972-9c73365b2dcb","[{""page_index"":0,""viewing_time"":26985}]","26985","","","","","","","","","","","","","",""
"true","","","","","fullscreen","3","122666","0.0-3.0","F68059D809CF411A976512607F014387","019d0652-062e-7bc6-90ff-abf86577c6a8","019d0640-0a2d-7740-a972-9c73365b2dcb","","3699","","","","","","","","","","","","","",""
"","","","","","instructions","4","128791","0.0-4.0","F68059D809CF411A976512607F014387","019d0652-062e-7bc6-90ff-abf86577c6a8","019d0640-0a2d-7740-a972-9c73365b2dcb","[{""page_index"":0,""viewing_time"":6124}]","6124","","","","","","","","","","","","","",""
"","","","","","instructions","5","141863","0.0-5.0","F68059D809CF411A976512607F014387","019d0652-062e-7bc6-90ff-abf86577c6a8","019d0640-0a2d-7740-a972-9c73365b2dcb","[{""page_index"":0,""viewing_time"":13071}]","13071","","","","","","","","","","","","","",""
"","","","","","html-keyboard-response","6","145877","0.0-6.0","F68059D809CF411A976512607F014387","019d0652-062e-7bc6-90ff-abf86577c6a8","019d0640-0a2d-7740-a972-9c73365b2dcb","","null","
                <div class=""stimulus-container"">
                    <img src=""images/instructions/movie_1.png"" class=""exp-image"">
                    <div class=""question-area""></div> 
                </div>","null","","","","","","","","","","","",""
"","","","","","html-button-response","7","148879","0.0-7.0","F68059D809CF411A976512607F014387","019d0652-062e-7bc6-90ff-abf86577c6a8","019d0640-0a2d-7740-a972-9c73365b2dcb","","null","
                <div class=""stimulus-container"">
                    <img src=""images/instructions/movie_1.png"" class=""exp-image"">
                    <div class=""question-area"">
                        <p style=""font-size: 20px; font-weight: bold; margin: 0;"">Was there a person in this image?</p>
                    </div>
                </div>","null","example_question","1","","","","","","","","","",""
"","","","","","html-keyboard-response","8","152886","0.0-8.0","F68059D809CF411A976512607F014387","019d0652-062e-7bc6-90ff-abf86577c6a8","019d0640-0a2d-7740-a972-9c73365b2dcb","","null","
                <div class=""stimulus-container"">
                    <img src=""images/instructions/movie_2.png"" class=""exp-image"">
                    <div class=""question-area""></div> 
                </div>","null","","","","","","","","","","","",""
"","","","","","html-button-response","9","154169","0.0-9.0","F68059D809CF411A976512607F014387","019d0652-062e-7bc6-90ff-abf86577c6a8","019d0640-0a2d-7740-a972-9c73365b2dcb","","1280","
                <div class=""stimulus-container"">
                    <img src=""images/instructions/movie_2.png"" class=""exp-image"">
                    <div class=""question-area"">
                        <p style=""font-size: 20px; font-weight: bold; margin: 0;"">Was there a person in this image?</p>
                    </div>
                </div>","0","example_question","2","","","","","","","","","",""
"","","","","","html-keyboard-response","10","158185","0.0-10.0","F68059D809CF411A976512607F014387","019d0652-062e-7bc6-90ff-abf86577c6a8","019d0640-0a2d-7740-a972-9c73365b2dcb","","null","
                <div class=""stimulus-container"">
                    <img src=""images/instructions/movie_3.png"" class=""exp-image"">
                    <div class=""question-area""></div> 
                </div>","null","","","","","","","","","","","",""
"","","","","","html-button-response","11","159277","0.0-11.0","F68059D809CF411A976512607F014387","019d0652-062e-7bc6-90ff-abf86577c6a8","019d0640-0a2d-7740-a972-9c73365b2dcb","","1090","
                <div class=""stimulus-container"">
                    <img src=""images/instructions/movie_3.png"" class=""exp-image"">
                    <div class=""question-area"">
                        <p style=""font-size: 20px; font-weight: bold; margin: 0;"">Was there a person in this image?</p>
                    </div>
                </div>","0","example_question","3","","","","","","","","","",""
"","","","","","html-keyboard-response","12","163281","0.0-12.0","F68059D809CF411A976512607F014387","019d0652-062e-7bc6-90ff-abf86577c6a8","019d0640-0a2d-7740-a972-9c73365b2dcb","","null","
                <div class=""stimulus-container"">
                    <img src=""images/instructions/movie_4.png"" class=""exp-image"">
                    <div class=""question-area""></div> 
                </div>","null","","","","","","","","","","","",""
"","","","","","html-button-response","13","164067","0.0-13.0","F68059D809CF411A976512607F014387","019d0652-062e-7bc6-90ff-abf86577c6a8","019d0640-0a2d-7740-a972-9c73365b2dcb","","785","
                <div class=""stimulus-container"">
                    <img src=""images/instructions/movie_4.png"" class=""exp-image"">
                    <div class=""question-area"">
                        <p style=""font-size: 20px; font-weight: bold; margin: 0;"">Was there a person in this image?</p>
                    </div>
                </div>","0","example_question","4","","","","","","","","","",""
"","","","","","instructions","14","166024","0.0-14.0","F68059D809CF411A976512607F014387","019d0652-062e-7bc6-90ff-abf86577c6a8","019d0640-0a2d-7740-a972-9c73365b2dcb","[{""page_index"":0,""viewing_time"":1956}]","1956","","","","","","","","","","","","","",""
"","","","","","instructions","15","172332","0.0-15.0","F68059D809CF411A976512607F014387","019d0652-062e-7bc6-90ff-abf86577c6a8","019d0640-0a2d-7740-a972-9c73365b2dcb","[{""page_index"":0,""viewing_time"":6307}]","6307","","","","","","","","","","","","","",""
"","","","","","html-keyboard-response","16","177348","0.0-16.0","F68059D809CF411A976512607F014387","019d0652-062e-7bc6-90ff-abf86577c6a8","019d0640-0a2d-7740-a972-9c73365b2dcb","","null","<div style=""background-color: white; width: 100vw; height: 100vh;""></div>","null","","","","","","","","","","","",""
"","","","","","html-keyboard-response","17","182356","0.0-17.0","F68059D809CF411A976512607F014387","019d0652-062e-7bc6-90ff-abf86577c6a8","019d0640-0a2d-7740-a972-9c73365b2dcb","","null","
                <div class=""stimulus-container"">
                    <img src=""images/causal_sequence/the_performance_causal/the_performance_causal_1.png"" class=""exp-image"">
                    <div class=""question-area""></div> 
                </div>","null","","","","","","","","","","","",""
"","","","","","html-button-response","18","183588","0.0-18.0","F68059D809CF411A976512607F014387","019d0652-062e-7bc6-90ff-abf86577c6a8","019d0640-0a2d-7740-a972-9c73365b2dcb","","1230","
                <div class=""stimulus-container"">
                    <img src=""images/causal_sequence/the_performance_causal/the_performance_causal_1.png"" class=""exp-image"">
                    <div class=""question-area"">
                        <p style=""font-size: 20px; font-weight: bold; margin: 0;"">Is there a person in this image?</p>
                    </div>
                </div>","0","main_experiment_trial","1","the_performance_causal","causal_sequence","chronological","","","","","","",""
"","","","","","html-keyboard-response","19","188598","0.0-19.0","F68059D809CF411A976512607F014387","019d0652-062e-7bc6-90ff-abf86577c6a8","019d0640-0a2d-7740-a972-9c73365b2dcb","","null","
                <div class=""stimulus-container"">
                    <img src=""images/causal_sequence/the_performance_causal/the_performance_causal_2.png"" class=""exp-image"">
                    <div class=""question-area""></div> 
                </div>","null","","","","","","","","","","","",""
"","","","","","html-button-response","20","189542","0.0-20.0","F68059D809CF411A976512607F014387","019d0652-062e-7bc6-90ff-abf86577c6a8","019d0640-0a2d-7740-a972-9c73365b2dcb","","943","
                <div class=""stimulus-container"">
                    <img src=""images/causal_sequence/the_performance_causal/the_performance_causal_2.png"" class=""exp-image"">
                    <div class=""question-area"">
                        <p style=""font-size: 20px; font-weight: bold; margin: 0;"">Is there a person in this image?</p>
                    </div>
                </div>","0","main_experiment_trial","2","the_performance_causal","causal_sequence","chronological","","","","","","",""
"","","","","","html-keyboard-response","21","194555","0.0-21.0","F68059D809CF411A976512607F014387","019d0652-062e-7bc6-90ff-abf86577c6a8","019d0640-0a2d-7740-a972-9c73365b2dcb","","null","
                <div class=""stimulus-container"">
                    <img src=""images/causal_sequence/the_performance_causal/the_performance_causal_3.png"" class=""exp-image"">
                    <div class=""question-area""></div> 
                </div>","null","","","","","","","","","","","",""
"","","","","","html-button-response","22","195246","0.0-22.0","F68059D809CF411A976512607F014387","019d0652-062e-7bc6-90ff-abf86577c6a8","019d0640-0a2d-7740-a972-9c73365b2dcb","","689","
                <div class=""stimulus-container"">
                    <img src=""images/causal_sequence/the_performance_causal/the_performance_causal_3.png"" class=""exp-image"">
                    <div class=""question-area"">
                        <p style=""font-size: 20px; font-weight: bold; margin: 0;"">Is there a person in this image?</p>
                    </div>
                </div>","0","main_experiment_trial","3","the_performance_causal","causal_sequence","chronological","","","","","","",""
"","","","","","html-keyboard-response","23","200250","0.0-23.0","F68059D809CF411A976512607F014387","019d0652-062e-7bc6-90ff-abf86577c6a8","019d0640-0a2d-7740-a972-9c73365b2dcb","","null","
                <div class=""stimulus-container"">
                    <img src=""images/causal_sequence/the_performance_causal/the_performance_causal_4.png"" class=""exp-image"">
                    <div class=""question-area""></div> 
                </div>","null","","","","","","","","","","","",""
"","","","","","html-button-response","24","200917","0.0-24.0","F68059D809CF411A976512607F014387","019d0652-062e-7bc6-90ff-abf86577c6a8","019d0640-0a2d-7740-a972-9c73365b2dcb","","666","
                <div class=""stimulus-container"">
                    <img src=""images/causal_sequence/the_performance_causal/the_performance_causal_4.png"" class=""exp-image"">
                    <div class=""question-area"">
                        <p style=""font-size: 20px; font-weight: bold; margin: 0;"">Is there a person in this image?</p>
                    </div>
                </div>","0","main_experiment_trial","4","the_performance_causal","causal_sequence","chronological","","","","","","",""
"","","","","","html-keyboard-response","25","205922","0.0-25.0","F68059D809CF411A976512607F014387","019d0652-062e-7bc6-90ff-abf86577c6a8","019d0640-0a2d-7740-a972-9c73365b2dcb","","null","
                <div class=""stimulus-container"">
                    <img src=""images/causal_sequence/the_performance_causal/the_performance_causal_5.png"" class=""exp-image"">
                    <div class=""question-area""></div> 
                </div>","null","","","","","","","","","","","",""
"","","","","","html-button-response","26","206682","0.0-26.0","F68059D809CF411A976512607F014387","019d0652-062e-7bc6-90ff-abf86577c6a8","019d0640-0a2d-7740-a972-9c73365b2dcb","","758","
                <div class=""stimulus-container"">
                    <img src=""images/causal_sequence/the_performance_causal/the_performance_causal_5.png"" class=""exp-image"">
                    <div class=""question-area"">
                        <p style=""font-size: 20px; font-weight: bold; margin: 0;"">Is there a person in this image?</p>
                    </div>
                </div>","0","main_experiment_trial","5","the_performance_causal","causal_sequence","chronological","","","","","","",""
"","","","","","html-keyboard-response","27","211687","0.0-27.0","F68059D809CF411A976512607F014387","019d0652-062e-7bc6-90ff-abf86577c6a8","019d0640-0a2d-7740-a972-9c73365b2dcb","","null","
                <div class=""stimulus-container"">
                    <img src=""images/causal_sequence/the_performance_causal/the_performance_causal_6.png"" class=""exp-image"">
                    <div class=""question-area""></div> 
                </div>","null","","","","","","","","","","","",""
"","","","","","html-button-response","28","212413","0.0-28.0","F68059D809CF411A976512607F014387","019d0652-062e-7bc6-90ff-abf86577c6a8","019d0640-0a2d-7740-a972-9c73365b2dcb","","725","
                <div class=""stimulus-container"">
                    <img src=""images/causal_sequence/the_performance_causal/the_performance_causal_6.png"" class=""exp-image"">
                    <div class=""question-area"">
                        <p style=""font-size: 20px; font-weight: bold; margin: 0;"">Is there a person in this image?</p>
                    </div>
                </div>","0","main_experiment_trial","6","the_performance_causal","causal_sequence","chronological","","","","","","",""
"","","","","","html-keyboard-response","29","217420","0.0-29.0","F68059D809CF411A976512607F014387","019d0652-062e-7bc6-90ff-abf86577c6a8","019d0640-0a2d-7740-a972-9c73365b2dcb","","null","
                <div class=""stimulus-container"">
                    <img src=""images/causal_sequence/the_performance_causal/the_performance_causal_7.png"" class=""exp-image"">
                    <div class=""question-area""></div> 
                </div>","null","","","","","","","","","","","",""
"","","","","","html-button-response","30","218082","0.0-30.0","F68059D809CF411A976512607F014387","019d0652-062e-7bc6-90ff-abf86577c6a8","019d0640-0a2d-7740-a972-9c73365b2dcb","","661","
                <div class=""stimulus-container"">
                    <img src=""images/causal_sequence/the_performance_causal/the_performance_causal_7.png"" class=""exp-image"">
                    <div class=""question-area"">
                        <p style=""font-size: 20px; font-weight: bold; margin: 0;"">Is there a person in this image?</p>
                    </div>
                </div>","0","main_experiment_trial","7","the_performance_causal","causal_sequence","chronological","","","","","","",""
"","","","","","html-keyboard-response","31","223087","0.0-31.0","F68059D809CF411A976512607F014387","019d0652-062e-7bc6-90ff-abf86577c6a8","019d0640-0a2d-7740-a972-9c73365b2dcb","","null","
                <div class=""stimulus-container"">
                    <img src=""images/causal_sequence/the_performance_causal/the_performance_causal_8.png"" class=""exp-image"">
                    <div class=""question-area""></div> 
                </div>","null","","","","","","","","","","","",""
"","","","","","html-button-response","32","223789","0.0-32.0","F68059D809CF411A976512607F014387","019d0652-062e-7bc6-90ff-abf86577c6a8","019d0640-0a2d-7740-a972-9c73365b2dcb","","700","
                <div class=""stimulus-container"">
                    <img src=""images/causal_sequence/the_performance_causal/the_performance_causal_8.png"" class=""exp-image"">
                    <div class=""question-area"">
                        <p style=""font-size: 20px; font-weight: bold; margin: 0;"">Is there a person in this image?</p>
                    </div>
                </div>","0","main_experiment_trial","8","the_performance_causal","causal_sequence","chronological","","","","","","",""
"","","","","","html-keyboard-response","33","228800","0.0-33.0","F68059D809CF411A976512607F014387","019d0652-062e-7bc6-90ff-abf86577c6a8","019d0640-0a2d-7740-a972-9c73365b2dcb","","null","
                <div class=""stimulus-container"">
                    <img src=""images/causal_sequence/the_performance_causal/the_performance_causal_9.png"" class=""exp-image"">
                    <div class=""question-area""></div> 
                </div>","null","","","","","","","","","","","",""
"","","","","","html-button-response","34","229450","0.0-34.0","F68059D809CF411A976512607F014387","019d0652-062e-7bc6-90ff-abf86577c6a8","019d0640-0a2d-7740-a972-9c73365b2dcb","","649","
                <div class=""stimulus-container"">
                    <img src=""images/causal_sequence/the_performance_causal/the_performance_causal_9.png"" class=""exp-image"">
                    <div class=""question-area"">
                        <p style=""font-size: 20px; font-weight: bold; margin: 0;"">Is there a person in this image?</p>
                    </div>
                </div>","0","main_experiment_trial","9","the_performance_causal","causal_sequence","chronological","","","","","","",""
"","","","","","html-keyboard-response","35","234462","0.0-35.0","F68059D809CF411A976512607F014387","019d0652-062e-7bc6-90ff-abf86577c6a8","019d0640-0a2d-7740-a972-9c73365b2dcb","","null","
                <div class=""stimulus-container"">
                    <img src=""images/causal_sequence/the_performance_causal/the_performance_causal_ten.png"" class=""exp-image"">
                    <div class=""question-area""></div> 
                </div>","null","","","","","","","","","","","",""
"","","","","","html-button-response","36","235075","0.0-36.0","F68059D809CF411A976512607F014387","019d0652-062e-7bc6-90ff-abf86577c6a8","019d0640-0a2d-7740-a972-9c73365b2dcb","","611","
                <div class=""stimulus-container"">
                    <img src=""images/causal_sequence/the_performance_causal/the_performance_causal_ten.png"" class=""exp-image"">
                    <div class=""question-area"">
                        <p style=""font-size: 20px; font-weight: bold; margin: 0;"">Is there a person in this image?</p>
                    </div>
                </div>","0","main_experiment_trial","ten","the_performance_causal","causal_sequence","chronological","","","","","","",""
"","","","","","html-keyboard-response","37","240087","0.0-37.0","F68059D809CF411A976512607F014387","019d0652-062e-7bc6-90ff-abf86577c6a8","019d0640-0a2d-7740-a972-9c73365b2dcb","","null","<div style=""background-color: white; width: 100vw; height: 100vh;""></div>","null","","","","","","","","","","","",""
"","","","","","html-keyboard-response","38","245096","0.0-38.0","F68059D809CF411A976512607F014387","019d0652-062e-7bc6-90ff-abf86577c6a8","019d0640-0a2d-7740-a972-9c73365b2dcb","","null","
                <div class=""stimulus-container"">
                    <img src=""images/semantic_sequence/physical_activity_semantic/physical_activity_semantic_1.png"" class=""exp-image"">
                    <div class=""question-area""></div> 
                </div>","null","","","","","","","","","","","",""
"","","","","","html-button-response","39","245843","0.0-39.0","F68059D809CF411A976512607F014387","019d0652-062e-7bc6-90ff-abf86577c6a8","019d0640-0a2d-7740-a972-9c73365b2dcb","","745","
                <div class=""stimulus-container"">
                    <img src=""images/semantic_sequence/physical_activity_semantic/physical_activity_semantic_1.png"" class=""exp-image"">
                    <div class=""question-area"">
                        <p style=""font-size: 20px; font-weight: bold; margin: 0;"">Is there a person in this image?</p>
                    </div>
                </div>","0","main_experiment_trial","1","physical_activity_semantic","semantic_sequence","chronological","","","","","","",""
"","","","","","html-keyboard-response","40","250849","0.0-40.0","F68059D809CF411A976512607F014387","019d0652-062e-7bc6-90ff-abf86577c6a8","019d0640-0a2d-7740-a972-9c73365b2dcb","","null","
                <div class=""stimulus-container"">
                    <img src=""images/semantic_sequence/physical_activity_semantic/physical_activity_semantic_2.png"" class=""exp-image"">
                    <div class=""question-area""></div> 
                </div>","null","","","","","","","","","","","",""
"","","","","","html-button-response","41","251538","0.0-41.0","F68059D809CF411A976512607F014387","019d0652-062e-7bc6-90ff-abf86577c6a8","019d0640-0a2d-7740-a972-9c73365b2dcb","","688","
                <div class=""stimulus-container"">
                    <img src=""images/semantic_sequence/physical_activity_semantic/physical_activity_semantic_2.png"" class=""exp-image"">
                    <div class=""question-area"">
                        <p style=""font-size: 20px; font-weight: bold; margin: 0;"">Is there a person in this image?</p>
                    </div>
                </div>","0","main_experiment_trial","2","physical_activity_semantic","semantic_sequence","chronological","","","","","","",""
"","","","","","html-keyboard-response","42","256553","0.0-42.0","F68059D809CF411A976512607F014387","019d0652-062e-7bc6-90ff-abf86577c6a8","019d0640-0a2d-7740-a972-9c73365b2dcb","","null","
                <div class=""stimulus-container"">
                    <img src=""images/semantic_sequence/physical_activity_semantic/physical_activity_semantic_3.png"" class=""exp-image"">
                    <div class=""question-area""></div> 
                </div>","null","","","","","","","","","","","",""
"","","","","","html-button-response","43","257202","0.0-43.0","F68059D809CF411A976512607F014387","019d0652-062e-7bc6-90ff-abf86577c6a8","019d0640-0a2d-7740-a972-9c73365b2dcb","","648","
                <div class=""stimulus-container"">
                    <img src=""images/semantic_sequence/physical_activity_semantic/physical_activity_semantic_3.png"" class=""exp-image"">
                    <div class=""question-area"">
                        <p style=""font-size: 20px; font-weight: bold; margin: 0;"">Is there a person in this image?</p>
                    </div>
                </div>","0","main_experiment_trial","3","physical_activity_semantic","semantic_sequence","chronological","","","","","","",""
"","","","","","html-keyboard-response","44","262213","0.0-44.0","F68059D809CF411A976512607F014387","019d0652-062e-7bc6-90ff-abf86577c6a8","019d0640-0a2d-7740-a972-9c73365b2dcb","","null","
                <div class=""stimulus-container"">
                    <img src=""images/semantic_sequence/physical_activity_semantic/physical_activity_semantic_4.png"" class=""exp-image"">
                    <div class=""question-area""></div> 
                </div>","null","","","","","","","","","","","",""
"","","","","","html-button-response","45","262864","0.0-45.0","F68059D809CF411A976512607F014387","019d0652-062e-7bc6-90ff-abf86577c6a8","019d0640-0a2d-7740-a972-9c73365b2dcb","","649","
                <div class=""stimulus-container"">
                    <img src=""images/semantic_sequence/physical_activity_semantic/physical_activity_semantic_4.png"" class=""exp-image"">
                    <div class=""question-area"">
                        <p style=""font-size: 20px; font-weight: bold; margin: 0;"">Is there a person in this image?</p>
                    </div>
                </div>","0","main_experiment_trial","4","physical_activity_semantic","semantic_sequence","chronological","","","","","","",""
"","","","","","html-keyboard-response","46","267872","0.0-46.0","F68059D809CF411A976512607F014387","019d0652-062e-7bc6-90ff-abf86577c6a8","019d0640-0a2d-7740-a972-9c73365b2dcb","","null","
                <div class=""stimulus-container"">
                    <img src=""images/semantic_sequence/physical_activity_semantic/physical_activity_semantic_5.png"" class=""exp-image"">
                    <div class=""question-area""></div> 
                </div>","null","","","","","","","","","","","",""
"","","","","","html-button-response","47","268489","0.0-47.0","F68059D809CF411A976512607F014387","019d0652-062e-7bc6-90ff-abf86577c6a8","019d0640-0a2d-7740-a972-9c73365b2dcb","","615","
                <div class=""stimulus-container"">
                    <img src=""images/semantic_sequence/physical_activity_semantic/physical_activity_semantic_5.png"" class=""exp-image"">
                    <div class=""question-area"">
                        <p style=""font-size: 20px; font-weight: bold; margin: 0;"">Is there a person in this image?</p>
                    </div>
                </div>","0","main_experiment_trial","5","physical_activity_semantic","semantic_sequence","chronological","","","","","","",""
"","","","","","html-keyboard-response","48","273501","0.0-48.0","F68059D809CF411A976512607F014387","019d0652-062e-7bc6-90ff-abf86577c6a8","019d0640-0a2d-7740-a972-9c73365b2dcb","","null","
                <div class=""stimulus-container"">
                    <img src=""images/semantic_sequence/physical_activity_semantic/physical_activity_semantic_6.png"" class=""exp-image"">
                    <div class=""question-area""></div> 
                </div>","null","","","","","","","","","","","",""
"","","","","","html-button-response","49","274159","0.0-49.0","F68059D809CF411A976512607F014387","019d0652-062e-7bc6-90ff-abf86577c6a8","019d0640-0a2d-7740-a972-9c73365b2dcb","","656","
                <div class=""stimulus-container"">
                    <img src=""images/semantic_sequence/physical_activity_semantic/physical_activity_semantic_6.png"" class=""exp-image"">
                    <div class=""question-area"">
                        <p style=""font-size: 20px; font-weight: bold; margin: 0;"">Is there a person in this image?</p>
                    </div>
                </div>","0","main_experiment_trial","6","physical_activity_semantic","semantic_sequence","chronological","","","","","","",""
"","","","","","html-keyboard-response","50","279171","0.0-50.0","F68059D809CF411A976512607F014387","019d0652-062e-7bc6-90ff-abf86577c6a8","019d0640-0a2d-7740-a972-9c73365b2dcb","","null","
                <div class=""stimulus-container"">
                    <img src=""images/semantic_sequence/physical_activity_semantic/physical_activity_semantic_7.png"" class=""exp-image"">
                    <div class=""question-area""></div> 
                </div>","null","","","","","","","","","","","",""
"","","","","","html-button-response","51","279788","0.0-51.0","F68059D809CF411A976512607F014387","019d0652-062e-7bc6-90ff-abf86577c6a8","019d0640-0a2d-7740-a972-9c73365b2dcb","","615","
                <div class=""stimulus-container"">
                    <img src=""images/semantic_sequence/physical_activity_semantic/physical_activity_semantic_7.png"" class=""exp-image"">
                    <div class=""question-area"">
                        <p style=""font-size: 20px; font-weight: bold; margin: 0;"">Is there a person in this image?</p>
                    </div>
                </div>","0","main_experiment_trial","7","physical_activity_semantic","semantic_sequence","chronological","","","","","","",""
"","","","","","html-keyboard-response","52","284796","0.0-52.0","F68059D809CF411A976512607F014387","019d0652-062e-7bc6-90ff-abf86577c6a8","019d0640-0a2d-7740-a972-9c73365b2dcb","","null","
                <div class=""stimulus-container"">
                    <img src=""images/semantic_sequence/physical_activity_semantic/physical_activity_semantic_8.png"" class=""exp-image"">
                    <div class=""question-area""></div> 
                </div>","null","","","","","","","","","","","",""
"","","","","","html-button-response","53","285463","0.0-53.0","F68059D809CF411A976512607F014387","019d0652-062e-7bc6-90ff-abf86577c6a8","019d0640-0a2d-7740-a972-9c73365b2dcb","","666","
                <div class=""stimulus-container"">
                    <img src=""images/semantic_sequence/physical_activity_semantic/physical_activity_semantic_8.png"" class=""exp-image"">
                    <div class=""question-area"">
                        <p style=""font-size: 20px; font-weight: bold; margin: 0;"">Is there a person in this image?</p>
                    </div>
                </div>","0","main_experiment_trial","8","physical_activity_semantic","semantic_sequence","chronological","","","","","","",""
"","","","","","html-keyboard-response","54","290469","0.0-54.0","F68059D809CF411A976512607F014387","019d0652-062e-7bc6-90ff-abf86577c6a8","019d0640-0a2d-7740-a972-9c73365b2dcb","","null","
                <div class=""stimulus-container"">
                    <img src=""images/semantic_sequence/physical_activity_semantic/physical_activity_semantic_9.png"" class=""exp-image"">
                    <div class=""question-area""></div> 
                </div>","null","","","","","","","","","","","",""
"","","","","","html-button-response","55","291156","0.0-55.0","F68059D809CF411A976512607F014387","019d0652-062e-7bc6-90ff-abf86577c6a8","019d0640-0a2d-7740-a972-9c73365b2dcb","","686","
                <div class=""stimulus-container"">
                    <img src=""images/semantic_sequence/physical_activity_semantic/physical_activity_semantic_9.png"" class=""exp-image"">
                    <div class=""question-area"">
                        <p style=""font-size: 20px; font-weight: bold; margin: 0;"">Is there a person in this image?</p>
                    </div>
                </div>","0","main_experiment_trial","9","physical_activity_semantic","semantic_sequence","chronological","","","","","","",""
"","","","","","html-keyboard-response","56","296171","0.0-56.0","F68059D809CF411A976512607F014387","019d0652-062e-7bc6-90ff-abf86577c6a8","019d0640-0a2d-7740-a972-9c73365b2dcb","","null","
                <div class=""stimulus-container"">
                    <img src=""images/semantic_sequence/physical_activity_semantic/physical_activity_semantic_ten.png"" class=""exp-image"">
                    <div class=""question-area""></div> 
                </div>","null","","","","","","","","","","","",""
"","","","","","html-button-response","57","296884","0.0-57.0","F68059D809CF411A976512607F014387","019d0652-062e-7bc6-90ff-abf86577c6a8","019d0640-0a2d-7740-a972-9c73365b2dcb","","712","
                <div class=""stimulus-container"">
                    <img src=""images/semantic_sequence/physical_activity_semantic/physical_activity_semantic_ten.png"" class=""exp-image"">
                    <div class=""question-area"">
                        <p style=""font-size: 20px; font-weight: bold; margin: 0;"">Is there a person in this image?</p>
                    </div>
                </div>","0","main_experiment_trial","ten","physical_activity_semantic","semantic_sequence","chronological","","","","","","",""
"","","","","","html-keyboard-response","58","301898","0.0-58.0","F68059D809CF411A976512607F014387","019d0652-062e-7bc6-90ff-abf86577c6a8","019d0640-0a2d-7740-a972-9c73365b2dcb","","null","<div style=""background-color: white; width: 100vw; height: 100vh;""></div>","null","","","","","","","","","","","",""
"","","","","","html-keyboard-response","59","306907","0.0-59.0","F68059D809CF411A976512607F014387","019d0652-062e-7bc6-90ff-abf86577c6a8","019d0640-0a2d-7740-a972-9c73365b2dcb","","null","
                <div class=""stimulus-container"">
                    <img src=""images/semantic_sequence/visiting_cities_semantic/visiting_cities_semantic_1.png"" class=""exp-image"">
                    <div class=""question-area""></div> 
                </div>","null","","","","","","","","","","","",""
"","","","","","html-button-response","60","307614","0.0-60.0","F68059D809CF411A976512607F014387","019d0652-062e-7bc6-90ff-abf86577c6a8","019d0640-0a2d-7740-a972-9c73365b2dcb","","706","
                <div class=""stimulus-container"">
                    <img src=""images/semantic_sequence/visiting_cities_semantic/visiting_cities_semantic_1.png"" class=""exp-image"">
                    <div class=""question-area"">
                        <p style=""font-size: 20px; font-weight: bold; margin: 0;"">Is there a person in this image?</p>
                    </div>
                </div>","0","main_experiment_trial","1","visiting_cities_semantic","semantic_sequence","chronological","","","","","","",""
"","","","","","html-keyboard-response","61","312623","0.0-61.0","F68059D809CF411A976512607F014387","019d0652-062e-7bc6-90ff-abf86577c6a8","019d0640-0a2d-7740-a972-9c73365b2dcb","","null","
                <div class=""stimulus-container"">
                    <img src=""images/semantic_sequence/visiting_cities_semantic/visiting_cities_semantic_2.png"" class=""exp-image"">
                    <div class=""question-area""></div> 
                </div>","null","","","","","","","","","","","",""
"","","","","","html-button-response","62","313315","0.0-62.0","F68059D809CF411A976512607F014387","019d0652-062e-7bc6-90ff-abf86577c6a8","019d0640-0a2d-7740-a972-9c73365b2dcb","","691","
                <div class=""stimulus-container"">
                    <img src=""images/semantic_sequence/visiting_cities_semantic/visiting_cities_semantic_2.png"" class=""exp-image"">
                    <div class=""question-area"">
                        <p style=""font-size: 20px; font-weight: bold; margin: 0;"">Is there a person in this image?</p>
                    </div>
                </div>","1","main_experiment_trial","2","visiting_cities_semantic","semantic_sequence","chronological","","","","","","",""
"","","","","","html-keyboard-response","63","318326","0.0-63.0","F68059D809CF411A976512607F014387","019d0652-062e-7bc6-90ff-abf86577c6a8","019d0640-0a2d-7740-a972-9c73365b2dcb","","null","
                <div class=""stimulus-container"">
                    <img src=""images/semantic_sequence/visiting_cities_semantic/visiting_cities_semantic_3.png"" class=""exp-image"">
                    <div class=""question-area""></div> 
                </div>","null","","","","","","","","","","","",""
"","","","","","html-button-response","64","319009","0.0-64.0","F68059D809CF411A976512607F014387","019d0652-062e-7bc6-90ff-abf86577c6a8","019d0640-0a2d-7740-a972-9c73365b2dcb","","681","
                <div class=""stimulus-container"">
                    <img src=""images/semantic_sequence/visiting_cities_semantic/visiting_cities_semantic_3.png"" class=""exp-image"">
                    <div class=""question-area"">
                        <p style=""font-size: 20px; font-weight: bold; margin: 0;"">Is there a person in this image?</p>
                    </div>
                </div>","1","main_experiment_trial","3","visiting_cities_semantic","semantic_sequence","chronological","","","","","","",""
"","","","","","html-keyboard-response","65","324019","0.0-65.0","F68059D809CF411A976512607F014387","019d0652-062e-7bc6-90ff-abf86577c6a8","019d0640-0a2d-7740-a972-9c73365b2dcb","","null","
                <div class=""stimulus-container"">
                    <img src=""images/semantic_sequence/visiting_cities_semantic/visiting_cities_semantic_4.png"" class=""exp-image"">
                    <div class=""question-area""></div> 
                </div>","null","","","","","","","","","","","",""
"","","","","","html-button-response","66","324790","0.0-66.0","F68059D809CF411A976512607F014387","019d0652-062e-7bc6-90ff-abf86577c6a8","019d0640-0a2d-7740-a972-9c73365b2dcb","","770","
                <div class=""stimulus-container"">
                    <img src=""images/semantic_sequence/visiting_cities_semantic/visiting_cities_semantic_4.png"" class=""exp-image"">
                    <div class=""question-area"">
                        <p style=""font-size: 20px; font-weight: bold; margin: 0;"">Is there a person in this image?</p>
                    </div>
                </div>","1","main_experiment_trial","4","visiting_cities_semantic","semantic_sequence","chronological","","","","","","",""
"","","","","","html-keyboard-response","67","329801","0.0-67.0","F68059D809CF411A976512607F014387","019d0652-062e-7bc6-90ff-abf86577c6a8","019d0640-0a2d-7740-a972-9c73365b2dcb","","null","
                <div class=""stimulus-container"">
                    <img src=""images/semantic_sequence/visiting_cities_semantic/visiting_cities_semantic_5.png"" class=""exp-image"">
                    <div class=""question-area""></div> 
                </div>","null","","","","","","","","","","","",""
"","","","","","html-button-response","68","330463","0.0-68.0","F68059D809CF411A976512607F014387","019d0652-062e-7bc6-90ff-abf86577c6a8","019d0640-0a2d-7740-a972-9c73365b2dcb","","661","
                <div class=""stimulus-container"">
                    <img src=""images/semantic_sequence/visiting_cities_semantic/visiting_cities_semantic_5.png"" class=""exp-image"">
                    <div class=""question-area"">
                        <p style=""font-size: 20px; font-weight: bold; margin: 0;"">Is there a person in this image?</p>
                    </div>
                </div>","1","main_experiment_trial","5","visiting_cities_semantic","semantic_sequence","chronological","","","","","","",""
"","","","","","html-keyboard-response","69","335475","0.0-69.0","F68059D809CF411A976512607F014387","019d0652-062e-7bc6-90ff-abf86577c6a8","019d0640-0a2d-7740-a972-9c73365b2dcb","","null","
                <div class=""stimulus-container"">
                    <img src=""images/semantic_sequence/visiting_cities_semantic/visiting_cities_semantic_6.png"" class=""exp-image"">
                    <div class=""question-area""></div> 
                </div>","null","","","","","","","","","","","",""
"","","","","","html-button-response","70","336210","0.0-70.0","F68059D809CF411A976512607F014387","019d0652-062e-7bc6-90ff-abf86577c6a8","019d0640-0a2d-7740-a972-9c73365b2dcb","","734","
                <div class=""stimulus-container"">
                    <img src=""images/semantic_sequence/visiting_cities_semantic/visiting_cities_semantic_6.png"" class=""exp-image"">
                    <div class=""question-area"">
                        <p style=""font-size: 20px; font-weight: bold; margin: 0;"">Is there a person in this image?</p>
                    </div>
                </div>","1","main_experiment_trial","6","visiting_cities_semantic","semantic_sequence","chronological","","","","","","",""
"","","","","","html-keyboard-response","71","341225","0.0-71.0","F68059D809CF411A976512607F014387","019d0652-062e-7bc6-90ff-abf86577c6a8","019d0640-0a2d-7740-a972-9c73365b2dcb","","null","
                <div class=""stimulus-container"">
                    <img src=""images/semantic_sequence/visiting_cities_semantic/visiting_cities_semantic_7.png"" class=""exp-image"">
                    <div class=""question-area""></div> 
                </div>","null","","","","","","","","","","","",""
"","","","","","html-button-response","72","342320","0.0-72.0","F68059D809CF411A976512607F014387","019d0652-062e-7bc6-90ff-abf86577c6a8","019d0640-0a2d-7740-a972-9c73365b2dcb","","1094","
                <div class=""stimulus-container"">
                    <img src=""images/semantic_sequence/visiting_cities_semantic/visiting_cities_semantic_7.png"" class=""exp-image"">
                    <div class=""question-area"">
                        <p style=""font-size: 20px; font-weight: bold; margin: 0;"">Is there a person in this image?</p>
                    </div>
                </div>","0","main_experiment_trial","7","visiting_cities_semantic","semantic_sequence","chronological","","","","","","",""
"","","","","","html-keyboard-response","73","347325","0.0-73.0","F68059D809CF411A976512607F014387","019d0652-062e-7bc6-90ff-abf86577c6a8","019d0640-0a2d-7740-a972-9c73365b2dcb","","null","
                <div class=""stimulus-container"">
                    <img src=""images/semantic_sequence/visiting_cities_semantic/visiting_cities_semantic_8.png"" class=""exp-image"">
                    <div class=""question-area""></div> 
                </div>","null","","","","","","","","","","","",""
"","","","","","html-button-response","74","348457","0.0-74.0","F68059D809CF411A976512607F014387","019d0652-062e-7bc6-90ff-abf86577c6a8","019d0640-0a2d-7740-a972-9c73365b2dcb","","1130","
                <div class=""stimulus-container"">
                    <img src=""images/semantic_sequence/visiting_cities_semantic/visiting_cities_semantic_8.png"" class=""exp-image"">
                    <div class=""question-area"">
                        <p style=""font-size: 20px; font-weight: bold; margin: 0;"">Is there a person in this image?</p>
                    </div>
                </div>","1","main_experiment_trial","8","visiting_cities_semantic","semantic_sequence","chronological","","","","","","",""
"","","","","","html-keyboard-response","75","353465","0.0-75.0","F68059D809CF411A976512607F014387","019d0652-062e-7bc6-90ff-abf86577c6a8","019d0640-0a2d-7740-a972-9c73365b2dcb","","null","
                <div class=""stimulus-container"">
                    <img src=""images/semantic_sequence/visiting_cities_semantic/visiting_cities_semantic_9.png"" class=""exp-image"">
                    <div class=""question-area""></div> 
                </div>","null","","","","","","","","","","","",""
"","","","","","html-button-response","76","354144","0.0-76.0","F68059D809CF411A976512607F014387","019d0652-062e-7bc6-90ff-abf86577c6a8","019d0640-0a2d-7740-a972-9c73365b2dcb","","678","
                <div class=""stimulus-container"">
                    <img src=""images/semantic_sequence/visiting_cities_semantic/visiting_cities_semantic_9.png"" class=""exp-image"">
                    <div class=""question-area"">
                        <p style=""font-size: 20px; font-weight: bold; margin: 0;"">Is there a person in this image?</p>
                    </div>
                </div>","1","main_experiment_trial","9","visiting_cities_semantic","semantic_sequence","chronological","","","","","","",""
"","","","","","html-keyboard-response","77","359147","0.0-77.0","F68059D809CF411A976512607F014387","019d0652-062e-7bc6-90ff-abf86577c6a8","019d0640-0a2d-7740-a972-9c73365b2dcb","","null","
                <div class=""stimulus-container"">
                    <img src=""images/semantic_sequence/visiting_cities_semantic/visiting_cities_semantic_ten.png"" class=""exp-image"">
                    <div class=""question-area""></div> 
                </div>","null","","","","","","","","","","","",""
"","","","","","html-button-response","78","359832","0.0-78.0","F68059D809CF411A976512607F014387","019d0652-062e-7bc6-90ff-abf86577c6a8","019d0640-0a2d-7740-a972-9c73365b2dcb","","683","
                <div class=""stimulus-container"">
                    <img src=""images/semantic_sequence/visiting_cities_semantic/visiting_cities_semantic_ten.png"" class=""exp-image"">
                    <div class=""question-area"">
                        <p style=""font-size: 20px; font-weight: bold; margin: 0;"">Is there a person in this image?</p>
                    </div>
                </div>","1","main_experiment_trial","ten","visiting_cities_semantic","semantic_sequence","chronological","","","","","","",""
"","","","","","html-keyboard-response","79","364838","0.0-79.0","F68059D809CF411A976512607F014387","019d0652-062e-7bc6-90ff-abf86577c6a8","019d0640-0a2d-7740-a972-9c73365b2dcb","","null","<div style=""background-color: white; width: 100vw; height: 100vh;""></div>","null","","","","","","","","","","","",""
"","","","","","html-keyboard-response","80","369843","0.0-80.0","F68059D809CF411A976512607F014387","019d0652-062e-7bc6-90ff-abf86577c6a8","019d0640-0a2d-7740-a972-9c73365b2dcb","","null","
                <div class=""stimulus-container"">
                    <img src=""images/schematic_sequence/supermarket_scheme/supermarket_scheme_1.png"" class=""exp-image"">
                    <div class=""question-area""></div> 
                </div>","null","","","","","","","","","","","",""
"","","","","","html-button-response","81","370627","0.0-81.0","F68059D809CF411A976512607F014387","019d0652-062e-7bc6-90ff-abf86577c6a8","019d0640-0a2d-7740-a972-9c73365b2dcb","","783","
                <div class=""stimulus-container"">
                    <img src=""images/schematic_sequence/supermarket_scheme/supermarket_scheme_1.png"" class=""exp-image"">
                    <div class=""question-area"">
                        <p style=""font-size: 20px; font-weight: bold; margin: 0;"">Is there a person in this image?</p>
                    </div>
                </div>","1","main_experiment_trial","1","supermarket_scheme","schematic_sequence","chronological","","","","","","",""
"","","","","","html-keyboard-response","82","375633","0.0-82.0","F68059D809CF411A976512607F014387","019d0652-062e-7bc6-90ff-abf86577c6a8","019d0640-0a2d-7740-a972-9c73365b2dcb","","null","
                <div class=""stimulus-container"">
                    <img src=""images/schematic_sequence/supermarket_scheme/supermarket_scheme_2.png"" class=""exp-image"">
                    <div class=""question-area""></div> 
                </div>","null","","","","","","","","","","","",""
"","","","","","html-button-response","83","376334","0.0-83.0","F68059D809CF411A976512607F014387","019d0652-062e-7bc6-90ff-abf86577c6a8","019d0640-0a2d-7740-a972-9c73365b2dcb","","700","
                <div class=""stimulus-container"">
                    <img src=""images/schematic_sequence/supermarket_scheme/supermarket_scheme_2.png"" class=""exp-image"">
                    <div class=""question-area"">
                        <p style=""font-size: 20px; font-weight: bold; margin: 0;"">Is there a person in this image?</p>
                    </div>
                </div>","1","main_experiment_trial","2","supermarket_scheme","schematic_sequence","chronological","","","","","","",""
"","","","","","html-keyboard-response","84","381336","0.0-84.0","F68059D809CF411A976512607F014387","019d0652-062e-7bc6-90ff-abf86577c6a8","019d0640-0a2d-7740-a972-9c73365b2dcb","","null","
                <div class=""stimulus-container"">
                    <img src=""images/schematic_sequence/supermarket_scheme/supermarket_scheme_3.png"" class=""exp-image"">
                    <div class=""question-area""></div> 
                </div>","null","","","","","","","","","","","",""
"","","","","","html-button-response","85","381960","0.0-85.0","F68059D809CF411A976512607F014387","019d0652-062e-7bc6-90ff-abf86577c6a8","019d0640-0a2d-7740-a972-9c73365b2dcb","","622","
                <div class=""stimulus-container"">
                    <img src=""images/schematic_sequence/supermarket_scheme/supermarket_scheme_3.png"" class=""exp-image"">
                    <div class=""question-area"">
                        <p style=""font-size: 20px; font-weight: bold; margin: 0;"">Is there a person in this image?</p>
                    </div>
                </div>","1","main_experiment_trial","3","supermarket_scheme","schematic_sequence","chronological","","","","","","",""
"","","","","","html-keyboard-response","86","386970","0.0-86.0","F68059D809CF411A976512607F014387","019d0652-062e-7bc6-90ff-abf86577c6a8","019d0640-0a2d-7740-a972-9c73365b2dcb","","null","
                <div class=""stimulus-container"">
                    <img src=""images/schematic_sequence/supermarket_scheme/supermarket_scheme_4.png"" class=""exp-image"">
                    <div class=""question-area""></div> 
                </div>","null","","","","","","","","","","","",""
"","","","","","html-button-response","87","387939","0.0-87.0","F68059D809CF411A976512607F014387","019d0652-062e-7bc6-90ff-abf86577c6a8","019d0640-0a2d-7740-a972-9c73365b2dcb","","968","
                <div class=""stimulus-container"">
                    <img src=""images/schematic_sequence/supermarket_scheme/supermarket_scheme_4.png"" class=""exp-image"">
                    <div class=""question-area"">
                        <p style=""font-size: 20px; font-weight: bold; margin: 0;"">Is there a person in this image?</p>
                    </div>
                </div>","0","main_experiment_trial","4","supermarket_scheme","schematic_sequence","chronological","","","","","","",""
"","","","","","html-keyboard-response","88","392955","0.0-88.0","F68059D809CF411A976512607F014387","019d0652-062e-7bc6-90ff-abf86577c6a8","019d0640-0a2d-7740-a972-9c73365b2dcb","","null","
                <div class=""stimulus-container"">
                    <img src=""images/schematic_sequence/supermarket_scheme/supermarket_scheme_5.png"" class=""exp-image"">
                    <div class=""question-area""></div> 
                </div>","null","","","","","","","","","","","",""
"","","","","","html-button-response","89","393832","0.0-89.0","F68059D809CF411A976512607F014387","019d0652-062e-7bc6-90ff-abf86577c6a8","019d0640-0a2d-7740-a972-9c73365b2dcb","","875","
                <div class=""stimulus-container"">
                    <img src=""images/schematic_sequence/supermarket_scheme/supermarket_scheme_5.png"" class=""exp-image"">
                    <div class=""question-area"">
                        <p style=""font-size: 20px; font-weight: bold; margin: 0;"">Is there a person in this image?</p>
                    </div>
                </div>","0","main_experiment_trial","5","supermarket_scheme","schematic_sequence","chronological","","","","","","",""
"","","","","","html-keyboard-response","90","398849","0.0-90.0","F68059D809CF411A976512607F014387","019d0652-062e-7bc6-90ff-abf86577c6a8","019d0640-0a2d-7740-a972-9c73365b2dcb","","null","
                <div class=""stimulus-container"">
                    <img src=""images/schematic_sequence/supermarket_scheme/supermarket_scheme_6.png"" class=""exp-image"">
                    <div class=""question-area""></div> 
                </div>","null","","","","","","","","","","","",""
"","","","","","html-button-response","91","399572","0.0-91.0","F68059D809CF411A976512607F014387","019d0652-062e-7bc6-90ff-abf86577c6a8","019d0640-0a2d-7740-a972-9c73365b2dcb","","722","
                <div class=""stimulus-container"">
                    <img src=""images/schematic_sequence/supermarket_scheme/supermarket_scheme_6.png"" class=""exp-image"">
                    <div class=""question-area"">
                        <p style=""font-size: 20px; font-weight: bold; margin: 0;"">Is there a person in this image?</p>
                    </div>
                </div>","0","main_experiment_trial","6","supermarket_scheme","schematic_sequence","chronological","","","","","","",""
"","","","","","html-keyboard-response","92","404575","0.0-92.0","F68059D809CF411A976512607F014387","019d0652-062e-7bc6-90ff-abf86577c6a8","019d0640-0a2d-7740-a972-9c73365b2dcb","","null","
                <div class=""stimulus-container"">
                    <img src=""images/schematic_sequence/supermarket_scheme/supermarket_scheme_7.png"" class=""exp-image"">
                    <div class=""question-area""></div> 
                </div>","null","","","","","","","","","","","",""
"","","","","","html-button-response","93","405829","0.0-93.0","F68059D809CF411A976512607F014387","019d0652-062e-7bc6-90ff-abf86577c6a8","019d0640-0a2d-7740-a972-9c73365b2dcb","","1253","
                <div class=""stimulus-container"">
                    <img src=""images/schematic_sequence/supermarket_scheme/supermarket_scheme_7.png"" class=""exp-image"">
                    <div class=""question-area"">
                        <p style=""font-size: 20px; font-weight: bold; margin: 0;"">Is there a person in this image?</p>
                    </div>
                </div>","0","main_experiment_trial","7","supermarket_scheme","schematic_sequence","chronological","","","","","","",""
"","","","","","html-keyboard-response","94","410842","0.0-94.0","F68059D809CF411A976512607F014387","019d0652-062e-7bc6-90ff-abf86577c6a8","019d0640-0a2d-7740-a972-9c73365b2dcb","","null","
                <div class=""stimulus-container"">
                    <img src=""images/schematic_sequence/supermarket_scheme/supermarket_scheme_8.png"" class=""exp-image"">
                    <div class=""question-area""></div> 
                </div>","null","","","","","","","","","","","",""
"","","","","","html-button-response","95","411749","0.0-95.0","F68059D809CF411A976512607F014387","019d0652-062e-7bc6-90ff-abf86577c6a8","019d0640-0a2d-7740-a972-9c73365b2dcb","","906","
                <div class=""stimulus-container"">
                    <img src=""images/schematic_sequence/supermarket_scheme/supermarket_scheme_8.png"" class=""exp-image"">
                    <div class=""question-area"">
                        <p style=""font-size: 20px; font-weight: bold; margin: 0;"">Is there a person in this image?</p>
                    </div>
                </div>","0","main_experiment_trial","8","supermarket_scheme","schematic_sequence","chronological","","","","","","",""
"","","","","","html-keyboard-response","96","416751","0.0-96.0","F68059D809CF411A976512607F014387","019d0652-062e-7bc6-90ff-abf86577c6a8","019d0640-0a2d-7740-a972-9c73365b2dcb","","null","
                <div class=""stimulus-container"">
                    <img src=""images/schematic_sequence/supermarket_scheme/supermarket_scheme_9.png"" class=""exp-image"">
                    <div class=""question-area""></div> 
                </div>","null","","","","","","","","","","","",""
"","","","","","html-button-response","97","417482","0.0-97.0","F68059D809CF411A976512607F014387","019d0652-062e-7bc6-90ff-abf86577c6a8","019d0640-0a2d-7740-a972-9c73365b2dcb","","730","
                <div class=""stimulus-container"">
                    <img src=""images/schematic_sequence/supermarket_scheme/supermarket_scheme_9.png"" class=""exp-image"">
                    <div class=""question-area"">
                        <p style=""font-size: 20px; font-weight: bold; margin: 0;"">Is there a person in this image?</p>
                    </div>
                </div>","0","main_experiment_trial","9","supermarket_scheme","schematic_sequence","chronological","","","","","","",""
"","","","","","html-keyboard-response","98","422499","0.0-98.0","F68059D809CF411A976512607F014387","019d0652-062e-7bc6-90ff-abf86577c6a8","019d0640-0a2d-7740-a972-9c73365b2dcb","","null","
                <div class=""stimulus-container"">
                    <img src=""images/schematic_sequence/supermarket_scheme/supermarket_scheme_ten.png"" class=""exp-image"">
                    <div class=""question-area""></div> 
                </div>","null","","","","","","","","","","","",""
"","","","","","html-button-response","99","423678","0.0-99.0","F68059D809CF411A976512607F014387","019d0652-062e-7bc6-90ff-abf86577c6a8","019d0640-0a2d-7740-a972-9c73365b2dcb","","1177","
                <div class=""stimulus-container"">
                    <img src=""images/schematic_sequence/supermarket_scheme/supermarket_scheme_ten.png"" class=""exp-image"">
                    <div class=""question-area"">
                        <p style=""font-size: 20px; font-weight: bold; margin: 0;"">Is there a person in this image?</p>
                    </div>
                </div>","1","main_experiment_trial","ten","supermarket_scheme","schematic_sequence","chronological","","","","","","",""
"","","","","","html-keyboard-response","100","428693","0.0-100.0","F68059D809CF411A976512607F014387","019d0652-062e-7bc6-90ff-abf86577c6a8","019d0640-0a2d-7740-a972-9c73365b2dcb","","null","<div style=""background-color: white; width: 100vw; height: 100vh;""></div>","null","","","","","","","","","","","",""
"","","","","","html-keyboard-response","101","433704","0.0-101.0","F68059D809CF411A976512607F014387","019d0652-062e-7bc6-90ff-abf86577c6a8","019d0640-0a2d-7740-a972-9c73365b2dcb","","null","
                <div class=""stimulus-container"">
                    <img src=""images/causal_sequence/package_causal/package_causal_1.png"" class=""exp-image"">
                    <div class=""question-area""></div> 
                </div>","null","","","","","","","","","","","",""
"","","","","","html-button-response","102","434537","0.0-102.0","F68059D809CF411A976512607F014387","019d0652-062e-7bc6-90ff-abf86577c6a8","019d0640-0a2d-7740-a972-9c73365b2dcb","","832","
                <div class=""stimulus-container"">
                    <img src=""images/causal_sequence/package_causal/package_causal_1.png"" class=""exp-image"">
                    <div class=""question-area"">
                        <p style=""font-size: 20px; font-weight: bold; margin: 0;"">Is there a person in this image?</p>
                    </div>
                </div>","0","main_experiment_trial","1","package_causal","causal_sequence","chronological","","","","","","",""
"","","","","","html-keyboard-response","103","439549","0.0-103.0","F68059D809CF411A976512607F014387","019d0652-062e-7bc6-90ff-abf86577c6a8","019d0640-0a2d-7740-a972-9c73365b2dcb","","null","
                <div class=""stimulus-container"">
                    <img src=""images/causal_sequence/package_causal/package_causal_2.png"" class=""exp-image"">
                    <div class=""question-area""></div> 
                </div>","null","","","","","","","","","","","",""
"","","","","","html-button-response","104","440180","0.0-104.0","F68059D809CF411A976512607F014387","019d0652-062e-7bc6-90ff-abf86577c6a8","019d0640-0a2d-7740-a972-9c73365b2dcb","","630","
                <div class=""stimulus-container"">
                    <img src=""images/causal_sequence/package_causal/package_causal_2.png"" class=""exp-image"">
                    <div class=""question-area"">
                        <p style=""font-size: 20px; font-weight: bold; margin: 0;"">Is there a person in this image?</p>
                    </div>
                </div>","0","main_experiment_trial","2","package_causal","causal_sequence","chronological","","","","","","",""
"","","","","","html-keyboard-response","105","445187","0.0-105.0","F68059D809CF411A976512607F014387","019d0652-062e-7bc6-90ff-abf86577c6a8","019d0640-0a2d-7740-a972-9c73365b2dcb","","null","
                <div class=""stimulus-container"">
                    <img src=""images/causal_sequence/package_causal/package_causal_3.png"" class=""exp-image"">
                    <div class=""question-area""></div> 
                </div>","null","","","","","","","","","","","",""
"","","","","","html-button-response","106","445948","0.0-106.0","F68059D809CF411A976512607F014387","019d0652-062e-7bc6-90ff-abf86577c6a8","019d0640-0a2d-7740-a972-9c73365b2dcb","","760","
                <div class=""stimulus-container"">
                    <img src=""images/causal_sequence/package_causal/package_causal_3.png"" class=""exp-image"">
                    <div class=""question-area"">
                        <p style=""font-size: 20px; font-weight: bold; margin: 0;"">Is there a person in this image?</p>
                    </div>
                </div>","0","main_experiment_trial","3","package_causal","causal_sequence","chronological","","","","","","",""
"","","","","","html-keyboard-response","107","450957","0.0-107.0","F68059D809CF411A976512607F014387","019d0652-062e-7bc6-90ff-abf86577c6a8","019d0640-0a2d-7740-a972-9c73365b2dcb","","null","
                <div class=""stimulus-container"">
                    <img src=""images/causal_sequence/package_causal/package_causal_4.png"" class=""exp-image"">
                    <div class=""question-area""></div> 
                </div>","null","","","","","","","","","","","",""
"","","","","","html-button-response","108","452763","0.0-108.0","F68059D809CF411A976512607F014387","019d0652-062e-7bc6-90ff-abf86577c6a8","019d0640-0a2d-7740-a972-9c73365b2dcb","","1804","
                <div class=""stimulus-container"">
                    <img src=""images/causal_sequence/package_causal/package_causal_4.png"" class=""exp-image"">
                    <div class=""question-area"">
                        <p style=""font-size: 20px; font-weight: bold; margin: 0;"">Is there a person in this image?</p>
                    </div>
                </div>","1","main_experiment_trial","4","package_causal","causal_sequence","chronological","","","","","","",""
"","","","","","html-keyboard-response","109","457766","0.0-109.0","F68059D809CF411A976512607F014387","019d0652-062e-7bc6-90ff-abf86577c6a8","019d0640-0a2d-7740-a972-9c73365b2dcb","","null","
                <div class=""stimulus-container"">
                    <img src=""images/causal_sequence/package_causal/package_causal_5.png"" class=""exp-image"">
                    <div class=""question-area""></div> 
                </div>","null","","","","","","","","","","","",""
"","","","","","html-button-response","110","458576","0.0-110.0","F68059D809CF411A976512607F014387","019d0652-062e-7bc6-90ff-abf86577c6a8","019d0640-0a2d-7740-a972-9c73365b2dcb","","808","
                <div class=""stimulus-container"">
                    <img src=""images/causal_sequence/package_causal/package_causal_5.png"" class=""exp-image"">
                    <div class=""question-area"">
                        <p style=""font-size: 20px; font-weight: bold; margin: 0;"">Is there a person in this image?</p>
                    </div>
                </div>","0","main_experiment_trial","5","package_causal","causal_sequence","chronological","","","","","","",""
"","","","","","html-keyboard-response","111","463589","0.0-111.0","F68059D809CF411A976512607F014387","019d0652-062e-7bc6-90ff-abf86577c6a8","019d0640-0a2d-7740-a972-9c73365b2dcb","","null","
                <div class=""stimulus-container"">
                    <img src=""images/causal_sequence/package_causal/package_causal_6.png"" class=""exp-image"">
                    <div class=""question-area""></div> 
                </div>","null","","","","","","","","","","","",""
"","","","","","html-button-response","112","464213","0.0-112.0","F68059D809CF411A976512607F014387","019d0652-062e-7bc6-90ff-abf86577c6a8","019d0640-0a2d-7740-a972-9c73365b2dcb","","623","
                <div class=""stimulus-container"">
                    <img src=""images/causal_sequence/package_causal/package_causal_6.png"" class=""exp-image"">
                    <div class=""question-area"">
                        <p style=""font-size: 20px; font-weight: bold; margin: 0;"">Is there a person in this image?</p>
                    </div>
                </div>","0","main_experiment_trial","6","package_causal","causal_sequence","chronological","","","","","","",""
"","","","","","html-keyboard-response","113","469220","0.0-113.0","F68059D809CF411A976512607F014387","019d0652-062e-7bc6-90ff-abf86577c6a8","019d0640-0a2d-7740-a972-9c73365b2dcb","","null","
                <div class=""stimulus-container"">
                    <img src=""images/causal_sequence/package_causal/package_causal_7.png"" class=""exp-image"">
                    <div class=""question-area""></div> 
                </div>","null","","","","","","","","","","","",""
"","","","","","html-button-response","114","469883","0.0-114.0","F68059D809CF411A976512607F014387","019d0652-062e-7bc6-90ff-abf86577c6a8","019d0640-0a2d-7740-a972-9c73365b2dcb","","662","
                <div class=""stimulus-container"">
                    <img src=""images/causal_sequence/package_causal/package_causal_7.png"" class=""exp-image"">
                    <div class=""question-area"">
                        <p style=""font-size: 20px; font-weight: bold; margin: 0;"">Is there a person in this image?</p>
                    </div>
                </div>","0","main_experiment_trial","7","package_causal","causal_sequence","chronological","","","","","","",""
"","","","","","html-keyboard-response","115","474892","0.0-115.0","F68059D809CF411A976512607F014387","019d0652-062e-7bc6-90ff-abf86577c6a8","019d0640-0a2d-7740-a972-9c73365b2dcb","","null","
                <div class=""stimulus-container"">
                    <img src=""images/causal_sequence/package_causal/package_causal_8.png"" class=""exp-image"">
                    <div class=""question-area""></div> 
                </div>","null","","","","","","","","","","","",""
"","","","","","html-button-response","116","475589","0.0-116.0","F68059D809CF411A976512607F014387","019d0652-062e-7bc6-90ff-abf86577c6a8","019d0640-0a2d-7740-a972-9c73365b2dcb","","695","
                <div class=""stimulus-container"">
                    <img src=""images/causal_sequence/package_causal/package_causal_8.png"" class=""exp-image"">
                    <div class=""question-area"">
                        <p style=""font-size: 20px; font-weight: bold; margin: 0;"">Is there a person in this image?</p>
                    </div>
                </div>","0","main_experiment_trial","8","package_causal","causal_sequence","chronological","","","","","","",""
"","","","","","html-keyboard-response","117","480595","0.0-117.0","F68059D809CF411A976512607F014387","019d0652-062e-7bc6-90ff-abf86577c6a8","019d0640-0a2d-7740-a972-9c73365b2dcb","","null","
                <div class=""stimulus-container"">
                    <img src=""images/causal_sequence/package_causal/package_causal_9.png"" class=""exp-image"">
                    <div class=""question-area""></div> 
                </div>","null","","","","","","","","","","","",""
"","","","","","html-button-response","118","481322","0.0-118.0","F68059D809CF411A976512607F014387","019d0652-062e-7bc6-90ff-abf86577c6a8","019d0640-0a2d-7740-a972-9c73365b2dcb","","725","
                <div class=""stimulus-container"">
                    <img src=""images/causal_sequence/package_causal/package_causal_9.png"" class=""exp-image"">
                    <div class=""question-area"">
                        <p style=""font-size: 20px; font-weight: bold; margin: 0;"">Is there a person in this image?</p>
                    </div>
                </div>","0","main_experiment_trial","9","package_causal","causal_sequence","chronological","","","","","","",""
"","","","","","html-keyboard-response","119","486333","0.0-119.0","F68059D809CF411A976512607F014387","019d0652-062e-7bc6-90ff-abf86577c6a8","019d0640-0a2d-7740-a972-9c73365b2dcb","","null","
                <div class=""stimulus-container"">
                    <img src=""images/causal_sequence/package_causal/package_causal_ten.png"" class=""exp-image"">
                    <div class=""question-area""></div> 
                </div>","null","","","","","","","","","","","",""
"","","","","","html-button-response","120","487004","0.0-120.0","F68059D809CF411A976512607F014387","019d0652-062e-7bc6-90ff-abf86577c6a8","019d0640-0a2d-7740-a972-9c73365b2dcb","","670","
                <div class=""stimulus-container"">
                    <img src=""images/causal_sequence/package_causal/package_causal_ten.png"" class=""exp-image"">
                    <div class=""question-area"">
                        <p style=""font-size: 20px; font-weight: bold; margin: 0;"">Is there a person in this image?</p>
                    </div>
                </div>","0","main_experiment_trial","ten","package_causal","causal_sequence","chronological","","","","","","",""
"","","","","","html-keyboard-response","121","492019","0.0-121.0","F68059D809CF411A976512607F014387","019d0652-062e-7bc6-90ff-abf86577c6a8","019d0640-0a2d-7740-a972-9c73365b2dcb","","null","<div style=""background-color: white; width: 100vw; height: 100vh;""></div>","null","","","","","","","","","","","",""
"","","","","","html-keyboard-response","122","497036","0.0-122.0","F68059D809CF411A976512607F014387","019d0652-062e-7bc6-90ff-abf86577c6a8","019d0640-0a2d-7740-a972-9c73365b2dcb","","null","
                <div class=""stimulus-container"">
                    <img src=""images/semantic_sequence/housework_semantic/housework_semantic_1.png"" class=""exp-image"">
                    <div class=""question-area""></div> 
                </div>","null","","","","","","","","","","","",""
"","","","","","html-button-response","123","500053","0.0-123.0","F68059D809CF411A976512607F014387","019d0652-062e-7bc6-90ff-abf86577c6a8","019d0640-0a2d-7740-a972-9c73365b2dcb","","null","
                <div class=""stimulus-container"">
                    <img src=""images/semantic_sequence/housework_semantic/housework_semantic_1.png"" class=""exp-image"">
                    <div class=""question-area"">
                        <p style=""font-size: 20px; font-weight: bold; margin: 0;"">Is there a person in this image?</p>
                    </div>
                </div>","null","main_experiment_trial","1","housework_semantic","semantic_sequence","chronological","","","","","","",""
"","","","","","html-keyboard-response","124","505067","0.0-124.0","F68059D809CF411A976512607F014387","019d0652-062e-7bc6-90ff-abf86577c6a8","019d0640-0a2d-7740-a972-9c73365b2dcb","","null","
                <div class=""stimulus-container"">
                    <img src=""images/semantic_sequence/housework_semantic/housework_semantic_2.png"" class=""exp-image"">
                    <div class=""question-area""></div> 
                </div>","null","","","","","","","","","","","",""
"","","","","","html-button-response","125","506132","0.0-125.0","F68059D809CF411A976512607F014387","019d0652-062e-7bc6-90ff-abf86577c6a8","019d0640-0a2d-7740-a972-9c73365b2dcb","","1064","
                <div class=""stimulus-container"">
                    <img src=""images/semantic_sequence/housework_semantic/housework_semantic_2.png"" class=""exp-image"">
                    <div class=""question-area"">
                        <p style=""font-size: 20px; font-weight: bold; margin: 0;"">Is there a person in this image?</p>
                    </div>
                </div>","0","main_experiment_trial","2","housework_semantic","semantic_sequence","chronological","","","","","","",""
"","","","","","html-keyboard-response","126","511134","0.0-126.0","F68059D809CF411A976512607F014387","019d0652-062e-7bc6-90ff-abf86577c6a8","019d0640-0a2d-7740-a972-9c73365b2dcb","","null","
                <div class=""stimulus-container"">
                    <img src=""images/semantic_sequence/housework_semantic/housework_semantic_3.png"" class=""exp-image"">
                    <div class=""question-area""></div> 
                </div>","null","","","","","","","","","","","",""
"","","","","","html-button-response","127","511946","0.0-127.0","F68059D809CF411A976512607F014387","019d0652-062e-7bc6-90ff-abf86577c6a8","019d0640-0a2d-7740-a972-9c73365b2dcb","","811","
                <div class=""stimulus-container"">
                    <img src=""images/semantic_sequence/housework_semantic/housework_semantic_3.png"" class=""exp-image"">
                    <div class=""question-area"">
                        <p style=""font-size: 20px; font-weight: bold; margin: 0;"">Is there a person in this image?</p>
                    </div>
                </div>","0","main_experiment_trial","3","housework_semantic","semantic_sequence","chronological","","","","","","",""
"","","","","","html-keyboard-response","128","516952","0.0-128.0","F68059D809CF411A976512607F014387","019d0652-062e-7bc6-90ff-abf86577c6a8","019d0640-0a2d-7740-a972-9c73365b2dcb","","null","
                <div class=""stimulus-container"">
                    <img src=""images/semantic_sequence/housework_semantic/housework_semantic_4.png"" class=""exp-image"">
                    <div class=""question-area""></div> 
                </div>","null","","","","","","","","","","","",""
"","","","","","html-button-response","129","517605","0.0-129.0","F68059D809CF411A976512607F014387","019d0652-062e-7bc6-90ff-abf86577c6a8","019d0640-0a2d-7740-a972-9c73365b2dcb","","651","
                <div class=""stimulus-container"">
                    <img src=""images/semantic_sequence/housework_semantic/housework_semantic_4.png"" class=""exp-image"">
                    <div class=""question-area"">
                        <p style=""font-size: 20px; font-weight: bold; margin: 0;"">Is there a person in this image?</p>
                    </div>
                </div>","0","main_experiment_trial","4","housework_semantic","semantic_sequence","chronological","","","","","","",""
"","","","","","html-keyboard-response","130","522610","0.0-130.0","F68059D809CF411A976512607F014387","019d0652-062e-7bc6-90ff-abf86577c6a8","019d0640-0a2d-7740-a972-9c73365b2dcb","","null","
                <div class=""stimulus-container"">
                    <img src=""images/semantic_sequence/housework_semantic/housework_semantic_5.png"" class=""exp-image"">
                    <div class=""question-area""></div> 
                </div>","null","","","","","","","","","","","",""
"","","","","","html-button-response","131","523354","0.0-131.0","F68059D809CF411A976512607F014387","019d0652-062e-7bc6-90ff-abf86577c6a8","019d0640-0a2d-7740-a972-9c73365b2dcb","","743","
                <div class=""stimulus-container"">
                    <img src=""images/semantic_sequence/housework_semantic/housework_semantic_5.png"" class=""exp-image"">
                    <div class=""question-area"">
                        <p style=""font-size: 20px; font-weight: bold; margin: 0;"">Is there a person in this image?</p>
                    </div>
                </div>","0","main_experiment_trial","5","housework_semantic","semantic_sequence","chronological","","","","","","",""
"","","","","","html-keyboard-response","132","528365","0.0-132.0","F68059D809CF411A976512607F014387","019d0652-062e-7bc6-90ff-abf86577c6a8","019d0640-0a2d-7740-a972-9c73365b2dcb","","null","
                <div class=""stimulus-container"">
                    <img src=""images/semantic_sequence/housework_semantic/housework_semantic_6.png"" class=""exp-image"">
                    <div class=""question-area""></div> 
                </div>","null","","","","","","","","","","","",""
"","","","","","html-button-response","133","529207","0.0-133.0","F68059D809CF411A976512607F014387","019d0652-062e-7bc6-90ff-abf86577c6a8","019d0640-0a2d-7740-a972-9c73365b2dcb","","840","
                <div class=""stimulus-container"">
                    <img src=""images/semantic_sequence/housework_semantic/housework_semantic_6.png"" class=""exp-image"">
                    <div class=""question-area"">
                        <p style=""font-size: 20px; font-weight: bold; margin: 0;"">Is there a person in this image?</p>
                    </div>
                </div>","0","main_experiment_trial","6","housework_semantic","semantic_sequence","chronological","","","","","","",""
"","","","","","html-keyboard-response","134","534211","0.0-134.0","F68059D809CF411A976512607F014387","019d0652-062e-7bc6-90ff-abf86577c6a8","019d0640-0a2d-7740-a972-9c73365b2dcb","","null","
                <div class=""stimulus-container"">
                    <img src=""images/semantic_sequence/housework_semantic/housework_semantic_7.png"" class=""exp-image"">
                    <div class=""question-area""></div> 
                </div>","null","","","","","","","","","","","",""
"","","","","","html-button-response","135","535522","0.0-135.0","F68059D809CF411A976512607F014387","019d0652-062e-7bc6-90ff-abf86577c6a8","019d0640-0a2d-7740-a972-9c73365b2dcb","","1309","
                <div class=""stimulus-container"">
                    <img src=""images/semantic_sequence/housework_semantic/housework_semantic_7.png"" class=""exp-image"">
                    <div class=""question-area"">
                        <p style=""font-size: 20px; font-weight: bold; margin: 0;"">Is there a person in this image?</p>
                    </div>
                </div>","0","main_experiment_trial","7","housework_semantic","semantic_sequence","chronological","","","","","","",""
"","","","","","html-keyboard-response","136","540528","0.0-136.0","F68059D809CF411A976512607F014387","019d0652-062e-7bc6-90ff-abf86577c6a8","019d0640-0a2d-7740-a972-9c73365b2dcb","","null","
                <div class=""stimulus-container"">
                    <img src=""images/semantic_sequence/housework_semantic/housework_semantic_8.png"" class=""exp-image"">
                    <div class=""question-area""></div> 
                </div>","null","","","","","","","","","","","",""
"","","","","","html-button-response","137","542184","0.0-137.0","F68059D809CF411A976512607F014387","019d0652-062e-7bc6-90ff-abf86577c6a8","019d0640-0a2d-7740-a972-9c73365b2dcb","","1655","
                <div class=""stimulus-container"">
                    <img src=""images/semantic_sequence/housework_semantic/housework_semantic_8.png"" class=""exp-image"">
                    <div class=""question-area"">
                        <p style=""font-size: 20px; font-weight: bold; margin: 0;"">Is there a person in this image?</p>
                    </div>
                </div>","0","main_experiment_trial","8","housework_semantic","semantic_sequence","chronological","","","","","","",""
"","","","","","html-keyboard-response","138","547190","0.0-138.0","F68059D809CF411A976512607F014387","019d0652-062e-7bc6-90ff-abf86577c6a8","019d0640-0a2d-7740-a972-9c73365b2dcb","","null","
                <div class=""stimulus-container"">
                    <img src=""images/semantic_sequence/housework_semantic/housework_semantic_9.png"" class=""exp-image"">
                    <div class=""question-area""></div> 
                </div>","null","","","","","","","","","","","",""
"","","","","","html-button-response","139","547856","0.0-139.0","F68059D809CF411A976512607F014387","019d0652-062e-7bc6-90ff-abf86577c6a8","019d0640-0a2d-7740-a972-9c73365b2dcb","","665","
                <div class=""stimulus-container"">
                    <img src=""images/semantic_sequence/housework_semantic/housework_semantic_9.png"" class=""exp-image"">
                    <div class=""question-area"">
                        <p style=""font-size: 20px; font-weight: bold; margin: 0;"">Is there a person in this image?</p>
                    </div>
                </div>","0","main_experiment_trial","9","housework_semantic","semantic_sequence","chronological","","","","","","",""
"","","","","","html-keyboard-response","140","552864","0.0-140.0","F68059D809CF411A976512607F014387","019d0652-062e-7bc6-90ff-abf86577c6a8","019d0640-0a2d-7740-a972-9c73365b2dcb","","null","
                <div class=""stimulus-container"">
                    <img src=""images/semantic_sequence/housework_semantic/housework_semantic_ten.png"" class=""exp-image"">
                    <div class=""question-area""></div> 
                </div>","null","","","","","","","","","","","",""
"","","","","","html-button-response","141","553518","0.0-141.0","F68059D809CF411A976512607F014387","019d0652-062e-7bc6-90ff-abf86577c6a8","019d0640-0a2d-7740-a972-9c73365b2dcb","","652","
                <div class=""stimulus-container"">
                    <img src=""images/semantic_sequence/housework_semantic/housework_semantic_ten.png"" class=""exp-image"">
                    <div class=""question-area"">
                        <p style=""font-size: 20px; font-weight: bold; margin: 0;"">Is there a person in this image?</p>
                    </div>
                </div>","0","main_experiment_trial","ten","housework_semantic","semantic_sequence","chronological","","","","","","",""
"","","","","","html-keyboard-response","142","558531","0.0-142.0","F68059D809CF411A976512607F014387","019d0652-062e-7bc6-90ff-abf86577c6a8","019d0640-0a2d-7740-a972-9c73365b2dcb","","null","<div style=""background-color: white; width: 100vw; height: 100vh;""></div>","null","","","","","","","","","","","",""
"","","","","","html-keyboard-response","143","563537","0.0-143.0","F68059D809CF411A976512607F014387","019d0652-062e-7bc6-90ff-abf86577c6a8","019d0640-0a2d-7740-a972-9c73365b2dcb","","null","
                <div class=""stimulus-container"">
                    <img src=""images/semantic_sequence/kitchen_operations_semantic/kitchen_operations_semantic_1.png"" class=""exp-image"">
                    <div class=""question-area""></div> 
                </div>","null","","","","","","","","","","","",""
"","","","","","html-button-response","144","564230","0.0-144.0","F68059D809CF411A976512607F014387","019d0652-062e-7bc6-90ff-abf86577c6a8","019d0640-0a2d-7740-a972-9c73365b2dcb","","691","
                <div class=""stimulus-container"">
                    <img src=""images/semantic_sequence/kitchen_operations_semantic/kitchen_operations_semantic_1.png"" class=""exp-image"">
                    <div class=""question-area"">
                        <p style=""font-size: 20px; font-weight: bold; margin: 0;"">Is there a person in this image?</p>
                    </div>
                </div>","0","main_experiment_trial","1","kitchen_operations_semantic","semantic_sequence","chronological","","","","","","",""
"","","","","","html-keyboard-response","145","569241","0.0-145.0","F68059D809CF411A976512607F014387","019d0652-062e-7bc6-90ff-abf86577c6a8","019d0640-0a2d-7740-a972-9c73365b2dcb","","null","
                <div class=""stimulus-container"">
                    <img src=""images/semantic_sequence/kitchen_operations_semantic/kitchen_operations_semantic_2.png"" class=""exp-image"">
                    <div class=""question-area""></div> 
                </div>","null","","","","","","","","","","","",""
"","","","","","html-button-response","146","570500","0.0-146.0","F68059D809CF411A976512607F014387","019d0652-062e-7bc6-90ff-abf86577c6a8","019d0640-0a2d-7740-a972-9c73365b2dcb","","1257","
                <div class=""stimulus-container"">
                    <img src=""images/semantic_sequence/kitchen_operations_semantic/kitchen_operations_semantic_2.png"" class=""exp-image"">
                    <div class=""question-area"">
                        <p style=""font-size: 20px; font-weight: bold; margin: 0;"">Is there a person in this image?</p>
                    </div>
                </div>","0","main_experiment_trial","2","kitchen_operations_semantic","semantic_sequence","chronological","","","","","","",""
"","","","","","html-keyboard-response","147","575505","0.0-147.0","F68059D809CF411A976512607F014387","019d0652-062e-7bc6-90ff-abf86577c6a8","019d0640-0a2d-7740-a972-9c73365b2dcb","","null","
                <div class=""stimulus-container"">
                    <img src=""images/semantic_sequence/kitchen_operations_semantic/kitchen_operations_semantic_3.png"" class=""exp-image"">
                    <div class=""question-area""></div> 
                </div>","null","","","","","","","","","","","",""
"","","","","","html-button-response","148","576224","0.0-148.0","F68059D809CF411A976512607F014387","019d0652-062e-7bc6-90ff-abf86577c6a8","019d0640-0a2d-7740-a972-9c73365b2dcb","","718","
                <div class=""stimulus-container"">
                    <img src=""images/semantic_sequence/kitchen_operations_semantic/kitchen_operations_semantic_3.png"" class=""exp-image"">
                    <div class=""question-area"">
                        <p style=""font-size: 20px; font-weight: bold; margin: 0;"">Is there a person in this image?</p>
                    </div>
                </div>","0","main_experiment_trial","3","kitchen_operations_semantic","semantic_sequence","chronological","","","","","","",""
"","","","","","html-keyboard-response","149","581238","0.0-149.0","F68059D809CF411A976512607F014387","019d0652-062e-7bc6-90ff-abf86577c6a8","019d0640-0a2d-7740-a972-9c73365b2dcb","","null","
                <div class=""stimulus-container"">
                    <img src=""images/semantic_sequence/kitchen_operations_semantic/kitchen_operations_semantic_4.png"" class=""exp-image"">
                    <div class=""question-area""></div> 
                </div>","null","","","","","","","","","","","",""
"","","","","","html-button-response","150","582296","0.0-150.0","F68059D809CF411A976512607F014387","019d0652-062e-7bc6-90ff-abf86577c6a8","019d0640-0a2d-7740-a972-9c73365b2dcb","","1056","
                <div class=""stimulus-container"">
                    <img src=""images/semantic_sequence/kitchen_operations_semantic/kitchen_operations_semantic_4.png"" class=""exp-image"">
                    <div class=""question-area"">
                        <p style=""font-size: 20px; font-weight: bold; margin: 0;"">Is there a person in this image?</p>
                    </div>
                </div>","0","main_experiment_trial","4","kitchen_operations_semantic","semantic_sequence","chronological","","","","","","",""
"","","","","","html-keyboard-response","151","587300","0.0-151.0","F68059D809CF411A976512607F014387","019d0652-062e-7bc6-90ff-abf86577c6a8","019d0640-0a2d-7740-a972-9c73365b2dcb","","null","
                <div class=""stimulus-container"">
                    <img src=""images/semantic_sequence/kitchen_operations_semantic/kitchen_operations_semantic_5.png"" class=""exp-image"">
                    <div class=""question-area""></div> 
                </div>","null","","","","","","","","","","","",""
"","","","","","html-button-response","152","588143","0.0-152.0","F68059D809CF411A976512607F014387","019d0652-062e-7bc6-90ff-abf86577c6a8","019d0640-0a2d-7740-a972-9c73365b2dcb","","841","
                <div class=""stimulus-container"">
                    <img src=""images/semantic_sequence/kitchen_operations_semantic/kitchen_operations_semantic_5.png"" class=""exp-image"">
                    <div class=""question-area"">
                        <p style=""font-size: 20px; font-weight: bold; margin: 0;"">Is there a person in this image?</p>
                    </div>
                </div>","0","main_experiment_trial","5","kitchen_operations_semantic","semantic_sequence","chronological","","","","","","",""
"","","","","","html-keyboard-response","153","593160","0.0-153.0","F68059D809CF411A976512607F014387","019d0652-062e-7bc6-90ff-abf86577c6a8","019d0640-0a2d-7740-a972-9c73365b2dcb","","null","
                <div class=""stimulus-container"">
                    <img src=""images/semantic_sequence/kitchen_operations_semantic/kitchen_operations_semantic_6.png"" class=""exp-image"">
                    <div class=""question-area""></div> 
                </div>","null","","","","","","","","","","","",""
"","","","","","html-button-response","154","593914","0.0-154.0","F68059D809CF411A976512607F014387","019d0652-062e-7bc6-90ff-abf86577c6a8","019d0640-0a2d-7740-a972-9c73365b2dcb","","753","
                <div class=""stimulus-container"">
                    <img src=""images/semantic_sequence/kitchen_operations_semantic/kitchen_operations_semantic_6.png"" class=""exp-image"">
                    <div class=""question-area"">
                        <p style=""font-size: 20px; font-weight: bold; margin: 0;"">Is there a person in this image?</p>
                    </div>
                </div>","0","main_experiment_trial","6","kitchen_operations_semantic","semantic_sequence","chronological","","","","","","",""
"","","","","","html-keyboard-response","155","598918","0.0-155.0","F68059D809CF411A976512607F014387","019d0652-062e-7bc6-90ff-abf86577c6a8","019d0640-0a2d-7740-a972-9c73365b2dcb","","null","
                <div class=""stimulus-container"">
                    <img src=""images/semantic_sequence/kitchen_operations_semantic/kitchen_operations_semantic_7.png"" class=""exp-image"">
                    <div class=""question-area""></div> 
                </div>","null","","","","","","","","","","","",""
"","","","","","html-button-response","156","599685","0.0-156.0","F68059D809CF411A976512607F014387","019d0652-062e-7bc6-90ff-abf86577c6a8","019d0640-0a2d-7740-a972-9c73365b2dcb","","766","
                <div class=""stimulus-container"">
                    <img src=""images/semantic_sequence/kitchen_operations_semantic/kitchen_operations_semantic_7.png"" class=""exp-image"">
                    <div class=""question-area"">
                        <p style=""font-size: 20px; font-weight: bold; margin: 0;"">Is there a person in this image?</p>
                    </div>
                </div>","0","main_experiment_trial","7","kitchen_operations_semantic","semantic_sequence","chronological","","","","","","",""
"","","","","","html-keyboard-response","157","604688","0.0-157.0","F68059D809CF411A976512607F014387","019d0652-062e-7bc6-90ff-abf86577c6a8","019d0640-0a2d-7740-a972-9c73365b2dcb","","null","
                <div class=""stimulus-container"">
                    <img src=""images/semantic_sequence/kitchen_operations_semantic/kitchen_operations_semantic_8.png"" class=""exp-image"">
                    <div class=""question-area""></div> 
                </div>","null","","","","","","","","","","","",""
"","","","","","html-button-response","158","605412","0.0-158.0","F68059D809CF411A976512607F014387","019d0652-062e-7bc6-90ff-abf86577c6a8","019d0640-0a2d-7740-a972-9c73365b2dcb","","723","
                <div class=""stimulus-container"">
                    <img src=""images/semantic_sequence/kitchen_operations_semantic/kitchen_operations_semantic_8.png"" class=""exp-image"">
                    <div class=""question-area"">
                        <p style=""font-size: 20px; font-weight: bold; margin: 0;"">Is there a person in this image?</p>
                    </div>
                </div>","0","main_experiment_trial","8","kitchen_operations_semantic","semantic_sequence","chronological","","","","","","",""
"","","","","","html-keyboard-response","159","610416","0.0-159.0","F68059D809CF411A976512607F014387","019d0652-062e-7bc6-90ff-abf86577c6a8","019d0640-0a2d-7740-a972-9c73365b2dcb","","null","
                <div class=""stimulus-container"">
                    <img src=""images/semantic_sequence/kitchen_operations_semantic/kitchen_operations_semantic_9.png"" class=""exp-image"">
                    <div class=""question-area""></div> 
                </div>","null","","","","","","","","","","","",""
"","","","","","html-button-response","160","611183","0.0-160.0","F68059D809CF411A976512607F014387","019d0652-062e-7bc6-90ff-abf86577c6a8","019d0640-0a2d-7740-a972-9c73365b2dcb","","765","
                <div class=""stimulus-container"">
                    <img src=""images/semantic_sequence/kitchen_operations_semantic/kitchen_operations_semantic_9.png"" class=""exp-image"">
                    <div class=""question-area"">
                        <p style=""font-size: 20px; font-weight: bold; margin: 0;"">Is there a person in this image?</p>
                    </div>
                </div>","0","main_experiment_trial","9","kitchen_operations_semantic","semantic_sequence","chronological","","","","","","",""
"","","","","","html-keyboard-response","161","616198","0.0-161.0","F68059D809CF411A976512607F014387","019d0652-062e-7bc6-90ff-abf86577c6a8","019d0640-0a2d-7740-a972-9c73365b2dcb","","null","
                <div class=""stimulus-container"">
                    <img src=""images/semantic_sequence/kitchen_operations_semantic/kitchen_operations_semantic_ten.png"" class=""exp-image"">
                    <div class=""question-area""></div> 
                </div>","null","","","","","","","","","","","",""
"","","","","","html-button-response","162","617016","0.0-162.0","F68059D809CF411A976512607F014387","019d0652-062e-7bc6-90ff-abf86577c6a8","019d0640-0a2d-7740-a972-9c73365b2dcb","","818","
                <div class=""stimulus-container"">
                    <img src=""images/semantic_sequence/kitchen_operations_semantic/kitchen_operations_semantic_ten.png"" class=""exp-image"">
                    <div class=""question-area"">
                        <p style=""font-size: 20px; font-weight: bold; margin: 0;"">Is there a person in this image?</p>
                    </div>
                </div>","0","main_experiment_trial","ten","kitchen_operations_semantic","semantic_sequence","chronological","","","","","","",""
"","","","","","html-keyboard-response","163","622025","0.0-163.0","F68059D809CF411A976512607F014387","019d0652-062e-7bc6-90ff-abf86577c6a8","019d0640-0a2d-7740-a972-9c73365b2dcb","","null","<div style=""background-color: white; width: 100vw; height: 100vh;""></div>","null","","","","","","","","","","","",""
"","","","","","html-keyboard-response","164","627041","0.0-164.0","F68059D809CF411A976512607F014387","019d0652-062e-7bc6-90ff-abf86577c6a8","019d0640-0a2d-7740-a972-9c73365b2dcb","","null","
                <div class=""stimulus-container"">
                    <img src=""images/causal_sequence/saving_a_cat_causal/saving_a_cat_causal_1.png"" class=""exp-image"">
                    <div class=""question-area""></div> 
                </div>","null","","","","","","","","","","","",""
"","","","","","html-button-response","165","627973","0.0-165.0","F68059D809CF411A976512607F014387","019d0652-062e-7bc6-90ff-abf86577c6a8","019d0640-0a2d-7740-a972-9c73365b2dcb","","930","
                <div class=""stimulus-container"">
                    <img src=""images/causal_sequence/saving_a_cat_causal/saving_a_cat_causal_1.png"" class=""exp-image"">
                    <div class=""question-area"">
                        <p style=""font-size: 20px; font-weight: bold; margin: 0;"">Is there a person in this image?</p>
                    </div>
                </div>","0","main_experiment_trial","1","saving_a_cat_causal","causal_sequence","chronological","","","","","","",""
"","","","","","html-keyboard-response","166","632988","0.0-166.0","F68059D809CF411A976512607F014387","019d0652-062e-7bc6-90ff-abf86577c6a8","019d0640-0a2d-7740-a972-9c73365b2dcb","","null","
                <div class=""stimulus-container"">
                    <img src=""images/causal_sequence/saving_a_cat_causal/saving_a_cat_causal_2.png"" class=""exp-image"">
                    <div class=""question-area""></div> 
                </div>","null","","","","","","","","","","","",""
"","","","","","html-button-response","167","634033","0.0-167.0","F68059D809CF411A976512607F014387","019d0652-062e-7bc6-90ff-abf86577c6a8","019d0640-0a2d-7740-a972-9c73365b2dcb","","1044","
                <div class=""stimulus-container"">
                    <img src=""images/causal_sequence/saving_a_cat_causal/saving_a_cat_causal_2.png"" class=""exp-image"">
                    <div class=""question-area"">
                        <p style=""font-size: 20px; font-weight: bold; margin: 0;"">Is there a person in this image?</p>
                    </div>
                </div>","1","main_experiment_trial","2","saving_a_cat_causal","causal_sequence","chronological","","","","","","",""
"","","","","","html-keyboard-response","168","639046","0.0-168.0","F68059D809CF411A976512607F014387","019d0652-062e-7bc6-90ff-abf86577c6a8","019d0640-0a2d-7740-a972-9c73365b2dcb","","null","
                <div class=""stimulus-container"">
                    <img src=""images/causal_sequence/saving_a_cat_causal/saving_a_cat_causal_3.png"" class=""exp-image"">
                    <div class=""question-area""></div> 
                </div>","null","","","","","","","","","","","",""
"","","","","","html-button-response","169","640430","0.0-169.0","F68059D809CF411A976512607F014387","019d0652-062e-7bc6-90ff-abf86577c6a8","019d0640-0a2d-7740-a972-9c73365b2dcb","","1383","
                <div class=""stimulus-container"">
                    <img src=""images/causal_sequence/saving_a_cat_causal/saving_a_cat_causal_3.png"" class=""exp-image"">
                    <div class=""question-area"">
                        <p style=""font-size: 20px; font-weight: bold; margin: 0;"">Is there a person in this image?</p>
                    </div>
                </div>","1","main_experiment_trial","3","saving_a_cat_causal","causal_sequence","chronological","","","","","","",""
"","","","","","html-keyboard-response","170","645432","0.0-170.0","F68059D809CF411A976512607F014387","019d0652-062e-7bc6-90ff-abf86577c6a8","019d0640-0a2d-7740-a972-9c73365b2dcb","","null","
                <div class=""stimulus-container"">
                    <img src=""images/causal_sequence/saving_a_cat_causal/saving_a_cat_causal_4.png"" class=""exp-image"">
                    <div class=""question-area""></div> 
                </div>","null","","","","","","","","","","","",""
"","","","","","html-button-response","171","647055","0.0-171.0","F68059D809CF411A976512607F014387","019d0652-062e-7bc6-90ff-abf86577c6a8","019d0640-0a2d-7740-a972-9c73365b2dcb","","1621","
                <div class=""stimulus-container"">
                    <img src=""images/causal_sequence/saving_a_cat_causal/saving_a_cat_causal_4.png"" class=""exp-image"">
                    <div class=""question-area"">
                        <p style=""font-size: 20px; font-weight: bold; margin: 0;"">Is there a person in this image?</p>
                    </div>
                </div>","0","main_experiment_trial","4","saving_a_cat_causal","causal_sequence","chronological","","","","","","",""
"","","","","","html-keyboard-response","172","652059","0.0-172.0","F68059D809CF411A976512607F014387","019d0652-062e-7bc6-90ff-abf86577c6a8","019d0640-0a2d-7740-a972-9c73365b2dcb","","null","
                <div class=""stimulus-container"">
                    <img src=""images/causal_sequence/saving_a_cat_causal/saving_a_cat_causal_5.png"" class=""exp-image"">
                    <div class=""question-area""></div> 
                </div>","null","","","","","","","","","","","",""
"","","","","","html-button-response","173","653499","0.0-173.0","F68059D809CF411A976512607F014387","019d0652-062e-7bc6-90ff-abf86577c6a8","019d0640-0a2d-7740-a972-9c73365b2dcb","","1439","
                <div class=""stimulus-container"">
                    <img src=""images/causal_sequence/saving_a_cat_causal/saving_a_cat_causal_5.png"" class=""exp-image"">
                    <div class=""question-area"">
                        <p style=""font-size: 20px; font-weight: bold; margin: 0;"">Is there a person in this image?</p>
                    </div>
                </div>","0","main_experiment_trial","5","saving_a_cat_causal","causal_sequence","chronological","","","","","","",""
"","","","","","html-keyboard-response","174","658507","0.0-174.0","F68059D809CF411A976512607F014387","019d0652-062e-7bc6-90ff-abf86577c6a8","019d0640-0a2d-7740-a972-9c73365b2dcb","","null","
                <div class=""stimulus-container"">
                    <img src=""images/causal_sequence/saving_a_cat_causal/saving_a_cat_causal_6.png"" class=""exp-image"">
                    <div class=""question-area""></div> 
                </div>","null","","","","","","","","","","","",""
"","","","","","html-button-response","175","659562","0.0-175.0","F68059D809CF411A976512607F014387","019d0652-062e-7bc6-90ff-abf86577c6a8","019d0640-0a2d-7740-a972-9c73365b2dcb","","1054","
                <div class=""stimulus-container"">
                    <img src=""images/causal_sequence/saving_a_cat_causal/saving_a_cat_causal_6.png"" class=""exp-image"">
