"success","timeout","failed_images","failed_audio","failed_video","trial_type","trial_index","time_elapsed","internal_node_id","subject_id","study_id","session_id","view_history","rt","stimulus","response","task","image_index","folder","sequence_type","presentation_order","valuable_image_index","reward_type","target_X","l_dist","r_dist","chosen_image_index","selected_after_X","correct_choice"
"false","false","[]","[]","[]","preload","0","58847","0.0-0.0","5300013039424CEEBA19011179000E2E","019d6656-35c8-7389-9aa4-833b1000de46","019d6630-2071-75cb-8026-6699844a2719","","","","","","","","","","","","","","","","",""
"","","","","","instructions","1","82485","0.0-1.0","5300013039424CEEBA19011179000E2E","019d6656-35c8-7389-9aa4-833b1000de46","019d6630-2071-75cb-8026-6699844a2719","[{""page_index"":0,""viewing_time"":23638}]","23638","","","","","","","","","","","","","","",""
"","","","","","instructions","2","145014","0.0-2.0","5300013039424CEEBA19011179000E2E","019d6656-35c8-7389-9aa4-833b1000de46","019d6630-2071-75cb-8026-6699844a2719","[{""page_index"":0,""viewing_time"":62529}]","62529","","","","","","","","","","","","","","",""
"true","","","","","fullscreen","3","152491","0.0-3.0","5300013039424CEEBA19011179000E2E","019d6656-35c8-7389-9aa4-833b1000de46","019d6630-2071-75cb-8026-6699844a2719","","6472","","","","","","","","","","","","","","",""
"","","","","","instructions","4","177915","0.0-4.0","5300013039424CEEBA19011179000E2E","019d6656-35c8-7389-9aa4-833b1000de46","019d6630-2071-75cb-8026-6699844a2719","[{""page_index"":0,""viewing_time"":25424}]","25424","","","","","","","","","","","","","","",""
"","","","","","instructions","5","212488","0.0-5.0","5300013039424CEEBA19011179000E2E","019d6656-35c8-7389-9aa4-833b1000de46","019d6630-2071-75cb-8026-6699844a2719","[{""page_index"":0,""viewing_time"":34572}]","34573","","","","","","","","","","","","","","",""
"","","","","","html-keyboard-response","6","216493","0.0-6.0","5300013039424CEEBA19011179000E2E","019d6656-35c8-7389-9aa4-833b1000de46","019d6630-2071-75cb-8026-6699844a2719","","null","
                <div class=""stimulus-container"">
                    <img src=""images/instructions/movie_1.png"" class=""exp-image"">
                    <div class=""question-area""></div> 
                </div>","null","","","","","","","","","","","","",""
"","","","","","html-button-response","7","219498","0.0-7.0","5300013039424CEEBA19011179000E2E","019d6656-35c8-7389-9aa4-833b1000de46","019d6630-2071-75cb-8026-6699844a2719","","null","
                <div class=""stimulus-container"">
                    <img src=""images/instructions/movie_1.png"" class=""exp-image"">
                    <div class=""question-area"">
                        <p style=""font-size: 20px; font-weight: bold; margin: 0;"">Was there a person in this image?</p>
                    </div>
                </div>","null","example_question","1","","","","","","","","","","",""
"","","","","","html-keyboard-response","8","223505","0.0-8.0","5300013039424CEEBA19011179000E2E","019d6656-35c8-7389-9aa4-833b1000de46","019d6630-2071-75cb-8026-6699844a2719","","null","
                <div class=""stimulus-container"">
                    <img src=""images/instructions/movie_2.png"" class=""exp-image"">
                    <div class=""question-area""></div> 
                </div>","null","","","","","","","","","","","","",""
"","","","","","html-button-response","9","224834","0.0-9.0","5300013039424CEEBA19011179000E2E","019d6656-35c8-7389-9aa4-833b1000de46","019d6630-2071-75cb-8026-6699844a2719","","1328","
                <div class=""stimulus-container"">
                    <img src=""images/instructions/movie_2.png"" class=""exp-image"">
                    <div class=""question-area"">
                        <p style=""font-size: 20px; font-weight: bold; margin: 0;"">Was there a person in this image?</p>
                    </div>
                </div>","1","example_question","2","","","","","","","","","","",""
"","","","","","html-keyboard-response","10","228838","0.0-10.0","5300013039424CEEBA19011179000E2E","019d6656-35c8-7389-9aa4-833b1000de46","019d6630-2071-75cb-8026-6699844a2719","","null","
                <div class=""stimulus-container"">
                    <img src=""images/instructions/movie_3.png"" class=""exp-image"">
                    <div class=""question-area""></div> 
                </div>","null","","","","","","","","","","","","",""
"","","","","","html-button-response","11","229835","0.0-11.0","5300013039424CEEBA19011179000E2E","019d6656-35c8-7389-9aa4-833b1000de46","019d6630-2071-75cb-8026-6699844a2719","","996","
                <div class=""stimulus-container"">
                    <img src=""images/instructions/movie_3.png"" class=""exp-image"">
                    <div class=""question-area"">
                        <p style=""font-size: 20px; font-weight: bold; margin: 0;"">Was there a person in this image?</p>
                    </div>
                </div>","0","example_question","3","","","","","","","","","","",""
"","","","","","html-keyboard-response","12","233837","0.0-12.0","5300013039424CEEBA19011179000E2E","019d6656-35c8-7389-9aa4-833b1000de46","019d6630-2071-75cb-8026-6699844a2719","","null","
                <div class=""stimulus-container"">
                    <img src=""images/instructions/movie_4.png"" class=""exp-image"">
                    <div class=""question-area""></div> 
                </div>","null","","","","","","","","","","","","",""
"","","","","","html-button-response","13","234787","0.0-13.0","5300013039424CEEBA19011179000E2E","019d6656-35c8-7389-9aa4-833b1000de46","019d6630-2071-75cb-8026-6699844a2719","","950","
                <div class=""stimulus-container"">
                    <img src=""images/instructions/movie_4.png"" class=""exp-image"">
                    <div class=""question-area"">
                        <p style=""font-size: 20px; font-weight: bold; margin: 0;"">Was there a person in this image?</p>
                    </div>
                </div>","0","example_question","4","","","","","","","","","","",""
"","","","","","instructions","14","237347","0.0-14.0","5300013039424CEEBA19011179000E2E","019d6656-35c8-7389-9aa4-833b1000de46","019d6630-2071-75cb-8026-6699844a2719","[{""page_index"":0,""viewing_time"":2560}]","2560","","","","","","","","","","","","","","",""
"","","","","","instructions","15","251765","0.0-15.0","5300013039424CEEBA19011179000E2E","019d6656-35c8-7389-9aa4-833b1000de46","019d6630-2071-75cb-8026-6699844a2719","[{""page_index"":0,""viewing_time"":14418}]","14418","","","","","","","","","","","","","","",""
"","","","","","html-keyboard-response","16","256771","0.0-16.0","5300013039424CEEBA19011179000E2E","019d6656-35c8-7389-9aa4-833b1000de46","019d6630-2071-75cb-8026-6699844a2719","","null","<div style=""background-color: white; width: 100vw; height: 100vh;""></div>","null","","","","","","","","","","","","",""
"","","","","","html-keyboard-response","17","261772","0.0-17.0","5300013039424CEEBA19011179000E2E","019d6656-35c8-7389-9aa4-833b1000de46","019d6630-2071-75cb-8026-6699844a2719","","null","
                <div class=""stimulus-container"">
                    <img src=""images/semantic_sequence/visiting_cities_semantic/visiting_cities_semantic_1.png"" class=""exp-image"">
                    <div class=""question-area""></div> 
                </div>","null","","","","","","","","","","","","",""
"","","","","","html-button-response","18","263447","0.0-18.0","5300013039424CEEBA19011179000E2E","019d6656-35c8-7389-9aa4-833b1000de46","019d6630-2071-75cb-8026-6699844a2719","","1674","
                <div class=""stimulus-container"">
                    <img src=""images/semantic_sequence/visiting_cities_semantic/visiting_cities_semantic_1.png"" class=""exp-image"">
                    <div class=""question-area"">
                        <p style=""font-size: 20px; font-weight: bold; margin: 0;"">Is there a person in this image?</p>
                    </div>
                </div>","0","main_experiment_trial","1","visiting_cities_semantic","semantic_sequence","chronological","","","","","","","",""
"","","","","","html-keyboard-response","19","268462","0.0-19.0","5300013039424CEEBA19011179000E2E","019d6656-35c8-7389-9aa4-833b1000de46","019d6630-2071-75cb-8026-6699844a2719","","null","
                <div class=""stimulus-container"">
                    <img src=""images/semantic_sequence/visiting_cities_semantic/visiting_cities_semantic_2.png"" class=""exp-image"">
                    <div class=""question-area""></div> 
                </div>","null","","","","","","","","","","","","",""
"","","","","","html-button-response","20","269584","0.0-20.0","5300013039424CEEBA19011179000E2E","019d6656-35c8-7389-9aa4-833b1000de46","019d6630-2071-75cb-8026-6699844a2719","","1121","
                <div class=""stimulus-container"">
                    <img src=""images/semantic_sequence/visiting_cities_semantic/visiting_cities_semantic_2.png"" class=""exp-image"">
                    <div class=""question-area"">
                        <p style=""font-size: 20px; font-weight: bold; margin: 0;"">Is there a person in this image?</p>
                    </div>
                </div>","1","main_experiment_trial","2","visiting_cities_semantic","semantic_sequence","chronological","","","","","","","",""
"","","","","","html-keyboard-response","21","274587","0.0-21.0","5300013039424CEEBA19011179000E2E","019d6656-35c8-7389-9aa4-833b1000de46","019d6630-2071-75cb-8026-6699844a2719","","null","
                <div class=""stimulus-container"">
                    <img src=""images/semantic_sequence/visiting_cities_semantic/visiting_cities_semantic_3.png"" class=""exp-image"">
                    <div class=""question-area""></div> 
                </div>","null","","","","","","","","","","","","",""
"","","","","","html-button-response","22","275505","0.0-22.0","5300013039424CEEBA19011179000E2E","019d6656-35c8-7389-9aa4-833b1000de46","019d6630-2071-75cb-8026-6699844a2719","","918","
                <div class=""stimulus-container"">
                    <img src=""images/semantic_sequence/visiting_cities_semantic/visiting_cities_semantic_3.png"" class=""exp-image"">
                    <div class=""question-area"">
                        <p style=""font-size: 20px; font-weight: bold; margin: 0;"">Is there a person in this image?</p>
                    </div>
                </div>","1","main_experiment_trial","3","visiting_cities_semantic","semantic_sequence","chronological","","","","","","","",""
"","","","","","html-keyboard-response","23","280517","0.0-23.0","5300013039424CEEBA19011179000E2E","019d6656-35c8-7389-9aa4-833b1000de46","019d6630-2071-75cb-8026-6699844a2719","","null","
                <div class=""stimulus-container"">
                    <img src=""images/semantic_sequence/visiting_cities_semantic/visiting_cities_semantic_4.png"" class=""exp-image"">
                    <div class=""question-area""></div> 
                </div>","null","","","","","","","","","","","","",""
"","","","","","html-button-response","24","281130","0.0-24.0","5300013039424CEEBA19011179000E2E","019d6656-35c8-7389-9aa4-833b1000de46","019d6630-2071-75cb-8026-6699844a2719","","612","
                <div class=""stimulus-container"">
                    <img src=""images/semantic_sequence/visiting_cities_semantic/visiting_cities_semantic_4.png"" class=""exp-image"">
                    <div class=""question-area"">
                        <p style=""font-size: 20px; font-weight: bold; margin: 0;"">Is there a person in this image?</p>
                    </div>
                </div>","1","main_experiment_trial","4","visiting_cities_semantic","semantic_sequence","chronological","","","","","","","",""
"","","","","","html-keyboard-response","25","286131","0.0-25.0","5300013039424CEEBA19011179000E2E","019d6656-35c8-7389-9aa4-833b1000de46","019d6630-2071-75cb-8026-6699844a2719","","null","
                <div class=""stimulus-container"">
                    <img src=""images/semantic_sequence/visiting_cities_semantic/visiting_cities_semantic_5.png"" class=""exp-image"">
                    <div class=""question-area""></div> 
                </div>","null","","","","","","","","","","","","",""
"","","","","","html-button-response","26","286650","0.0-26.0","5300013039424CEEBA19011179000E2E","019d6656-35c8-7389-9aa4-833b1000de46","019d6630-2071-75cb-8026-6699844a2719","","519","
                <div class=""stimulus-container"">
                    <img src=""images/semantic_sequence/visiting_cities_semantic/visiting_cities_semantic_5.png"" class=""exp-image"">
                    <div class=""question-area"">
                        <p style=""font-size: 20px; font-weight: bold; margin: 0;"">Is there a person in this image?</p>
                    </div>
                </div>","1","main_experiment_trial","5","visiting_cities_semantic","semantic_sequence","chronological","","","","","","","",""
"","","","","","html-keyboard-response","27","291665","0.0-27.0","5300013039424CEEBA19011179000E2E","019d6656-35c8-7389-9aa4-833b1000de46","019d6630-2071-75cb-8026-6699844a2719","","null","
                <div class=""stimulus-container"">
                    <img src=""images/semantic_sequence/visiting_cities_semantic/visiting_cities_semantic_6.png"" class=""exp-image"">
                    <div class=""question-area""></div> 
                </div>","null","","","","","","","","","","","","",""
"","","","","","html-button-response","28","292308","0.0-28.0","5300013039424CEEBA19011179000E2E","019d6656-35c8-7389-9aa4-833b1000de46","019d6630-2071-75cb-8026-6699844a2719","","642","
                <div class=""stimulus-container"">
                    <img src=""images/semantic_sequence/visiting_cities_semantic/visiting_cities_semantic_6.png"" class=""exp-image"">
                    <div class=""question-area"">
                        <p style=""font-size: 20px; font-weight: bold; margin: 0;"">Is there a person in this image?</p>
                    </div>
                </div>","1","main_experiment_trial","6","visiting_cities_semantic","semantic_sequence","chronological","","","","","","","",""
"","","","","","html-keyboard-response","29","297322","0.0-29.0","5300013039424CEEBA19011179000E2E","019d6656-35c8-7389-9aa4-833b1000de46","019d6630-2071-75cb-8026-6699844a2719","","null","
                <div class=""stimulus-container"">
                    <img src=""images/semantic_sequence/visiting_cities_semantic/visiting_cities_semantic_7.png"" class=""exp-image"">
                    <div class=""question-area""></div> 
                </div>","null","","","","","","","","","","","","",""
"","","","","","html-button-response","30","298891","0.0-30.0","5300013039424CEEBA19011179000E2E","019d6656-35c8-7389-9aa4-833b1000de46","019d6630-2071-75cb-8026-6699844a2719","","1569","
                <div class=""stimulus-container"">
                    <img src=""images/semantic_sequence/visiting_cities_semantic/visiting_cities_semantic_7.png"" class=""exp-image"">
                    <div class=""question-area"">
                        <p style=""font-size: 20px; font-weight: bold; margin: 0;"">Is there a person in this image?</p>
                    </div>
                </div>","0","main_experiment_trial","7","visiting_cities_semantic","semantic_sequence","chronological","","","","","","","",""
"","","","","","html-keyboard-response","31","303905","0.0-31.0","5300013039424CEEBA19011179000E2E","019d6656-35c8-7389-9aa4-833b1000de46","019d6630-2071-75cb-8026-6699844a2719","","null","
                <div class=""stimulus-container"">
                    <img src=""images/semantic_sequence/visiting_cities_semantic/visiting_cities_semantic_8.png"" class=""exp-image"">
                    <div class=""question-area""></div> 
                </div>","null","","","","","","","","","","","","",""
"","","","","","html-button-response","32","304574","0.0-32.0","5300013039424CEEBA19011179000E2E","019d6656-35c8-7389-9aa4-833b1000de46","019d6630-2071-75cb-8026-6699844a2719","","668","
                <div class=""stimulus-container"">
                    <img src=""images/semantic_sequence/visiting_cities_semantic/visiting_cities_semantic_8.png"" class=""exp-image"">
                    <div class=""question-area"">
                        <p style=""font-size: 20px; font-weight: bold; margin: 0;"">Is there a person in this image?</p>
                    </div>
                </div>","1","main_experiment_trial","8","visiting_cities_semantic","semantic_sequence","chronological","","","","","","","",""
"","","","","","html-keyboard-response","33","309585","0.0-33.0","5300013039424CEEBA19011179000E2E","019d6656-35c8-7389-9aa4-833b1000de46","019d6630-2071-75cb-8026-6699844a2719","","null","
                <div class=""stimulus-container"">
                    <img src=""images/semantic_sequence/visiting_cities_semantic/visiting_cities_semantic_9.png"" class=""exp-image"">
                    <div class=""question-area""></div> 
                </div>","null","","","","","","","","","","","","",""
"","","","","","html-button-response","34","310254","0.0-34.0","5300013039424CEEBA19011179000E2E","019d6656-35c8-7389-9aa4-833b1000de46","019d6630-2071-75cb-8026-6699844a2719","","668","
                <div class=""stimulus-container"">
                    <img src=""images/semantic_sequence/visiting_cities_semantic/visiting_cities_semantic_9.png"" class=""exp-image"">
                    <div class=""question-area"">
                        <p style=""font-size: 20px; font-weight: bold; margin: 0;"">Is there a person in this image?</p>
                    </div>
                </div>","1","main_experiment_trial","9","visiting_cities_semantic","semantic_sequence","chronological","","","","","","","",""
"","","","","","html-keyboard-response","35","315255","0.0-35.0","5300013039424CEEBA19011179000E2E","019d6656-35c8-7389-9aa4-833b1000de46","019d6630-2071-75cb-8026-6699844a2719","","null","
                <div class=""stimulus-container"">
                    <img src=""images/semantic_sequence/visiting_cities_semantic/visiting_cities_semantic_ten.png"" class=""exp-image"">
                    <div class=""question-area""></div> 
                </div>","null","","","","","","","","","","","","",""
"","","","","","html-button-response","36","316246","0.0-36.0","5300013039424CEEBA19011179000E2E","019d6656-35c8-7389-9aa4-833b1000de46","019d6630-2071-75cb-8026-6699844a2719","","991","
                <div class=""stimulus-container"">
                    <img src=""images/semantic_sequence/visiting_cities_semantic/visiting_cities_semantic_ten.png"" class=""exp-image"">
                    <div class=""question-area"">
                        <p style=""font-size: 20px; font-weight: bold; margin: 0;"">Is there a person in this image?</p>
                    </div>
                </div>","1","main_experiment_trial","ten","visiting_cities_semantic","semantic_sequence","chronological","","","","","","","",""
"","","","","","html-keyboard-response","37","321258","0.0-37.0","5300013039424CEEBA19011179000E2E","019d6656-35c8-7389-9aa4-833b1000de46","019d6630-2071-75cb-8026-6699844a2719","","null","<div style=""background-color: white; width: 100vw; height: 100vh;""></div>","null","","","","","","","","","","","","",""
"","","","","","html-keyboard-response","38","326260","0.0-38.0","5300013039424CEEBA19011179000E2E","019d6656-35c8-7389-9aa4-833b1000de46","019d6630-2071-75cb-8026-6699844a2719","","null","
                <div class=""stimulus-container"">
                    <img src=""images/causal_sequence/museum_causal/museum_causal_1.png"" class=""exp-image"">
                    <div class=""question-area""></div> 
                </div>","null","","","","","","","","","","","","",""
"","","","","","html-button-response","39","327025","0.0-39.0","5300013039424CEEBA19011179000E2E","019d6656-35c8-7389-9aa4-833b1000de46","019d6630-2071-75cb-8026-6699844a2719","","764","
                <div class=""stimulus-container"">
                    <img src=""images/causal_sequence/museum_causal/museum_causal_1.png"" class=""exp-image"">
                    <div class=""question-area"">
                        <p style=""font-size: 20px; font-weight: bold; margin: 0;"">Is there a person in this image?</p>
                    </div>
                </div>","0","main_experiment_trial","1","museum_causal","causal_sequence","chronological","","","","","","","",""
"","","","","","html-keyboard-response","40","332029","0.0-40.0","5300013039424CEEBA19011179000E2E","019d6656-35c8-7389-9aa4-833b1000de46","019d6630-2071-75cb-8026-6699844a2719","","null","
                <div class=""stimulus-container"">
                    <img src=""images/causal_sequence/museum_causal/museum_causal_2.png"" class=""exp-image"">
                    <div class=""question-area""></div> 
                </div>","null","","","","","","","","","","","","",""
"","","","","","html-button-response","41","332569","0.0-41.0","5300013039424CEEBA19011179000E2E","019d6656-35c8-7389-9aa4-833b1000de46","019d6630-2071-75cb-8026-6699844a2719","","539","
                <div class=""stimulus-container"">
                    <img src=""images/causal_sequence/museum_causal/museum_causal_2.png"" class=""exp-image"">
                    <div class=""question-area"">
                        <p style=""font-size: 20px; font-weight: bold; margin: 0;"">Is there a person in this image?</p>
                    </div>
                </div>","0","main_experiment_trial","2","museum_causal","causal_sequence","chronological","","","","","","","",""
"","","","","","html-keyboard-response","42","337582","0.0-42.0","5300013039424CEEBA19011179000E2E","019d6656-35c8-7389-9aa4-833b1000de46","019d6630-2071-75cb-8026-6699844a2719","","null","
                <div class=""stimulus-container"">
                    <img src=""images/causal_sequence/museum_causal/museum_causal_3.png"" class=""exp-image"">
                    <div class=""question-area""></div> 
                </div>","null","","","","","","","","","","","","",""
"","","","","","html-button-response","43","338377","0.0-43.0","5300013039424CEEBA19011179000E2E","019d6656-35c8-7389-9aa4-833b1000de46","019d6630-2071-75cb-8026-6699844a2719","","794","
                <div class=""stimulus-container"">
                    <img src=""images/causal_sequence/museum_causal/museum_causal_3.png"" class=""exp-image"">
                    <div class=""question-area"">
                        <p style=""font-size: 20px; font-weight: bold; margin: 0;"">Is there a person in this image?</p>
                    </div>
                </div>","0","main_experiment_trial","3","museum_causal","causal_sequence","chronological","","","","","","","",""
"","","","","","html-keyboard-response","44","343384","0.0-44.0","5300013039424CEEBA19011179000E2E","019d6656-35c8-7389-9aa4-833b1000de46","019d6630-2071-75cb-8026-6699844a2719","","null","
                <div class=""stimulus-container"">
                    <img src=""images/causal_sequence/museum_causal/museum_causal_4.png"" class=""exp-image"">
                    <div class=""question-area""></div> 
                </div>","null","","","","","","","","","","","","",""
"","","","","","html-button-response","45","344155","0.0-45.0","5300013039424CEEBA19011179000E2E","019d6656-35c8-7389-9aa4-833b1000de46","019d6630-2071-75cb-8026-6699844a2719","","770","
                <div class=""stimulus-container"">
                    <img src=""images/causal_sequence/museum_causal/museum_causal_4.png"" class=""exp-image"">
                    <div class=""question-area"">
                        <p style=""font-size: 20px; font-weight: bold; margin: 0;"">Is there a person in this image?</p>
                    </div>
                </div>","1","main_experiment_trial","4","museum_causal","causal_sequence","chronological","","","","","","","",""
"","","","","","html-keyboard-response","46","349158","0.0-46.0","5300013039424CEEBA19011179000E2E","019d6656-35c8-7389-9aa4-833b1000de46","019d6630-2071-75cb-8026-6699844a2719","","null","
                <div class=""stimulus-container"">
                    <img src=""images/causal_sequence/museum_causal/museum_causal_5.png"" class=""exp-image"">
                    <div class=""question-area""></div> 
                </div>","null","","","","","","","","","","","","",""
"","","","","","html-button-response","47","349604","0.0-47.0","5300013039424CEEBA19011179000E2E","019d6656-35c8-7389-9aa4-833b1000de46","019d6630-2071-75cb-8026-6699844a2719","","445","
                <div class=""stimulus-container"">
                    <img src=""images/causal_sequence/museum_causal/museum_causal_5.png"" class=""exp-image"">
                    <div class=""question-area"">
                        <p style=""font-size: 20px; font-weight: bold; margin: 0;"">Is there a person in this image?</p>
                    </div>
                </div>","0","main_experiment_trial","5","museum_causal","causal_sequence","chronological","","","","","","","",""
"","","","","","html-keyboard-response","48","354612","0.0-48.0","5300013039424CEEBA19011179000E2E","019d6656-35c8-7389-9aa4-833b1000de46","019d6630-2071-75cb-8026-6699844a2719","","null","
                <div class=""stimulus-container"">
                    <img src=""images/causal_sequence/museum_causal/museum_causal_6.png"" class=""exp-image"">
                    <div class=""question-area""></div> 
                </div>","null","","","","","","","","","","","","",""
"","","","","","html-button-response","49","355044","0.0-49.0","5300013039424CEEBA19011179000E2E","019d6656-35c8-7389-9aa4-833b1000de46","019d6630-2071-75cb-8026-6699844a2719","","432","
                <div class=""stimulus-container"">
                    <img src=""images/causal_sequence/museum_causal/museum_causal_6.png"" class=""exp-image"">
                    <div class=""question-area"">
                        <p style=""font-size: 20px; font-weight: bold; margin: 0;"">Is there a person in this image?</p>
                    </div>
                </div>","0","main_experiment_trial","6","museum_causal","causal_sequence","chronological","","","","","","","",""
"","","","","","html-keyboard-response","50","360045","0.0-50.0","5300013039424CEEBA19011179000E2E","019d6656-35c8-7389-9aa4-833b1000de46","019d6630-2071-75cb-8026-6699844a2719","","null","
                <div class=""stimulus-container"">
                    <img src=""images/causal_sequence/museum_causal/museum_causal_7.png"" class=""exp-image"">
                    <div class=""question-area""></div> 
                </div>","null","","","","","","","","","","","","",""
"","","","","","html-button-response","51","360541","0.0-51.0","5300013039424CEEBA19011179000E2E","019d6656-35c8-7389-9aa4-833b1000de46","019d6630-2071-75cb-8026-6699844a2719","","496","
                <div class=""stimulus-container"">
                    <img src=""images/causal_sequence/museum_causal/museum_causal_7.png"" class=""exp-image"">
                    <div class=""question-area"">
                        <p style=""font-size: 20px; font-weight: bold; margin: 0;"">Is there a person in this image?</p>
                    </div>
                </div>","1","main_experiment_trial","7","museum_causal","causal_sequence","chronological","","","","","","","",""
"","","","","","html-keyboard-response","52","365547","0.0-52.0","5300013039424CEEBA19011179000E2E","019d6656-35c8-7389-9aa4-833b1000de46","019d6630-2071-75cb-8026-6699844a2719","","null","
                <div class=""stimulus-container"">
                    <img src=""images/causal_sequence/museum_causal/museum_causal_8.png"" class=""exp-image"">
                    <div class=""question-area""></div> 
                </div>","null","","","","","","","","","","","","",""
"","","","","","html-button-response","53","365990","0.0-53.0","5300013039424CEEBA19011179000E2E","019d6656-35c8-7389-9aa4-833b1000de46","019d6630-2071-75cb-8026-6699844a2719","","443","
                <div class=""stimulus-container"">
                    <img src=""images/causal_sequence/museum_causal/museum_causal_8.png"" class=""exp-image"">
                    <div class=""question-area"">
                        <p style=""font-size: 20px; font-weight: bold; margin: 0;"">Is there a person in this image?</p>
                    </div>
                </div>","0","main_experiment_trial","8","museum_causal","causal_sequence","chronological","","","","","","","",""
"","","","","","html-keyboard-response","54","370991","0.0-54.0","5300013039424CEEBA19011179000E2E","019d6656-35c8-7389-9aa4-833b1000de46","019d6630-2071-75cb-8026-6699844a2719","","null","
                <div class=""stimulus-container"">
                    <img src=""images/causal_sequence/museum_causal/museum_causal_9.png"" class=""exp-image"">
                    <div class=""question-area""></div> 
                </div>","null","","","","","","","","","","","","",""
"","","","","","html-button-response","55","371550","0.0-55.0","5300013039424CEEBA19011179000E2E","019d6656-35c8-7389-9aa4-833b1000de46","019d6630-2071-75cb-8026-6699844a2719","","558","
                <div class=""stimulus-container"">
                    <img src=""images/causal_sequence/museum_causal/museum_causal_9.png"" class=""exp-image"">
                    <div class=""question-area"">
                        <p style=""font-size: 20px; font-weight: bold; margin: 0;"">Is there a person in this image?</p>
                    </div>
                </div>","1","main_experiment_trial","9","museum_causal","causal_sequence","chronological","","","","","","","",""
"","","","","","html-keyboard-response","56","376558","0.0-56.0","5300013039424CEEBA19011179000E2E","019d6656-35c8-7389-9aa4-833b1000de46","019d6630-2071-75cb-8026-6699844a2719","","null","
                <div class=""stimulus-container"">
                    <img src=""images/causal_sequence/museum_causal/museum_causal_ten.png"" class=""exp-image"">
                    <div class=""question-area""></div> 
                </div>","null","","","","","","","","","","","","",""
"","","","","","html-button-response","57","377374","0.0-57.0","5300013039424CEEBA19011179000E2E","019d6656-35c8-7389-9aa4-833b1000de46","019d6630-2071-75cb-8026-6699844a2719","","816","
                <div class=""stimulus-container"">
                    <img src=""images/causal_sequence/museum_causal/museum_causal_ten.png"" class=""exp-image"">
                    <div class=""question-area"">
                        <p style=""font-size: 20px; font-weight: bold; margin: 0;"">Is there a person in this image?</p>
                    </div>
                </div>","0","main_experiment_trial","ten","museum_causal","causal_sequence","chronological","","","","","","","",""
"","","","","","html-keyboard-response","58","382377","0.0-58.0","5300013039424CEEBA19011179000E2E","019d6656-35c8-7389-9aa4-833b1000de46","019d6630-2071-75cb-8026-6699844a2719","","null","<div style=""background-color: white; width: 100vw; height: 100vh;""></div>","null","","","","","","","","","","","","",""
"","","","","","html-keyboard-response","59","387390","0.0-59.0","5300013039424CEEBA19011179000E2E","019d6656-35c8-7389-9aa4-833b1000de46","019d6630-2071-75cb-8026-6699844a2719","","null","
                <div class=""stimulus-container"">
                    <img src=""images/schematic_sequence/restaurant_scheme/restaurant_scheme_1.png"" class=""exp-image"">
                    <div class=""question-area""></div> 
                </div>","null","","","","","","","","","","","","",""
"","","","","","html-button-response","60","388521","0.0-60.0","5300013039424CEEBA19011179000E2E","019d6656-35c8-7389-9aa4-833b1000de46","019d6630-2071-75cb-8026-6699844a2719","","1130","
                <div class=""stimulus-container"">
                    <img src=""images/schematic_sequence/restaurant_scheme/restaurant_scheme_1.png"" class=""exp-image"">
                    <div class=""question-area"">
                        <p style=""font-size: 20px; font-weight: bold; margin: 0;"">Is there a person in this image?</p>
                    </div>
                </div>","0","main_experiment_trial","1","restaurant_scheme","schematic_sequence","chronological","","","","","","","",""
"","","","","","html-keyboard-response","61","393531","0.0-61.0","5300013039424CEEBA19011179000E2E","019d6656-35c8-7389-9aa4-833b1000de46","019d6630-2071-75cb-8026-6699844a2719","","null","
                <div class=""stimulus-container"">
                    <img src=""images/schematic_sequence/restaurant_scheme/restaurant_scheme_2.png"" class=""exp-image"">
                    <div class=""question-area""></div> 
                </div>","null","","","","","","","","","","","","",""
"","","","","","html-button-response","62","395425","0.0-62.0","5300013039424CEEBA19011179000E2E","019d6656-35c8-7389-9aa4-833b1000de46","019d6630-2071-75cb-8026-6699844a2719","","1894","
                <div class=""stimulus-container"">
                    <img src=""images/schematic_sequence/restaurant_scheme/restaurant_scheme_2.png"" class=""exp-image"">
                    <div class=""question-area"">
                        <p style=""font-size: 20px; font-weight: bold; margin: 0;"">Is there a person in this image?</p>
                    </div>
                </div>","1","main_experiment_trial","2","restaurant_scheme","schematic_sequence","chronological","","","","","","","",""
"","","","","","html-keyboard-response","63","400434","0.0-63.0","5300013039424CEEBA19011179000E2E","019d6656-35c8-7389-9aa4-833b1000de46","019d6630-2071-75cb-8026-6699844a2719","","null","
                <div class=""stimulus-container"">
                    <img src=""images/schematic_sequence/restaurant_scheme/restaurant_scheme_3.png"" class=""exp-image"">
                    <div class=""question-area""></div> 
                </div>","null","","","","","","","","","","","","",""
"","","","","","html-button-response","64","401370","0.0-64.0","5300013039424CEEBA19011179000E2E","019d6656-35c8-7389-9aa4-833b1000de46","019d6630-2071-75cb-8026-6699844a2719","","936","
                <div class=""stimulus-container"">
                    <img src=""images/schematic_sequence/restaurant_scheme/restaurant_scheme_3.png"" class=""exp-image"">
                    <div class=""question-area"">
                        <p style=""font-size: 20px; font-weight: bold; margin: 0;"">Is there a person in this image?</p>
                    </div>
                </div>","1","main_experiment_trial","3","restaurant_scheme","schematic_sequence","chronological","","","","","","","",""
"","","","","","html-keyboard-response","65","406375","0.0-65.0","5300013039424CEEBA19011179000E2E","019d6656-35c8-7389-9aa4-833b1000de46","019d6630-2071-75cb-8026-6699844a2719","","null","
                <div class=""stimulus-container"">
                    <img src=""images/schematic_sequence/restaurant_scheme/restaurant_scheme_4.png"" class=""exp-image"">
                    <div class=""question-area""></div> 
                </div>","null","","","","","","","","","","","","",""
"","","","","","html-button-response","66","407003","0.0-66.0","5300013039424CEEBA19011179000E2E","019d6656-35c8-7389-9aa4-833b1000de46","019d6630-2071-75cb-8026-6699844a2719","","628","
                <div class=""stimulus-container"">
                    <img src=""images/schematic_sequence/restaurant_scheme/restaurant_scheme_4.png"" class=""exp-image"">
                    <div class=""question-area"">
                        <p style=""font-size: 20px; font-weight: bold; margin: 0;"">Is there a person in this image?</p>
                    </div>
                </div>","0","main_experiment_trial","4","restaurant_scheme","schematic_sequence","chronological","","","","","","","",""
"","","","","","html-keyboard-response","67","412016","0.0-67.0","5300013039424CEEBA19011179000E2E","019d6656-35c8-7389-9aa4-833b1000de46","019d6630-2071-75cb-8026-6699844a2719","","null","
                <div class=""stimulus-container"">
                    <img src=""images/schematic_sequence/restaurant_scheme/restaurant_scheme_5.png"" class=""exp-image"">
                    <div class=""question-area""></div> 
                </div>","null","","","","","","","","","","","","",""
"","","","","","html-button-response","68","412572","0.0-68.0","5300013039424CEEBA19011179000E2E","019d6656-35c8-7389-9aa4-833b1000de46","019d6630-2071-75cb-8026-6699844a2719","","555","
                <div class=""stimulus-container"">
                    <img src=""images/schematic_sequence/restaurant_scheme/restaurant_scheme_5.png"" class=""exp-image"">
                    <div class=""question-area"">
                        <p style=""font-size: 20px; font-weight: bold; margin: 0;"">Is there a person in this image?</p>
                    </div>
                </div>","0","main_experiment_trial","5","restaurant_scheme","schematic_sequence","chronological","","","","","","","",""
"","","","","","html-keyboard-response","69","417588","0.0-69.0","5300013039424CEEBA19011179000E2E","019d6656-35c8-7389-9aa4-833b1000de46","019d6630-2071-75cb-8026-6699844a2719","","null","
                <div class=""stimulus-container"">
                    <img src=""images/schematic_sequence/restaurant_scheme/restaurant_scheme_6.png"" class=""exp-image"">
                    <div class=""question-area""></div> 
                </div>","null","","","","","","","","","","","","",""
"","","","","","html-button-response","70","418429","0.0-70.0","5300013039424CEEBA19011179000E2E","019d6656-35c8-7389-9aa4-833b1000de46","019d6630-2071-75cb-8026-6699844a2719","","840","
                <div class=""stimulus-container"">
                    <img src=""images/schematic_sequence/restaurant_scheme/restaurant_scheme_6.png"" class=""exp-image"">
                    <div class=""question-area"">
                        <p style=""font-size: 20px; font-weight: bold; margin: 0;"">Is there a person in this image?</p>
                    </div>
                </div>","1","main_experiment_trial","6","restaurant_scheme","schematic_sequence","chronological","","","","","","","",""
"","","","","","html-keyboard-response","71","423442","0.0-71.0","5300013039424CEEBA19011179000E2E","019d6656-35c8-7389-9aa4-833b1000de46","019d6630-2071-75cb-8026-6699844a2719","","null","
                <div class=""stimulus-container"">
                    <img src=""images/schematic_sequence/restaurant_scheme/restaurant_scheme_7.png"" class=""exp-image"">
                    <div class=""question-area""></div> 
                </div>","null","","","","","","","","","","","","",""
"","","","","","html-button-response","72","424838","0.0-72.0","5300013039424CEEBA19011179000E2E","019d6656-35c8-7389-9aa4-833b1000de46","019d6630-2071-75cb-8026-6699844a2719","","1395","
                <div class=""stimulus-container"">
                    <img src=""images/schematic_sequence/restaurant_scheme/restaurant_scheme_7.png"" class=""exp-image"">
                    <div class=""question-area"">
                        <p style=""font-size: 20px; font-weight: bold; margin: 0;"">Is there a person in this image?</p>
                    </div>
                </div>","1","main_experiment_trial","7","restaurant_scheme","schematic_sequence","chronological","","","","","","","",""
"","","","","","html-keyboard-response","73","429844","0.0-73.0","5300013039424CEEBA19011179000E2E","019d6656-35c8-7389-9aa4-833b1000de46","019d6630-2071-75cb-8026-6699844a2719","","null","
                <div class=""stimulus-container"">
                    <img src=""images/schematic_sequence/restaurant_scheme/restaurant_scheme_8.png"" class=""exp-image"">
                    <div class=""question-area""></div> 
                </div>","null","","","","","","","","","","","","",""
"","","","","","html-button-response","74","430270","0.0-74.0","5300013039424CEEBA19011179000E2E","019d6656-35c8-7389-9aa4-833b1000de46","019d6630-2071-75cb-8026-6699844a2719","","426","
                <div class=""stimulus-container"">
                    <img src=""images/schematic_sequence/restaurant_scheme/restaurant_scheme_8.png"" class=""exp-image"">
                    <div class=""question-area"">
                        <p style=""font-size: 20px; font-weight: bold; margin: 0;"">Is there a person in this image?</p>
                    </div>
                </div>","0","main_experiment_trial","8","restaurant_scheme","schematic_sequence","chronological","","","","","","","",""
"","","","","","html-keyboard-response","75","435284","0.0-75.0","5300013039424CEEBA19011179000E2E","019d6656-35c8-7389-9aa4-833b1000de46","019d6630-2071-75cb-8026-6699844a2719","","null","
                <div class=""stimulus-container"">
                    <img src=""images/schematic_sequence/restaurant_scheme/restaurant_scheme_9.png"" class=""exp-image"">
                    <div class=""question-area""></div> 
                </div>","null","","","","","","","","","","","","",""
"","","","","","html-button-response","76","435911","0.0-76.0","5300013039424CEEBA19011179000E2E","019d6656-35c8-7389-9aa4-833b1000de46","019d6630-2071-75cb-8026-6699844a2719","","626","
                <div class=""stimulus-container"">
                    <img src=""images/schematic_sequence/restaurant_scheme/restaurant_scheme_9.png"" class=""exp-image"">
                    <div class=""question-area"">
                        <p style=""font-size: 20px; font-weight: bold; margin: 0;"">Is there a person in this image?</p>
                    </div>
                </div>","0","main_experiment_trial","9","restaurant_scheme","schematic_sequence","chronological","","","","","","","",""
"","","","","","html-keyboard-response","77","440921","0.0-77.0","5300013039424CEEBA19011179000E2E","019d6656-35c8-7389-9aa4-833b1000de46","019d6630-2071-75cb-8026-6699844a2719","","null","
                <div class=""stimulus-container"">
                    <img src=""images/schematic_sequence/restaurant_scheme/restaurant_scheme_ten.png"" class=""exp-image"">
                    <div class=""question-area""></div> 
                </div>","null","","","","","","","","","","","","",""
"","","","","","html-button-response","78","441552","0.0-78.0","5300013039424CEEBA19011179000E2E","019d6656-35c8-7389-9aa4-833b1000de46","019d6630-2071-75cb-8026-6699844a2719","","630","
                <div class=""stimulus-container"">
                    <img src=""images/schematic_sequence/restaurant_scheme/restaurant_scheme_ten.png"" class=""exp-image"">
                    <div class=""question-area"">
                        <p style=""font-size: 20px; font-weight: bold; margin: 0;"">Is there a person in this image?</p>
                    </div>
                </div>","0","main_experiment_trial","ten","restaurant_scheme","schematic_sequence","chronological","","","","","","","",""
"","","","","","html-keyboard-response","79","446554","0.0-79.0","5300013039424CEEBA19011179000E2E","019d6656-35c8-7389-9aa4-833b1000de46","019d6630-2071-75cb-8026-6699844a2719","","null","<div style=""background-color: white; width: 100vw; height: 100vh;""></div>","null","","","","","","","","","","","","",""
"","","","","","html-keyboard-response","80","451563","0.0-80.0","5300013039424CEEBA19011179000E2E","019d6656-35c8-7389-9aa4-833b1000de46","019d6630-2071-75cb-8026-6699844a2719","","null","
                <div class=""stimulus-container"">
                    <img src=""images/schematic_sequence/hotel_scheme/hotel_scheme_1.png"" class=""exp-image"">
                    <div class=""question-area""></div> 
                </div>","null","","","","","","","","","","","","",""
"","","","","","html-button-response","81","452490","0.0-81.0","5300013039424CEEBA19011179000E2E","019d6656-35c8-7389-9aa4-833b1000de46","019d6630-2071-75cb-8026-6699844a2719","","927","
                <div class=""stimulus-container"">
                    <img src=""images/schematic_sequence/hotel_scheme/hotel_scheme_1.png"" class=""exp-image"">
                    <div class=""question-area"">
                        <p style=""font-size: 20px; font-weight: bold; margin: 0;"">Is there a person in this image?</p>
                    </div>
                </div>","1","main_experiment_trial","1","hotel_scheme","schematic_sequence","chronological","","","","","","","",""
"","","","","","html-keyboard-response","82","457501","0.0-82.0","5300013039424CEEBA19011179000E2E","019d6656-35c8-7389-9aa4-833b1000de46","019d6630-2071-75cb-8026-6699844a2719","","null","
                <div class=""stimulus-container"">
                    <img src=""images/schematic_sequence/hotel_scheme/hotel_scheme_2.png"" class=""exp-image"">
                    <div class=""question-area""></div> 
                </div>","null","","","","","","","","","","","","",""
"","","","","","html-button-response","83","458474","0.0-83.0","5300013039424CEEBA19011179000E2E","019d6656-35c8-7389-9aa4-833b1000de46","019d6630-2071-75cb-8026-6699844a2719","","973","
                <div class=""stimulus-container"">
                    <img src=""images/schematic_sequence/hotel_scheme/hotel_scheme_2.png"" class=""exp-image"">
                    <div class=""question-area"">
                        <p style=""font-size: 20px; font-weight: bold; margin: 0;"">Is there a person in this image?</p>
                    </div>
                </div>","0","main_experiment_trial","2","hotel_scheme","schematic_sequence","chronological","","","","","","","",""
"","","","","","html-keyboard-response","84","463477","0.0-84.0","5300013039424CEEBA19011179000E2E","019d6656-35c8-7389-9aa4-833b1000de46","019d6630-2071-75cb-8026-6699844a2719","","null","
                <div class=""stimulus-container"">
                    <img src=""images/schematic_sequence/hotel_scheme/hotel_scheme_3.png"" class=""exp-image"">
                    <div class=""question-area""></div> 
                </div>","null","","","","","","","","","","","","",""
"","","","","","html-button-response","85","464540","0.0-85.0","5300013039424CEEBA19011179000E2E","019d6656-35c8-7389-9aa4-833b1000de46","019d6630-2071-75cb-8026-6699844a2719","","1063","
                <div class=""stimulus-container"">
                    <img src=""images/schematic_sequence/hotel_scheme/hotel_scheme_3.png"" class=""exp-image"">
                    <div class=""question-area"">
                        <p style=""font-size: 20px; font-weight: bold; margin: 0;"">Is there a person in this image?</p>
                    </div>
                </div>","0","main_experiment_trial","3","hotel_scheme","schematic_sequence","chronological","","","","","","","",""
"","","","","","html-keyboard-response","86","469542","0.0-86.0","5300013039424CEEBA19011179000E2E","019d6656-35c8-7389-9aa4-833b1000de46","019d6630-2071-75cb-8026-6699844a2719","","null","
                <div class=""stimulus-container"">
                    <img src=""images/schematic_sequence/hotel_scheme/hotel_scheme_4.png"" class=""exp-image"">
                    <div class=""question-area""></div> 
                </div>","null","","","","","","","","","","","","",""
"","","","","","html-button-response","87","470060","0.0-87.0","5300013039424CEEBA19011179000E2E","019d6656-35c8-7389-9aa4-833b1000de46","019d6630-2071-75cb-8026-6699844a2719","","518","
                <div class=""stimulus-container"">
                    <img src=""images/schematic_sequence/hotel_scheme/hotel_scheme_4.png"" class=""exp-image"">
                    <div class=""question-area"">
                        <p style=""font-size: 20px; font-weight: bold; margin: 0;"">Is there a person in this image?</p>
                    </div>
                </div>","1","main_experiment_trial","4","hotel_scheme","schematic_sequence","chronological","","","","","","","",""
"","","","","","html-keyboard-response","88","475064","0.0-88.0","5300013039424CEEBA19011179000E2E","019d6656-35c8-7389-9aa4-833b1000de46","019d6630-2071-75cb-8026-6699844a2719","","null","
                <div class=""stimulus-container"">
                    <img src=""images/schematic_sequence/hotel_scheme/hotel_scheme_5.png"" class=""exp-image"">
                    <div class=""question-area""></div> 
                </div>","null","","","","","","","","","","","","",""
"","","","","","html-button-response","89","476349","0.0-89.0","5300013039424CEEBA19011179000E2E","019d6656-35c8-7389-9aa4-833b1000de46","019d6630-2071-75cb-8026-6699844a2719","","1284","
                <div class=""stimulus-container"">
                    <img src=""images/schematic_sequence/hotel_scheme/hotel_scheme_5.png"" class=""exp-image"">
                    <div class=""question-area"">
                        <p style=""font-size: 20px; font-weight: bold; margin: 0;"">Is there a person in this image?</p>
                    </div>
                </div>","0","main_experiment_trial","5","hotel_scheme","schematic_sequence","chronological","","","","","","","",""
"","","","","","html-keyboard-response","90","481353","0.0-90.0","5300013039424CEEBA19011179000E2E","019d6656-35c8-7389-9aa4-833b1000de46","019d6630-2071-75cb-8026-6699844a2719","","null","
                <div class=""stimulus-container"">
                    <img src=""images/schematic_sequence/hotel_scheme/hotel_scheme_6.png"" class=""exp-image"">
                    <div class=""question-area""></div> 
                </div>","null","","","","","","","","","","","","",""
"","","","","","html-button-response","91","482182","0.0-91.0","5300013039424CEEBA19011179000E2E","019d6656-35c8-7389-9aa4-833b1000de46","019d6630-2071-75cb-8026-6699844a2719","","829","
                <div class=""stimulus-container"">
                    <img src=""images/schematic_sequence/hotel_scheme/hotel_scheme_6.png"" class=""exp-image"">
                    <div class=""question-area"">
                        <p style=""font-size: 20px; font-weight: bold; margin: 0;"">Is there a person in this image?</p>
                    </div>
                </div>","0","main_experiment_trial","6","hotel_scheme","schematic_sequence","chronological","","","","","","","",""
"","","","","","html-keyboard-response","92","487198","0.0-92.0","5300013039424CEEBA19011179000E2E","019d6656-35c8-7389-9aa4-833b1000de46","019d6630-2071-75cb-8026-6699844a2719","","null","
                <div class=""stimulus-container"">
                    <img src=""images/schematic_sequence/hotel_scheme/hotel_scheme_7.png"" class=""exp-image"">
                    <div class=""question-area""></div> 
                </div>","null","","","","","","","","","","","","",""
"","","","","","html-button-response","93","487711","0.0-93.0","5300013039424CEEBA19011179000E2E","019d6656-35c8-7389-9aa4-833b1000de46","019d6630-2071-75cb-8026-6699844a2719","","512","
                <div class=""stimulus-container"">
                    <img src=""images/schematic_sequence/hotel_scheme/hotel_scheme_7.png"" class=""exp-image"">
                    <div class=""question-area"">
                        <p style=""font-size: 20px; font-weight: bold; margin: 0;"">Is there a person in this image?</p>
                    </div>
                </div>","0","main_experiment_trial","7","hotel_scheme","schematic_sequence","chronological","","","","","","","",""
"","","","","","html-keyboard-response","94","492721","0.0-94.0","5300013039424CEEBA19011179000E2E","019d6656-35c8-7389-9aa4-833b1000de46","019d6630-2071-75cb-8026-6699844a2719","","null","
                <div class=""stimulus-container"">
                    <img src=""images/schematic_sequence/hotel_scheme/hotel_scheme_8.png"" class=""exp-image"">
                    <div class=""question-area""></div> 
                </div>","null","","","","","","","","","","","","",""
"","","","","","html-button-response","95","493231","0.0-95.0","5300013039424CEEBA19011179000E2E","019d6656-35c8-7389-9aa4-833b1000de46","019d6630-2071-75cb-8026-6699844a2719","","509","
                <div class=""stimulus-container"">
                    <img src=""images/schematic_sequence/hotel_scheme/hotel_scheme_8.png"" class=""exp-image"">
                    <div class=""question-area"">
                        <p style=""font-size: 20px; font-weight: bold; margin: 0;"">Is there a person in this image?</p>
                    </div>
                </div>","0","main_experiment_trial","8","hotel_scheme","schematic_sequence","chronological","","","","","","","",""
"","","","","","html-keyboard-response","96","498246","0.0-96.0","5300013039424CEEBA19011179000E2E","019d6656-35c8-7389-9aa4-833b1000de46","019d6630-2071-75cb-8026-6699844a2719","","null","
                <div class=""stimulus-container"">
                    <img src=""images/schematic_sequence/hotel_scheme/hotel_scheme_9.png"" class=""exp-image"">
                    <div class=""question-area""></div> 
                </div>","null","","","","","","","","","","","","",""
"","","","","","html-button-response","97","498784","0.0-97.0","5300013039424CEEBA19011179000E2E","019d6656-35c8-7389-9aa4-833b1000de46","019d6630-2071-75cb-8026-6699844a2719","","537","
                <div class=""stimulus-container"">
                    <img src=""images/schematic_sequence/hotel_scheme/hotel_scheme_9.png"" class=""exp-image"">
                    <div class=""question-area"">
                        <p style=""font-size: 20px; font-weight: bold; margin: 0;"">Is there a person in this image?</p>
                    </div>
                </div>","0","main_experiment_trial","9","hotel_scheme","schematic_sequence","chronological","","","","","","","",""
"","","","","","html-keyboard-response","98","503793","0.0-98.0","5300013039424CEEBA19011179000E2E","019d6656-35c8-7389-9aa4-833b1000de46","019d6630-2071-75cb-8026-6699844a2719","","null","
                <div class=""stimulus-container"">
                    <img src=""images/schematic_sequence/hotel_scheme/hotel_scheme_ten.png"" class=""exp-image"">
                    <div class=""question-area""></div> 
                </div>","null","","","","","","","","","","","","",""
"","","","","","html-button-response","99","504313","0.0-99.0","5300013039424CEEBA19011179000E2E","019d6656-35c8-7389-9aa4-833b1000de46","019d6630-2071-75cb-8026-6699844a2719","","520","
                <div class=""stimulus-container"">
                    <img src=""images/schematic_sequence/hotel_scheme/hotel_scheme_ten.png"" class=""exp-image"">
                    <div class=""question-area"">
                        <p style=""font-size: 20px; font-weight: bold; margin: 0;"">Is there a person in this image?</p>
                    </div>
                </div>","0","main_experiment_trial","ten","hotel_scheme","schematic_sequence","chronological","","","","","","","",""
"","","","","","html-keyboard-response","100","509314","0.0-100.0","5300013039424CEEBA19011179000E2E","019d6656-35c8-7389-9aa4-833b1000de46","019d6630-2071-75cb-8026-6699844a2719","","null","<div style=""background-color: white; width: 100vw; height: 100vh;""></div>","null","","","","","","","","","","","","",""
"","","","","","html-keyboard-response","101","514327","0.0-101.0","5300013039424CEEBA19011179000E2E","019d6656-35c8-7389-9aa4-833b1000de46","019d6630-2071-75cb-8026-6699844a2719","","null","
                <div class=""stimulus-container"">
                    <img src=""images/semantic_sequence/kitchen_operations_semantic/kitchen_operations_semantic_1.png"" class=""exp-image"">
                    <div class=""question-area""></div> 
                </div>","null","","","","","","","","","","","","",""
"","","","","","html-button-response","102","515035","0.0-102.0","5300013039424CEEBA19011179000E2E","019d6656-35c8-7389-9aa4-833b1000de46","019d6630-2071-75cb-8026-6699844a2719","","706","
                <div class=""stimulus-container"">
                    <img src=""images/semantic_sequence/kitchen_operations_semantic/kitchen_operations_semantic_1.png"" class=""exp-image"">
                    <div class=""question-area"">
                        <p style=""font-size: 20px; font-weight: bold; margin: 0;"">Is there a person in this image?</p>
                    </div>
                </div>","0","main_experiment_trial","1","kitchen_operations_semantic","semantic_sequence","chronological","","","","","","","",""
"","","","","","html-keyboard-response","103","520045","0.0-103.0","5300013039424CEEBA19011179000E2E","019d6656-35c8-7389-9aa4-833b1000de46","019d6630-2071-75cb-8026-6699844a2719","","null","
                <div class=""stimulus-container"">
                    <img src=""images/semantic_sequence/kitchen_operations_semantic/kitchen_operations_semantic_2.png"" class=""exp-image"">
                    <div class=""question-area""></div> 
                </div>","null","","","","","","","","","","","","",""
"","","","","","html-button-response","104","521324","0.0-104.0","5300013039424CEEBA19011179000E2E","019d6656-35c8-7389-9aa4-833b1000de46","019d6630-2071-75cb-8026-6699844a2719","","1278","
                <div class=""stimulus-container"">
                    <img src=""images/semantic_sequence/kitchen_operations_semantic/kitchen_operations_semantic_2.png"" class=""exp-image"">
                    <div class=""question-area"">
                        <p style=""font-size: 20px; font-weight: bold; margin: 0;"">Is there a person in this image?</p>
                    </div>
                </div>","0","main_experiment_trial","2","kitchen_operations_semantic","semantic_sequence","chronological","","","","","","","",""
"","","","","","html-keyboard-response","105","526332","0.0-105.0","5300013039424CEEBA19011179000E2E","019d6656-35c8-7389-9aa4-833b1000de46","019d6630-2071-75cb-8026-6699844a2719","","null","
                <div class=""stimulus-container"">
                    <img src=""images/semantic_sequence/kitchen_operations_semantic/kitchen_operations_semantic_3.png"" class=""exp-image"">
                    <div class=""question-area""></div> 
                </div>","null","","","","","","","","","","","","",""
"","","","","","html-button-response","106","527740","0.0-106.0","5300013039424CEEBA19011179000E2E","019d6656-35c8-7389-9aa4-833b1000de46","019d6630-2071-75cb-8026-6699844a2719","","1407","
                <div class=""stimulus-container"">
                    <img src=""images/semantic_sequence/kitchen_operations_semantic/kitchen_operations_semantic_3.png"" class=""exp-image"">
                    <div class=""question-area"">
                        <p style=""font-size: 20px; font-weight: bold; margin: 0;"">Is there a person in this image?</p>
                    </div>
                </div>","0","main_experiment_trial","3","kitchen_operations_semantic","semantic_sequence","chronological","","","","","","","",""
"","","","","","html-keyboard-response","107","532752","0.0-107.0","5300013039424CEEBA19011179000E2E","019d6656-35c8-7389-9aa4-833b1000de46","019d6630-2071-75cb-8026-6699844a2719","","null","
                <div class=""stimulus-container"">
                    <img src=""images/semantic_sequence/kitchen_operations_semantic/kitchen_operations_semantic_4.png"" class=""exp-image"">
                    <div class=""question-area""></div> 
                </div>","null","","","","","","","","","","","","",""
"","","","","","html-button-response","108","533196","0.0-108.0","5300013039424CEEBA19011179000E2E","019d6656-35c8-7389-9aa4-833b1000de46","019d6630-2071-75cb-8026-6699844a2719","","443","
                <div class=""stimulus-container"">
                    <img src=""images/semantic_sequence/kitchen_operations_semantic/kitchen_operations_semantic_4.png"" class=""exp-image"">
                    <div class=""question-area"">
                        <p style=""font-size: 20px; font-weight: bold; margin: 0;"">Is there a person in this image?</p>
                    </div>
                </div>","0","main_experiment_trial","4","kitchen_operations_semantic","semantic_sequence","chronological","","","","","","","",""
"","","","","","html-keyboard-response","109","538201","0.0-109.0","5300013039424CEEBA19011179000E2E","019d6656-35c8-7389-9aa4-833b1000de46","019d6630-2071-75cb-8026-6699844a2719","","null","
                <div class=""stimulus-container"">
                    <img src=""images/semantic_sequence/kitchen_operations_semantic/kitchen_operations_semantic_5.png"" class=""exp-image"">
                    <div class=""question-area""></div> 
                </div>","null","","","","","","","","","","","","",""
"","","","","","html-button-response","110","538733","0.0-110.0","5300013039424CEEBA19011179000E2E","019d6656-35c8-7389-9aa4-833b1000de46","019d6630-2071-75cb-8026-6699844a2719","","532","
                <div class=""stimulus-container"">
                    <img src=""images/semantic_sequence/kitchen_operations_semantic/kitchen_operations_semantic_5.png"" class=""exp-image"">
                    <div class=""question-area"">
                        <p style=""font-size: 20px; font-weight: bold; margin: 0;"">Is there a person in this image?</p>
                    </div>
                </div>","0","main_experiment_trial","5","kitchen_operations_semantic","semantic_sequence","chronological","","","","","","","",""
"","","","","","html-keyboard-response","111","543739","0.0-111.0","5300013039424CEEBA19011179000E2E","019d6656-35c8-7389-9aa4-833b1000de46","019d6630-2071-75cb-8026-6699844a2719","","null","
                <div class=""stimulus-container"">
                    <img src=""images/semantic_sequence/kitchen_operations_semantic/kitchen_operations_semantic_6.png"" class=""exp-image"">
                    <div class=""question-area""></div> 
                </div>","null","","","","","","","","","","","","",""
"","","","","","html-button-response","112","544598","0.0-112.0","5300013039424CEEBA19011179000E2E","019d6656-35c8-7389-9aa4-833b1000de46","019d6630-2071-75cb-8026-6699844a2719","","859","
                <div class=""stimulus-container"">
                    <img src=""images/semantic_sequence/kitchen_operations_semantic/kitchen_operations_semantic_6.png"" class=""exp-image"">
                    <div class=""question-area"">
                        <p style=""font-size: 20px; font-weight: bold; margin: 0;"">Is there a person in this image?</p>
                    </div>
                </div>","0","main_experiment_trial","6","kitchen_operations_semantic","semantic_sequence","chronological","","","","","","","",""
"","","","","","html-keyboard-response","113","549604","0.0-113.0","5300013039424CEEBA19011179000E2E","019d6656-35c8-7389-9aa4-833b1000de46","019d6630-2071-75cb-8026-6699844a2719","","null","
                <div class=""stimulus-container"">
                    <img src=""images/semantic_sequence/kitchen_operations_semantic/kitchen_operations_semantic_7.png"" class=""exp-image"">
                    <div class=""question-area""></div> 
                </div>","null","","","","","","","","","","","","",""
"","","","","","html-button-response","114","550111","0.0-114.0","5300013039424CEEBA19011179000E2E","019d6656-35c8-7389-9aa4-833b1000de46","019d6630-2071-75cb-8026-6699844a2719","","506","
                <div class=""stimulus-container"">
                    <img src=""images/semantic_sequence/kitchen_operations_semantic/kitchen_operations_semantic_7.png"" class=""exp-image"">
                    <div class=""question-area"">
                        <p style=""font-size: 20px; font-weight: bold; margin: 0;"">Is there a person in this image?</p>
                    </div>
                </div>","0","main_experiment_trial","7","kitchen_operations_semantic","semantic_sequence","chronological","","","","","","","",""
"","","","","","html-keyboard-response","115","555113","0.0-115.0","5300013039424CEEBA19011179000E2E","019d6656-35c8-7389-9aa4-833b1000de46","019d6630-2071-75cb-8026-6699844a2719","","null","
                <div class=""stimulus-container"">
                    <img src=""images/semantic_sequence/kitchen_operations_semantic/kitchen_operations_semantic_8.png"" class=""exp-image"">
                    <div class=""question-area""></div> 
                </div>","null","","","","","","","","","","","","",""
"","","","","","html-button-response","116","556088","0.0-116.0","5300013039424CEEBA19011179000E2E","019d6656-35c8-7389-9aa4-833b1000de46","019d6630-2071-75cb-8026-6699844a2719","","974","
                <div class=""stimulus-container"">
                    <img src=""images/semantic_sequence/kitchen_operations_semantic/kitchen_operations_semantic_8.png"" class=""exp-image"">
                    <div class=""question-area"">
                        <p style=""font-size: 20px; font-weight: bold; margin: 0;"">Is there a person in this image?</p>
                    </div>
                </div>","0","main_experiment_trial","8","kitchen_operations_semantic","semantic_sequence","chronological","","","","","","","",""
"","","","","","html-keyboard-response","117","561089","0.0-117.0","5300013039424CEEBA19011179000E2E","019d6656-35c8-7389-9aa4-833b1000de46","019d6630-2071-75cb-8026-6699844a2719","","null","
                <div class=""stimulus-container"">
                    <img src=""images/semantic_sequence/kitchen_operations_semantic/kitchen_operations_semantic_9.png"" class=""exp-image"">
                    <div class=""question-area""></div> 
                </div>","null","","","","","","","","","","","","",""
"","","","","","html-button-response","118","562160","0.0-118.0","5300013039424CEEBA19011179000E2E","019d6656-35c8-7389-9aa4-833b1000de46","019d6630-2071-75cb-8026-6699844a2719","","1071","
                <div class=""stimulus-container"">
                    <img src=""images/semantic_sequence/kitchen_operations_semantic/kitchen_operations_semantic_9.png"" class=""exp-image"">
                    <div class=""question-area"">
                        <p style=""font-size: 20px; font-weight: bold; margin: 0;"">Is there a person in this image?</p>
                    </div>
                </div>","0","main_experiment_trial","9","kitchen_operations_semantic","semantic_sequence","chronological","","","","","","","",""
"","","","","","html-keyboard-response","119","567169","0.0-119.0","5300013039424CEEBA19011179000E2E","019d6656-35c8-7389-9aa4-833b1000de46","019d6630-2071-75cb-8026-6699844a2719","","null","
                <div class=""stimulus-container"">
                    <img src=""images/semantic_sequence/kitchen_operations_semantic/kitchen_operations_semantic_ten.png"" class=""exp-image"">
                    <div class=""question-area""></div> 
                </div>","null","","","","","","","","","","","","",""
"","","","","","html-button-response","120","567707","0.0-120.0","5300013039424CEEBA19011179000E2E","019d6656-35c8-7389-9aa4-833b1000de46","019d6630-2071-75cb-8026-6699844a2719","","537","
                <div class=""stimulus-container"">
                    <img src=""images/semantic_sequence/kitchen_operations_semantic/kitchen_operations_semantic_ten.png"" class=""exp-image"">
                    <div class=""question-area"">
                        <p style=""font-size: 20px; font-weight: bold; margin: 0;"">Is there a person in this image?</p>
                    </div>
                </div>","0","main_experiment_trial","ten","kitchen_operations_semantic","semantic_sequence","chronological","","","","","","","",""
"","","","","","html-keyboard-response","121","572720","0.0-121.0","5300013039424CEEBA19011179000E2E","019d6656-35c8-7389-9aa4-833b1000de46","019d6630-2071-75cb-8026-6699844a2719","","null","<div style=""background-color: white; width: 100vw; height: 100vh;""></div>","null","","","","","","","","","","","","",""
"","","","","","html-keyboard-response","122","577722","0.0-122.0","5300013039424CEEBA19011179000E2E","019d6656-35c8-7389-9aa4-833b1000de46","019d6630-2071-75cb-8026-6699844a2719","","null","
                <div class=""stimulus-container"">
                    <img src=""images/schematic_sequence/supermarket_scheme/supermarket_scheme_1.png"" class=""exp-image"">
                    <div class=""question-area""></div> 
                </div>","null","","","","","","","","","","","","",""
"","","","","","html-button-response","123","578715","0.0-123.0","5300013039424CEEBA19011179000E2E","019d6656-35c8-7389-9aa4-833b1000de46","019d6630-2071-75cb-8026-6699844a2719","","993","
                <div class=""stimulus-container"">
                    <img src=""images/schematic_sequence/supermarket_scheme/supermarket_scheme_1.png"" class=""exp-image"">
                    <div class=""question-area"">
                        <p style=""font-size: 20px; font-weight: bold; margin: 0;"">Is there a person in this image?</p>
                    </div>
                </div>","1","main_experiment_trial","1","supermarket_scheme","schematic_sequence","chronological","","","","","","","",""
"","","","","","html-keyboard-response","124","583725","0.0-124.0","5300013039424CEEBA19011179000E2E","019d6656-35c8-7389-9aa4-833b1000de46","019d6630-2071-75cb-8026-6699844a2719","","null","
                <div class=""stimulus-container"">
                    <img src=""images/schematic_sequence/supermarket_scheme/supermarket_scheme_2.png"" class=""exp-image"">
                    <div class=""question-area""></div> 
                </div>","null","","","","","","","","","","","","",""
"","","","","","html-button-response","125","584204","0.0-125.0","5300013039424CEEBA19011179000E2E","019d6656-35c8-7389-9aa4-833b1000de46","019d6630-2071-75cb-8026-6699844a2719","","478","
                <div class=""stimulus-container"">
                    <img src=""images/schematic_sequence/supermarket_scheme/supermarket_scheme_2.png"" class=""exp-image"">
                    <div class=""question-area"">
                        <p style=""font-size: 20px; font-weight: bold; margin: 0;"">Is there a person in this image?</p>
                    </div>
                </div>","1","main_experiment_trial","2","supermarket_scheme","schematic_sequence","chronological","","","","","","","",""
"","","","","","html-keyboard-response","126","589205","0.0-126.0","5300013039424CEEBA19011179000E2E","019d6656-35c8-7389-9aa4-833b1000de46","019d6630-2071-75cb-8026-6699844a2719","","null","
                <div class=""stimulus-container"">
                    <img src=""images/schematic_sequence/supermarket_scheme/supermarket_scheme_3.png"" class=""exp-image"">
                    <div class=""question-area""></div> 
                </div>","null","","","","","","","","","","","","",""
"","","","","","html-button-response","127","590028","0.0-127.0","5300013039424CEEBA19011179000E2E","019d6656-35c8-7389-9aa4-833b1000de46","019d6630-2071-75cb-8026-6699844a2719","","823","
                <div class=""stimulus-container"">
                    <img src=""images/schematic_sequence/supermarket_scheme/supermarket_scheme_3.png"" class=""exp-image"">
                    <div class=""question-area"">
                        <p style=""font-size: 20px; font-weight: bold; margin: 0;"">Is there a person in this image?</p>
                    </div>
                </div>","1","main_experiment_trial","3","supermarket_scheme","schematic_sequence","chronological","","","","","","","",""
"","","","","","html-keyboard-response","128","595040","0.0-128.0","5300013039424CEEBA19011179000E2E","019d6656-35c8-7389-9aa4-833b1000de46","019d6630-2071-75cb-8026-6699844a2719","","null","
                <div class=""stimulus-container"">
                    <img src=""images/schematic_sequence/supermarket_scheme/supermarket_scheme_4.png"" class=""exp-image"">
                    <div class=""question-area""></div> 
                </div>","null","","","","","","","","","","","","",""
"","","","","","html-button-response","129","596007","0.0-129.0","5300013039424CEEBA19011179000E2E","019d6656-35c8-7389-9aa4-833b1000de46","019d6630-2071-75cb-8026-6699844a2719","","966","
                <div class=""stimulus-container"">
                    <img src=""images/schematic_sequence/supermarket_scheme/supermarket_scheme_4.png"" class=""exp-image"">
                    <div class=""question-area"">
                        <p style=""font-size: 20px; font-weight: bold; margin: 0;"">Is there a person in this image?</p>
                    </div>
                </div>","0","main_experiment_trial","4","supermarket_scheme","schematic_sequence","chronological","","","","","","","",""
"","","","","","html-keyboard-response","130","601017","0.0-130.0","5300013039424CEEBA19011179000E2E","019d6656-35c8-7389-9aa4-833b1000de46","019d6630-2071-75cb-8026-6699844a2719","","null","
                <div class=""stimulus-container"">
                    <img src=""images/schematic_sequence/supermarket_scheme/supermarket_scheme_5.png"" class=""exp-image"">
                    <div class=""question-area""></div> 
                </div>","null","","","","","","","","","","","","",""
"","","","","","html-button-response","131","602142","0.0-131.0","5300013039424CEEBA19011179000E2E","019d6656-35c8-7389-9aa4-833b1000de46","019d6630-2071-75cb-8026-6699844a2719","","1124","
                <div class=""stimulus-container"">
                    <img src=""images/schematic_sequence/supermarket_scheme/supermarket_scheme_5.png"" class=""exp-image"">
                    <div class=""question-area"">
                        <p style=""font-size: 20px; font-weight: bold; margin: 0;"">Is there a person in this image?</p>
                    </div>
                </div>","1","main_experiment_trial","5","supermarket_scheme","schematic_sequence","chronological","","","","","","","",""
"","","","","","html-keyboard-response","132","607153","0.0-132.0","5300013039424CEEBA19011179000E2E","019d6656-35c8-7389-9aa4-833b1000de46","019d6630-2071-75cb-8026-6699844a2719","","null","
                <div class=""stimulus-container"">
                    <img src=""images/schematic_sequence/supermarket_scheme/supermarket_scheme_6.png"" class=""exp-image"">
                    <div class=""question-area""></div> 
                </div>","null","","","","","","","","","","","","",""
"","","","","","html-button-response","133","608055","0.0-133.0","5300013039424CEEBA19011179000E2E","019d6656-35c8-7389-9aa4-833b1000de46","019d6630-2071-75cb-8026-6699844a2719","","902","
                <div class=""stimulus-container"">
                    <img src=""images/schematic_sequence/supermarket_scheme/supermarket_scheme_6.png"" class=""exp-image"">
                    <div class=""question-area"">
                        <p style=""font-size: 20px; font-weight: bold; margin: 0;"">Is there a person in this image?</p>
                    </div>
                </div>","0","main_experiment_trial","6","supermarket_scheme","schematic_sequence","chronological","","","","","","","",""
"","","","","","html-keyboard-response","134","613061","0.0-134.0","5300013039424CEEBA19011179000E2E","019d6656-35c8-7389-9aa4-833b1000de46","019d6630-2071-75cb-8026-6699844a2719","","null","
                <div class=""stimulus-container"">
                    <img src=""images/schematic_sequence/supermarket_scheme/supermarket_scheme_7.png"" class=""exp-image"">
                    <div class=""question-area""></div> 
                </div>","null","","","","","","","","","","","","",""
"","","","","","html-button-response","135","613648","0.0-135.0","5300013039424CEEBA19011179000E2E","019d6656-35c8-7389-9aa4-833b1000de46","019d6630-2071-75cb-8026-6699844a2719","","586","
                <div class=""stimulus-container"">
                    <img src=""images/schematic_sequence/supermarket_scheme/supermarket_scheme_7.png"" class=""exp-image"">
                    <div class=""question-area"">
                        <p style=""font-size: 20px; font-weight: bold; margin: 0;"">Is there a person in this image?</p>
                    </div>
                </div>","0","main_experiment_trial","7","supermarket_scheme","schematic_sequence","chronological","","","","","","","",""
"","","","","","html-keyboard-response","136","618660","0.0-136.0","5300013039424CEEBA19011179000E2E","019d6656-35c8-7389-9aa4-833b1000de46","019d6630-2071-75cb-8026-6699844a2719","","null","
                <div class=""stimulus-container"">
                    <img src=""images/schematic_sequence/supermarket_scheme/supermarket_scheme_8.png"" class=""exp-image"">
                    <div class=""question-area""></div> 
                </div>","null","","","","","","","","","","","","",""
"","","","","","html-button-response","137","619144","0.0-137.0","5300013039424CEEBA19011179000E2E","019d6656-35c8-7389-9aa4-833b1000de46","019d6630-2071-75cb-8026-6699844a2719","","484","
                <div class=""stimulus-container"">
                    <img src=""images/schematic_sequence/supermarket_scheme/supermarket_scheme_8.png"" class=""exp-image"">
                    <div class=""question-area"">
                        <p style=""font-size: 20px; font-weight: bold; margin: 0;"">Is there a person in this image?</p>
                    </div>
                </div>","0","main_experiment_trial","8","supermarket_scheme","schematic_sequence","chronological","","","","","","","",""
"","","","","","html-keyboard-response","138","624148","0.0-138.0","5300013039424CEEBA19011179000E2E","019d6656-35c8-7389-9aa4-833b1000de46","019d6630-2071-75cb-8026-6699844a2719","","null","
                <div class=""stimulus-container"">
                    <img src=""images/schematic_sequence/supermarket_scheme/supermarket_scheme_9.png"" class=""exp-image"">
                    <div class=""question-area""></div> 
                </div>","null","","","","","","","","","","","","",""
"","","","","","html-button-response","139","624586","0.0-139.0","5300013039424CEEBA19011179000E2E","019d6656-35c8-7389-9aa4-833b1000de46","019d6630-2071-75cb-8026-6699844a2719","","437","
                <div class=""stimulus-container"">
                    <img src=""images/schematic_sequence/supermarket_scheme/supermarket_scheme_9.png"" class=""exp-image"">
                    <div class=""question-area"">
                        <p style=""font-size: 20px; font-weight: bold; margin: 0;"">Is there a person in this image?</p>
                    </div>
                </div>","0","main_experiment_trial","9","supermarket_scheme","schematic_sequence","chronological","","","","","","","",""
"","","","","","html-keyboard-response","140","629601","0.0-140.0","5300013039424CEEBA19011179000E2E","019d6656-35c8-7389-9aa4-833b1000de46","019d6630-2071-75cb-8026-6699844a2719","","null","
                <div class=""stimulus-container"">
                    <img src=""images/schematic_sequence/supermarket_scheme/supermarket_scheme_ten.png"" class=""exp-image"">
                    <div class=""question-area""></div> 
                </div>","null","","","","","","","","","","","","",""
"","","","","","html-button-response","141","630466","0.0-141.0","5300013039424CEEBA19011179000E2E","019d6656-35c8-7389-9aa4-833b1000de46","019d6630-2071-75cb-8026-6699844a2719","","864","
                <div class=""stimulus-container"">
                    <img src=""images/schematic_sequence/supermarket_scheme/supermarket_scheme_ten.png"" class=""exp-image"">
                    <div class=""question-area"">
                        <p style=""font-size: 20px; font-weight: bold; margin: 0;"">Is there a person in this image?</p>
                    </div>
                </div>","1","main_experiment_trial","ten","supermarket_scheme","schematic_sequence","chronological","","","","","","","",""
"","","","","","html-keyboard-response","142","635482","0.0-142.0","5300013039424CEEBA19011179000E2E","019d6656-35c8-7389-9aa4-833b1000de46","019d6630-2071-75cb-8026-6699844a2719","","null","<div style=""background-color: white; width: 100vw; height: 100vh;""></div>","null","","","","","","","","","","","","",""
"","","","","","html-keyboard-response","143","640497","0.0-143.0","5300013039424CEEBA19011179000E2E","019d6656-35c8-7389-9aa4-833b1000de46","019d6630-2071-75cb-8026-6699844a2719","","null","
                <div class=""stimulus-container"">
                    <img src=""images/causal_sequence/the_performance_causal/the_performance_causal_1.png"" class=""exp-image"">
                    <div class=""question-area""></div> 
                </div>","null","","","","","","","","","","","","",""
"","","","","","html-button-response","144","642084","0.0-144.0","5300013039424CEEBA19011179000E2E","019d6656-35c8-7389-9aa4-833b1000de46","019d6630-2071-75cb-8026-6699844a2719","","1586","
                <div class=""stimulus-container"">
                    <img src=""images/causal_sequence/the_performance_causal/the_performance_causal_1.png"" class=""exp-image"">
                    <div class=""question-area"">
                        <p style=""font-size: 20px; font-weight: bold; margin: 0;"">Is there a person in this image?</p>
                    </div>
                </div>","0","main_experiment_trial","1","the_performance_causal","causal_sequence","chronological","","","","","","","",""
"","","","","","html-keyboard-response","145","647095","0.0-145.0","5300013039424CEEBA19011179000E2E","019d6656-35c8-7389-9aa4-833b1000de46","019d6630-2071-75cb-8026-6699844a2719","","null","
                <div class=""stimulus-container"">
                    <img src=""images/causal_sequence/the_performance_causal/the_performance_causal_2.png"" class=""exp-image"">
                    <div class=""question-area""></div> 
                </div>","null","","","","","","","","","","","","",""
"","","","","","html-button-response","146","647852","0.0-146.0","5300013039424CEEBA19011179000E2E","019d6656-35c8-7389-9aa4-833b1000de46","019d6630-2071-75cb-8026-6699844a2719","","757","
                <div class=""stimulus-container"">
                    <img src=""images/causal_sequence/the_performance_causal/the_performance_causal_2.png"" class=""exp-image"">
                    <div class=""question-area"">
                        <p style=""font-size: 20px; font-weight: bold; margin: 0;"">Is there a person in this image?</p>
                    </div>
                </div>","0","main_experiment_trial","2","the_performance_causal","causal_sequence","chronological","","","","","","","",""
"","","","","","html-keyboard-response","147","652860","0.0-147.0","5300013039424CEEBA19011179000E2E","019d6656-35c8-7389-9aa4-833b1000de46","019d6630-2071-75cb-8026-6699844a2719","","null","
                <div class=""stimulus-container"">
                    <img src=""images/causal_sequence/the_performance_causal/the_performance_causal_3.png"" class=""exp-image"">
                    <div class=""question-area""></div> 
                </div>","null","","","","","","","","","","","","",""
"","","","","","html-button-response","148","653461","0.0-148.0","5300013039424CEEBA19011179000E2E","019d6656-35c8-7389-9aa4-833b1000de46","019d6630-2071-75cb-8026-6699844a2719","","600","
                <div class=""stimulus-container"">
                    <img src=""images/causal_sequence/the_performance_causal/the_performance_causal_3.png"" class=""exp-image"">
                    <div class=""question-area"">
                        <p style=""font-size: 20px; font-weight: bold; margin: 0;"">Is there a person in this image?</p>
                    </div>
                </div>","0","main_experiment_trial","3","the_performance_causal","causal_sequence","chronological","","","","","","","",""
"","","","","","html-keyboard-response","149","658476","0.0-149.0","5300013039424CEEBA19011179000E2E","019d6656-35c8-7389-9aa4-833b1000de46","019d6630-2071-75cb-8026-6699844a2719","","null","
                <div class=""stimulus-container"">
                    <img src=""images/causal_sequence/the_performance_causal/the_performance_causal_4.png"" class=""exp-image"">
                    <div class=""question-area""></div> 
                </div>","null","","","","","","","","","","","","",""
"","","","","","html-button-response","150","659182","0.0-150.0","5300013039424CEEBA19011179000E2E","019d6656-35c8-7389-9aa4-833b1000de46","019d6630-2071-75cb-8026-6699844a2719","","706","
                <div class=""stimulus-container"">
                    <img src=""images/causal_sequence/the_performance_causal/the_performance_causal_4.png"" class=""exp-image"">
                    <div class=""question-area"">
                        <p style=""font-size: 20px; font-weight: bold; margin: 0;"">Is there a person in this image?</p>
                    </div>
                </div>","0","main_experiment_trial","4","the_performance_causal","causal_sequence","chronological","","","","","","","",""
"","","","","","html-keyboard-response","151","664195","0.0-151.0","5300013039424CEEBA19011179000E2E","019d6656-35c8-7389-9aa4-833b1000de46","019d6630-2071-75cb-8026-6699844a2719","","null","
                <div class=""stimulus-container"">
                    <img src=""images/causal_sequence/the_performance_causal/the_performance_causal_5.png"" class=""exp-image"">
                    <div class=""question-area""></div> 
                </div>","null","","","","","","","","","","","","",""
"","","","","","html-button-response","152","665071","0.0-152.0","5300013039424CEEBA19011179000E2E","019d6656-35c8-7389-9aa4-833b1000de46","019d6630-2071-75cb-8026-6699844a2719","","875","
                <div class=""stimulus-container"">
                    <img src=""images/causal_sequence/the_performance_causal/the_performance_causal_5.png"" class=""exp-image"">
                    <div class=""question-area"">
                        <p style=""font-size: 20px; font-weight: bold; margin: 0;"">Is there a person in this image?</p>
                    </div>
                </div>","0","main_experiment_trial","5","the_performance_causal","causal_sequence","chronological","","","","","","","",""
"","","","","","html-keyboard-response","153","670073","0.0-153.0","5300013039424CEEBA19011179000E2E","019d6656-35c8-7389-9aa4-833b1000de46","019d6630-2071-75cb-8026-6699844a2719","","null","
                <div class=""stimulus-container"">
                    <img src=""images/causal_sequence/the_performance_causal/the_performance_causal_6.png"" class=""exp-image"">
                    <div class=""question-area""></div> 
                </div>","null","","","","","","","","","","","","",""
"","","","","","html-button-response","154","670992","0.0-154.0","5300013039424CEEBA19011179000E2E","019d6656-35c8-7389-9aa4-833b1000de46","019d6630-2071-75cb-8026-6699844a2719","","918","
                <div class=""stimulus-container"">
                    <img src=""images/causal_sequence/the_performance_causal/the_performance_causal_6.png"" class=""exp-image"">
                    <div class=""question-area"">
                        <p style=""font-size: 20px; font-weight: bold; margin: 0;"">Is there a person in this image?</p>
                    </div>
                </div>","0","main_experiment_trial","6","the_performance_causal","causal_sequence","chronological","","","","","","","",""
"","","","","","html-keyboard-response","155","675994","0.0-155.0","5300013039424CEEBA19011179000E2E","019d6656-35c8-7389-9aa4-833b1000de46","019d6630-2071-75cb-8026-6699844a2719","","null","
                <div class=""stimulus-container"">
                    <img src=""images/causal_sequence/the_performance_causal/the_performance_causal_7.png"" class=""exp-image"">
                    <div class=""question-area""></div> 
                </div>","null","","","","","","","","","","","","",""
"","","","","","html-button-response","156","676801","0.0-156.0","5300013039424CEEBA19011179000E2E","019d6656-35c8-7389-9aa4-833b1000de46","019d6630-2071-75cb-8026-6699844a2719","","806","
                <div class=""stimulus-container"">
                    <img src=""images/causal_sequence/the_performance_causal/the_performance_causal_7.png"" class=""exp-image"">
                    <div class=""question-area"">
                        <p style=""font-size: 20px; font-weight: bold; margin: 0;"">Is there a person in this image?</p>
                    </div>
                </div>","0","main_experiment_trial","7","the_performance_causal","causal_sequence","chronological","","","","","","","",""
"","","","","","html-keyboard-response","157","681802","0.0-157.0","5300013039424CEEBA19011179000E2E","019d6656-35c8-7389-9aa4-833b1000de46","019d6630-2071-75cb-8026-6699844a2719","","null","
                <div class=""stimulus-container"">
                    <img src=""images/causal_sequence/the_performance_causal/the_performance_causal_8.png"" class=""exp-image"">
                    <div class=""question-area""></div> 
                </div>","null","","","","","","","","","","","","",""
"","","","","","html-button-response","158","684308","0.0-158.0","5300013039424CEEBA19011179000E2E","019d6656-35c8-7389-9aa4-833b1000de46","019d6630-2071-75cb-8026-6699844a2719","","2505","
                <div class=""stimulus-container"">
                    <img src=""images/causal_sequence/the_performance_causal/the_performance_causal_8.png"" class=""exp-image"">
                    <div class=""question-area"">
                        <p style=""font-size: 20px; font-weight: bold; margin: 0;"">Is there a person in this image?</p>
                    </div>
                </div>","0","main_experiment_trial","8","the_performance_causal","causal_sequence","chronological","","","","","","","",""
"","","","","","html-keyboard-response","159","689316","0.0-159.0","5300013039424CEEBA19011179000E2E","019d6656-35c8-7389-9aa4-833b1000de46","019d6630-2071-75cb-8026-6699844a2719","","null","
                <div class=""stimulus-container"">
                    <img src=""images/causal_sequence/the_performance_causal/the_performance_causal_9.png"" class=""exp-image"">
                    <div class=""question-area""></div> 
                </div>","null","","","","","","","","","","","","",""
"","","","","","html-button-response","160","690562","0.0-160.0","5300013039424CEEBA19011179000E2E","019d6656-35c8-7389-9aa4-833b1000de46","019d6630-2071-75cb-8026-6699844a2719","","1246","
                <div class=""stimulus-container"">
                    <img src=""images/causal_sequence/the_performance_causal/the_performance_causal_9.png"" class=""exp-image"">
                    <div class=""question-area"">
                        <p style=""font-size: 20px; font-weight: bold; margin: 0;"">Is there a person in this image?</p>
                    </div>
                </div>","0","main_experiment_trial","9","the_performance_causal","causal_sequence","chronological","","","","","","","",""
"","","","","","html-keyboard-response","161","695563","0.0-161.0","5300013039424CEEBA19011179000E2E","019d6656-35c8-7389-9aa4-833b1000de46","019d6630-2071-75cb-8026-6699844a2719","","null","
                <div class=""stimulus-container"">
                    <img src=""images/causal_sequence/the_performance_causal/the_performance_causal_ten.png"" class=""exp-image"">
                    <div class=""question-area""></div> 
                </div>","null","","","","","","","","","","","","",""
"","","","","","html-button-response","162","695964","0.0-162.0","5300013039424CEEBA19011179000E2E","019d6656-35c8-7389-9aa4-833b1000de46","019d6630-2071-75cb-8026-6699844a2719","","400","
                <div class=""stimulus-container"">
                    <img src=""images/causal_sequence/the_performance_causal/the_performance_causal_ten.png"" class=""exp-image"">
                    <div class=""question-area"">
                        <p style=""font-size: 20px; font-weight: bold; margin: 0;"">Is there a person in this image?</p>
                    </div>
                </div>","0","main_experiment_trial","ten","the_performance_causal","causal_sequence","chronological","","","","","","","",""
"","","","","","html-keyboard-response","163","700974","0.0-163.0","5300013039424CEEBA19011179000E2E","019d6656-35c8-7389-9aa4-833b1000de46","019d6630-2071-75cb-8026-6699844a2719","","null","<div style=""background-color: white; width: 100vw; height: 100vh;""></div>","null","","","","","","","","","","","","",""
"","","","","","html-keyboard-response","164","705982","0.0-164.0","5300013039424CEEBA19011179000E2E","019d6656-35c8-7389-9aa4-833b1000de46","019d6630-2071-75cb-8026-6699844a2719","","null","
                <div class=""stimulus-container"">
                    <img src=""images/semantic_sequence/housework_semantic/housework_semantic_1.png"" class=""exp-image"">
                    <div class=""question-area""></div> 
                </div>","null","","","","","","","","","","","","",""
"","","","","","html-button-response","165","706709","0.0-165.0","5300013039424CEEBA19011179000E2E","019d6656-35c8-7389-9aa4-833b1000de46","019d6630-2071-75cb-8026-6699844a2719","","726","
                <div class=""stimulus-container"">
                    <img src=""images/semantic_sequence/housework_semantic/housework_semantic_1.png"" class=""exp-image"">
                    <div class=""question-area"">
                        <p style=""font-size: 20px; font-weight: bold; margin: 0;"">Is there a person in this image?</p>
                    </div>
                </div>","0","main_experiment_trial","1","housework_semantic","semantic_sequence","chronological","","","","","","","",""
"","","","","","html-keyboard-response","166","711719","0.0-166.0","5300013039424CEEBA19011179000E2E","019d6656-35c8-7389-9aa4-833b1000de46","019d6630-2071-75cb-8026-6699844a2719","","null","
                <div class=""stimulus-container"">
                    <img src=""images/semantic_sequence/housework_semantic/housework_semantic_2.png"" class=""exp-image"">
                    <div class=""question-area""></div> 
                </div>","null","","","","","","","","","","","","",""
"","","","","","html-button-response","167","712238","0.0-167.0","5300013039424CEEBA19011179000E2E","019d6656-35c8-7389-9aa4-833b1000de46","019d6630-2071-75cb-8026-6699844a2719","","519","
                <div class=""stimulus-container"">
                    <img src=""images/semantic_sequence/housework_semantic/housework_semantic_2.png"" class=""exp-image"">
                    <div class=""question-area"">
                        <p style=""font-size: 20px; font-weight: bold; margin: 0;"">Is there a person in this image?</p>
                    </div>
                </div>","0","main_experiment_trial","2","housework_semantic","semantic_sequence","chronological","","","","","","","",""
"","","","","","html-keyboard-response","168","717252","0.0-168.0","5300013039424CEEBA19011179000E2E","019d6656-35c8-7389-9aa4-833b1000de46","019d6630-2071-75cb-8026-6699844a2719","","null","
                <div class=""stimulus-container"">
                    <img src=""images/semantic_sequence/housework_semantic/housework_semantic_3.png"" class=""exp-image"">
                    <div class=""question-area""></div> 
                </div>","null","","","","","","","","","","","","",""
"","","","","","html-button-response","169","717695","0.0-169.0","5300013039424CEEBA19011179000E2E","019d6656-35c8-7389-9aa4-833b1000de46","019d6630-2071-75cb-8026-6699844a2719","","442","
                <div class=""stimulus-container"">
                    <img src=""images/semantic_sequence/housework_semantic/housework_semantic_3.png"" class=""exp-image"">
                    <div class=""question-area"">
                        <p style=""font-size: 20px; font-weight: bold; margin: 0;"">Is there a person in this image?</p>
                    </div>
                </div>","0","main_experiment_trial","3","housework_semantic","semantic_sequence","chronological","","","","","","","",""
"","","","","","html-keyboard-response","170","722703","0.0-170.0","5300013039424CEEBA19011179000E2E","019d6656-35c8-7389-9aa4-833b1000de46","019d6630-2071-75cb-8026-6699844a2719","","null","
                <div class=""stimulus-container"">
                    <img src=""images/semantic_sequence/housework_semantic/housework_semantic_4.png"" class=""exp-image"">
                    <div class=""question-area""></div> 
                </div>","null","","","","","","","","","","","","",""
"","","","","","html-button-response","171","723103","0.0-171.0","5300013039424CEEBA19011179000E2E","019d6656-35c8-7389-9aa4-833b1000de46","019d6630-2071-75cb-8026-6699844a2719","","399","
                <div class=""stimulus-container"">
                    <img src=""images/semantic_sequence/housework_semantic/housework_semantic_4.png"" class=""exp-image"">
                    <div class=""question-area"">
                        <p style=""font-size: 20px; font-weight: bold; margin: 0;"">Is there a person in this image?</p>
                    </div>
                </div>","0","main_experiment_trial","4","housework_semantic","semantic_sequence","chronological","","","","","","","",""
"","","","","","html-keyboard-response","172","728104","0.0-172.0","5300013039424CEEBA19011179000E2E","019d6656-35c8-7389-9aa4-833b1000de46","019d6630-2071-75cb-8026-6699844a2719","","null","
                <div class=""stimulus-container"">
                    <img src=""images/semantic_sequence/housework_semantic/housework_semantic_5.png"" class=""exp-image"">
                    <div class=""question-area""></div> 
                </div>","null","","","","","","","","","","","","",""
"","","","","","html-button-response","173","728472","0.0-173.0","5300013039424CEEBA19011179000E2E","019d6656-35c8-7389-9aa4-833b1000de46","019d6630-2071-75cb-8026-6699844a2719","","368","
                <div class=""stimulus-container"">
                    <img src=""images/semantic_sequence/housework_semantic/housework_semantic_5.png"" class=""exp-image"">
                    <div class=""question-area"">
                        <p style=""font-size: 20px; font-weight: bold; margin: 0;"">Is there a person in this image?</p>
                    </div>
                </div>","0","main_experiment_trial","5","housework_semantic","semantic_sequence","chronological","","","","","","","",""
"","","","","","html-keyboard-response","174","733480","0.0-174.0","5300013039424CEEBA19011179000E2E","019d6656-35c8-7389-9aa4-833b1000de46","019d6630-2071-75cb-8026-6699844a2719","","null","
                <div class=""stimulus-container"">
                    <img src=""images/semantic_sequence/housework_semantic/housework_semantic_6.png"" class=""exp-image"">
                    <div class=""question-area""></div> 
                </div>","null","","","","","","","","","","","","",""
"","","","","","html-button-response","175","734081","0.0-175.0","5300013039424CEEBA19011179000E2E","019d6656-35c8-7389-9aa4-833b1000de46","019d6630-2071-75cb-8026-6699844a2719","","600","
                <div class=""stimulus-container"">
                    <img src=""images/semantic_sequence/housework_semantic/housework_semantic_6.png"" class=""exp-image"">
                    <div class=""question-area"">
                        <p style=""font-size: 20px; font-weight: bold; margin: 0;"">Is there a person in this image?</p>
                    </div>
