"success","timeout","failed_images","failed_audio","failed_video","trial_type","trial_index","time_elapsed","internal_node_id","subject_id","study_id","session_id","view_history","rt","stimulus","response","task","image_index","folder","sequence_type","presentation_order","valuable_image_index","reward_type","distance_from_x","target_X","chosen_image_index","is_x_plus_dist","correct_choice"
"true","false","[]","[]","[]","preload","0","17619","0.0-0.0","439BD1A2D0D44840B6FEFBF003D0E78A","019dac5e-f59f-7346-9b44-59a9af41fca4","019dac5b-243f-7307-af64-a10f53f1ef70","","","","","","","","","","","","","","","",""
"","","","","","instructions","1","20773","0.0-1.0","439BD1A2D0D44840B6FEFBF003D0E78A","019dac5e-f59f-7346-9b44-59a9af41fca4","019dac5b-243f-7307-af64-a10f53f1ef70","[{""page_index"":0,""viewing_time"":3153}]","3153","","","","","","","","","","","","","",""
"","","","","","instructions","2","31322","0.0-2.0","439BD1A2D0D44840B6FEFBF003D0E78A","019dac5e-f59f-7346-9b44-59a9af41fca4","019dac5b-243f-7307-af64-a10f53f1ef70","[{""page_index"":0,""viewing_time"":10549}]","10549","","","","","","","","","","","","","",""
"true","","","","","fullscreen","3","38683","0.0-3.0","439BD1A2D0D44840B6FEFBF003D0E78A","019dac5e-f59f-7346-9b44-59a9af41fca4","019dac5b-243f-7307-af64-a10f53f1ef70","","6359","","","","","","","","","","","","","",""
"","","","","","instructions","4","76764","0.0-4.0","439BD1A2D0D44840B6FEFBF003D0E78A","019dac5e-f59f-7346-9b44-59a9af41fca4","019dac5b-243f-7307-af64-a10f53f1ef70","[{""page_index"":0,""viewing_time"":38080}]","38080","","","","","","","","","","","","","",""
"","","","","","instructions","5","94209","0.0-5.0","439BD1A2D0D44840B6FEFBF003D0E78A","019dac5e-f59f-7346-9b44-59a9af41fca4","019dac5b-243f-7307-af64-a10f53f1ef70","[{""page_index"":0,""viewing_time"":17445}]","17445","","","","","","","","","","","","","",""
"","","","","","html-keyboard-response","6","98223","0.0-6.0","439BD1A2D0D44840B6FEFBF003D0E78A","019dac5e-f59f-7346-9b44-59a9af41fca4","019dac5b-243f-7307-af64-a10f53f1ef70","","null","
                <div class=""stimulus-container"">
                    <img src=""images/instructions/movie_1.png"" class=""exp-image"">
                    <div class=""question-area""></div> 
                </div>","null","","","","","","","","","","","",""
"","","","","","html-button-response","7","101231","0.0-7.0","439BD1A2D0D44840B6FEFBF003D0E78A","019dac5e-f59f-7346-9b44-59a9af41fca4","019dac5b-243f-7307-af64-a10f53f1ef70","","null","
                <div class=""stimulus-container"">
                    <img src=""images/instructions/movie_1.png"" class=""exp-image"">
                    <div class=""question-area"">
                        <p style=""font-size: 20px; font-weight: bold; margin: 0;"">Was there a person in this image?</p>
                    </div>
                </div>","null","example_question","1","","","","","","","","","",""
"","","","","","html-keyboard-response","8","105243","0.0-8.0","439BD1A2D0D44840B6FEFBF003D0E78A","019dac5e-f59f-7346-9b44-59a9af41fca4","019dac5b-243f-7307-af64-a10f53f1ef70","","null","
                <div class=""stimulus-container"">
                    <img src=""images/instructions/movie_2.png"" class=""exp-image"">
                    <div class=""question-area""></div> 
                </div>","null","","","","","","","","","","","",""
"","","","","","html-button-response","9","107313","0.0-9.0","439BD1A2D0D44840B6FEFBF003D0E78A","019dac5e-f59f-7346-9b44-59a9af41fca4","019dac5b-243f-7307-af64-a10f53f1ef70","","2068","
                <div class=""stimulus-container"">
                    <img src=""images/instructions/movie_2.png"" class=""exp-image"">
                    <div class=""question-area"">
                        <p style=""font-size: 20px; font-weight: bold; margin: 0;"">Was there a person in this image?</p>
                    </div>
                </div>","0","example_question","2","","","","","","","","","",""
"","","","","","html-keyboard-response","10","111316","0.0-10.0","439BD1A2D0D44840B6FEFBF003D0E78A","019dac5e-f59f-7346-9b44-59a9af41fca4","019dac5b-243f-7307-af64-a10f53f1ef70","","null","
                <div class=""stimulus-container"">
                    <img src=""images/instructions/movie_3.png"" class=""exp-image"">
                    <div class=""question-area""></div> 
                </div>","null","","","","","","","","","","","",""
"","","","","","html-button-response","11","112612","0.0-11.0","439BD1A2D0D44840B6FEFBF003D0E78A","019dac5e-f59f-7346-9b44-59a9af41fca4","019dac5b-243f-7307-af64-a10f53f1ef70","","1295","
                <div class=""stimulus-container"">
                    <img src=""images/instructions/movie_3.png"" class=""exp-image"">
                    <div class=""question-area"">
                        <p style=""font-size: 20px; font-weight: bold; margin: 0;"">Was there a person in this image?</p>
                    </div>
                </div>","0","example_question","3","","","","","","","","","",""
"","","","","","html-keyboard-response","12","116613","0.0-12.0","439BD1A2D0D44840B6FEFBF003D0E78A","019dac5e-f59f-7346-9b44-59a9af41fca4","019dac5b-243f-7307-af64-a10f53f1ef70","","null","
                <div class=""stimulus-container"">
                    <img src=""images/instructions/movie_4.png"" class=""exp-image"">
                    <div class=""question-area""></div> 
                </div>","null","","","","","","","","","","","",""
"","","","","","html-button-response","13","117367","0.0-13.0","439BD1A2D0D44840B6FEFBF003D0E78A","019dac5e-f59f-7346-9b44-59a9af41fca4","019dac5b-243f-7307-af64-a10f53f1ef70","","752","
                <div class=""stimulus-container"">
                    <img src=""images/instructions/movie_4.png"" class=""exp-image"">
                    <div class=""question-area"">
                        <p style=""font-size: 20px; font-weight: bold; margin: 0;"">Was there a person in this image?</p>
                    </div>
                </div>","0","example_question","4","","","","","","","","","",""
"","","","","","instructions","14","119661","0.0-14.0","439BD1A2D0D44840B6FEFBF003D0E78A","019dac5e-f59f-7346-9b44-59a9af41fca4","019dac5b-243f-7307-af64-a10f53f1ef70","[{""page_index"":0,""viewing_time"":2293}]","2293","","","","","","","","","","","","","",""
"","","","","","instructions","15","128181","0.0-15.0","439BD1A2D0D44840B6FEFBF003D0E78A","019dac5e-f59f-7346-9b44-59a9af41fca4","019dac5b-243f-7307-af64-a10f53f1ef70","[{""page_index"":0,""viewing_time"":8520}]","8520","","","","","","","","","","","","","",""
"","","","","","html-keyboard-response","16","133191","0.0-16.0","439BD1A2D0D44840B6FEFBF003D0E78A","019dac5e-f59f-7346-9b44-59a9af41fca4","019dac5b-243f-7307-af64-a10f53f1ef70","","null","<div style=""background-color: white; width: 100vw; height: 100vh;""></div>","null","","","","","","","","","","","",""
"","","","","","html-keyboard-response","17","138203","0.0-17.0","439BD1A2D0D44840B6FEFBF003D0E78A","019dac5e-f59f-7346-9b44-59a9af41fca4","019dac5b-243f-7307-af64-a10f53f1ef70","","null","
                <div class=""stimulus-container"">
                    <img src=""images/semantic_sequence/visiting_cities_semantic/visiting_cities_semantic_1.png"" class=""exp-image"">
                    <div class=""question-area""></div> 
                </div>","null","","","","","","","","","","","",""
"","","","","","html-button-response","18","139691","0.0-18.0","439BD1A2D0D44840B6FEFBF003D0E78A","019dac5e-f59f-7346-9b44-59a9af41fca4","019dac5b-243f-7307-af64-a10f53f1ef70","","1487","
                <div class=""stimulus-container"">
                    <img src=""images/semantic_sequence/visiting_cities_semantic/visiting_cities_semantic_1.png"" class=""exp-image"">
                    <div class=""question-area"">
                        <p style=""font-size: 20px; font-weight: bold; margin: 0;"">Is there a person in this image?</p>
                    </div>
                </div>","0","main_experiment_trial","1","visiting_cities_semantic","semantic_sequence","chronological","","","","","","",""
"","","","","","html-keyboard-response","19","144695","0.0-19.0","439BD1A2D0D44840B6FEFBF003D0E78A","019dac5e-f59f-7346-9b44-59a9af41fca4","019dac5b-243f-7307-af64-a10f53f1ef70","","null","
                <div class=""stimulus-container"">
                    <img src=""images/semantic_sequence/visiting_cities_semantic/visiting_cities_semantic_2.png"" class=""exp-image"">
                    <div class=""question-area""></div> 
                </div>","null","","","","","","","","","","","",""
"","","","","","html-button-response","20","145990","0.0-20.0","439BD1A2D0D44840B6FEFBF003D0E78A","019dac5e-f59f-7346-9b44-59a9af41fca4","019dac5b-243f-7307-af64-a10f53f1ef70","","1294","
                <div class=""stimulus-container"">
                    <img src=""images/semantic_sequence/visiting_cities_semantic/visiting_cities_semantic_2.png"" class=""exp-image"">
                    <div class=""question-area"">
                        <p style=""font-size: 20px; font-weight: bold; margin: 0;"">Is there a person in this image?</p>
                    </div>
                </div>","1","main_experiment_trial","2","visiting_cities_semantic","semantic_sequence","chronological","","","","","","",""
"","","","","","html-keyboard-response","21","150999","0.0-21.0","439BD1A2D0D44840B6FEFBF003D0E78A","019dac5e-f59f-7346-9b44-59a9af41fca4","019dac5b-243f-7307-af64-a10f53f1ef70","","null","
                <div class=""stimulus-container"">
                    <img src=""images/semantic_sequence/visiting_cities_semantic/visiting_cities_semantic_3.png"" class=""exp-image"">
                    <div class=""question-area""></div> 
                </div>","null","","","","","","","","","","","",""
"","","","","","html-button-response","22","151836","0.0-22.0","439BD1A2D0D44840B6FEFBF003D0E78A","019dac5e-f59f-7346-9b44-59a9af41fca4","019dac5b-243f-7307-af64-a10f53f1ef70","","836","
                <div class=""stimulus-container"">
                    <img src=""images/semantic_sequence/visiting_cities_semantic/visiting_cities_semantic_3.png"" class=""exp-image"">
                    <div class=""question-area"">
                        <p style=""font-size: 20px; font-weight: bold; margin: 0;"">Is there a person in this image?</p>
                    </div>
                </div>","1","main_experiment_trial","3","visiting_cities_semantic","semantic_sequence","chronological","","","","","","",""
"","","","","","html-keyboard-response","23","156846","0.0-23.0","439BD1A2D0D44840B6FEFBF003D0E78A","019dac5e-f59f-7346-9b44-59a9af41fca4","019dac5b-243f-7307-af64-a10f53f1ef70","","null","
                <div class=""stimulus-container"">
                    <img src=""images/semantic_sequence/visiting_cities_semantic/visiting_cities_semantic_4.png"" class=""exp-image"">
                    <div class=""question-area""></div> 
                </div>","null","","","","","","","","","","","",""
"","","","","","html-button-response","24","159735","0.0-24.0","439BD1A2D0D44840B6FEFBF003D0E78A","019dac5e-f59f-7346-9b44-59a9af41fca4","019dac5b-243f-7307-af64-a10f53f1ef70","","2887","
                <div class=""stimulus-container"">
                    <img src=""images/semantic_sequence/visiting_cities_semantic/visiting_cities_semantic_4.png"" class=""exp-image"">
                    <div class=""question-area"">
                        <p style=""font-size: 20px; font-weight: bold; margin: 0;"">Is there a person in this image?</p>
                    </div>
                </div>","0","main_experiment_trial","4","visiting_cities_semantic","semantic_sequence","chronological","","","","","","",""
"","","","","","html-keyboard-response","25","164737","0.0-25.0","439BD1A2D0D44840B6FEFBF003D0E78A","019dac5e-f59f-7346-9b44-59a9af41fca4","019dac5b-243f-7307-af64-a10f53f1ef70","","null","
                <div class=""stimulus-container"">
                    <img src=""images/semantic_sequence/visiting_cities_semantic/visiting_cities_semantic_5.png"" class=""exp-image"">
                    <div class=""question-area""></div> 
                </div>","null","","","","","","","","","","","",""
"","","","","","html-button-response","26","165539","0.0-26.0","439BD1A2D0D44840B6FEFBF003D0E78A","019dac5e-f59f-7346-9b44-59a9af41fca4","019dac5b-243f-7307-af64-a10f53f1ef70","","800","
                <div class=""stimulus-container"">
                    <img src=""images/semantic_sequence/visiting_cities_semantic/visiting_cities_semantic_5.png"" class=""exp-image"">
                    <div class=""question-area"">
                        <p style=""font-size: 20px; font-weight: bold; margin: 0;"">Is there a person in this image?</p>
                    </div>
                </div>","0","main_experiment_trial","5","visiting_cities_semantic","semantic_sequence","chronological","","","","","","",""
"","","","","","html-keyboard-response","27","170540","0.0-27.0","439BD1A2D0D44840B6FEFBF003D0E78A","019dac5e-f59f-7346-9b44-59a9af41fca4","019dac5b-243f-7307-af64-a10f53f1ef70","","null","
                <div class=""stimulus-container"">
                    <img src=""images/semantic_sequence/visiting_cities_semantic/visiting_cities_semantic_6.png"" class=""exp-image"">
                    <div class=""question-area""></div> 
                </div>","null","","","","","","","","","","","",""
"","","","","","html-button-response","28","171606","0.0-28.0","439BD1A2D0D44840B6FEFBF003D0E78A","019dac5e-f59f-7346-9b44-59a9af41fca4","019dac5b-243f-7307-af64-a10f53f1ef70","","1064","
                <div class=""stimulus-container"">
                    <img src=""images/semantic_sequence/visiting_cities_semantic/visiting_cities_semantic_6.png"" class=""exp-image"">
                    <div class=""question-area"">
                        <p style=""font-size: 20px; font-weight: bold; margin: 0;"">Is there a person in this image?</p>
                    </div>
                </div>","0","main_experiment_trial","6","visiting_cities_semantic","semantic_sequence","chronological","","","","","","",""
"","","","","","html-keyboard-response","29","176615","0.0-29.0","439BD1A2D0D44840B6FEFBF003D0E78A","019dac5e-f59f-7346-9b44-59a9af41fca4","019dac5b-243f-7307-af64-a10f53f1ef70","","null","
                <div class=""stimulus-container"">
                    <img src=""images/semantic_sequence/visiting_cities_semantic/visiting_cities_semantic_7.png"" class=""exp-image"">
                    <div class=""question-area""></div> 
                </div>","null","","","","","","","","","","","",""
"","","","","","html-button-response","30","177313","0.0-30.0","439BD1A2D0D44840B6FEFBF003D0E78A","019dac5e-f59f-7346-9b44-59a9af41fca4","019dac5b-243f-7307-af64-a10f53f1ef70","","697","
                <div class=""stimulus-container"">
                    <img src=""images/semantic_sequence/visiting_cities_semantic/visiting_cities_semantic_7.png"" class=""exp-image"">
                    <div class=""question-area"">
                        <p style=""font-size: 20px; font-weight: bold; margin: 0;"">Is there a person in this image?</p>
                    </div>
                </div>","0","main_experiment_trial","7","visiting_cities_semantic","semantic_sequence","chronological","","","","","","",""
"","","","","","html-keyboard-response","31","182324","0.0-31.0","439BD1A2D0D44840B6FEFBF003D0E78A","019dac5e-f59f-7346-9b44-59a9af41fca4","019dac5b-243f-7307-af64-a10f53f1ef70","","null","
                <div class=""stimulus-container"">
                    <img src=""images/semantic_sequence/visiting_cities_semantic/visiting_cities_semantic_8.png"" class=""exp-image"">
                    <div class=""question-area""></div> 
                </div>","null","","","","","","","","","","","",""
"","","","","","html-button-response","32","182947","0.0-32.0","439BD1A2D0D44840B6FEFBF003D0E78A","019dac5e-f59f-7346-9b44-59a9af41fca4","019dac5b-243f-7307-af64-a10f53f1ef70","","621","
                <div class=""stimulus-container"">
                    <img src=""images/semantic_sequence/visiting_cities_semantic/visiting_cities_semantic_8.png"" class=""exp-image"">
                    <div class=""question-area"">
                        <p style=""font-size: 20px; font-weight: bold; margin: 0;"">Is there a person in this image?</p>
                    </div>
                </div>","0","main_experiment_trial","8","visiting_cities_semantic","semantic_sequence","chronological","","","","","","",""
"","","","","","html-keyboard-response","33","187956","0.0-33.0","439BD1A2D0D44840B6FEFBF003D0E78A","019dac5e-f59f-7346-9b44-59a9af41fca4","019dac5b-243f-7307-af64-a10f53f1ef70","","null","
                <div class=""stimulus-container"">
                    <img src=""images/semantic_sequence/visiting_cities_semantic/visiting_cities_semantic_9.png"" class=""exp-image"">
                    <div class=""question-area""></div> 
                </div>","null","","","","","","","","","","","",""
"","","","","","html-button-response","34","188815","0.0-34.0","439BD1A2D0D44840B6FEFBF003D0E78A","019dac5e-f59f-7346-9b44-59a9af41fca4","019dac5b-243f-7307-af64-a10f53f1ef70","","858","
                <div class=""stimulus-container"">
                    <img src=""images/semantic_sequence/visiting_cities_semantic/visiting_cities_semantic_9.png"" class=""exp-image"">
                    <div class=""question-area"">
                        <p style=""font-size: 20px; font-weight: bold; margin: 0;"">Is there a person in this image?</p>
                    </div>
                </div>","0","main_experiment_trial","9","visiting_cities_semantic","semantic_sequence","chronological","","","","","","",""
"","","","","","html-keyboard-response","35","193821","0.0-35.0","439BD1A2D0D44840B6FEFBF003D0E78A","019dac5e-f59f-7346-9b44-59a9af41fca4","019dac5b-243f-7307-af64-a10f53f1ef70","","null","
                <div class=""stimulus-container"">
                    <img src=""images/semantic_sequence/visiting_cities_semantic/visiting_cities_semantic_ten.png"" class=""exp-image"">
                    <div class=""question-area""></div> 
                </div>","null","","","","","","","","","","","",""
"","","","","","html-button-response","36","194456","0.0-36.0","439BD1A2D0D44840B6FEFBF003D0E78A","019dac5e-f59f-7346-9b44-59a9af41fca4","019dac5b-243f-7307-af64-a10f53f1ef70","","633","
                <div class=""stimulus-container"">
                    <img src=""images/semantic_sequence/visiting_cities_semantic/visiting_cities_semantic_ten.png"" class=""exp-image"">
                    <div class=""question-area"">
                        <p style=""font-size: 20px; font-weight: bold; margin: 0;"">Is there a person in this image?</p>
                    </div>
                </div>","0","main_experiment_trial","ten","visiting_cities_semantic","semantic_sequence","chronological","","","","","","",""
"","","","","","html-keyboard-response","37","199466","0.0-37.0","439BD1A2D0D44840B6FEFBF003D0E78A","019dac5e-f59f-7346-9b44-59a9af41fca4","019dac5b-243f-7307-af64-a10f53f1ef70","","null","<div style=""background-color: white; width: 100vw; height: 100vh;""></div>","null","","","","","","","","","","","",""
"","","","","","html-keyboard-response","38","204467","0.0-38.0","439BD1A2D0D44840B6FEFBF003D0E78A","019dac5e-f59f-7346-9b44-59a9af41fca4","019dac5b-243f-7307-af64-a10f53f1ef70","","null","
                <div class=""stimulus-container"">
                    <img src=""images/causal_sequence/dog_causal/dog_causal_1.png"" class=""exp-image"">
                    <div class=""question-area""></div> 
                </div>","null","","","","","","","","","","","",""
"","","","","","html-button-response","39","205409","0.0-39.0","439BD1A2D0D44840B6FEFBF003D0E78A","019dac5e-f59f-7346-9b44-59a9af41fca4","019dac5b-243f-7307-af64-a10f53f1ef70","","941","
                <div class=""stimulus-container"">
                    <img src=""images/causal_sequence/dog_causal/dog_causal_1.png"" class=""exp-image"">
                    <div class=""question-area"">
                        <p style=""font-size: 20px; font-weight: bold; margin: 0;"">Is there a person in this image?</p>
                    </div>
                </div>","0","main_experiment_trial","1","dog_causal","causal_sequence","chronological","","","","","","",""
"","","","","","html-keyboard-response","40","210423","0.0-40.0","439BD1A2D0D44840B6FEFBF003D0E78A","019dac5e-f59f-7346-9b44-59a9af41fca4","019dac5b-243f-7307-af64-a10f53f1ef70","","null","
                <div class=""stimulus-container"">
                    <img src=""images/causal_sequence/dog_causal/dog_causal_2.png"" class=""exp-image"">
                    <div class=""question-area""></div> 
                </div>","null","","","","","","","","","","","",""
"","","","","","html-button-response","41","211183","0.0-41.0","439BD1A2D0D44840B6FEFBF003D0E78A","019dac5e-f59f-7346-9b44-59a9af41fca4","019dac5b-243f-7307-af64-a10f53f1ef70","","759","
                <div class=""stimulus-container"">
                    <img src=""images/causal_sequence/dog_causal/dog_causal_2.png"" class=""exp-image"">
                    <div class=""question-area"">
                        <p style=""font-size: 20px; font-weight: bold; margin: 0;"">Is there a person in this image?</p>
                    </div>
                </div>","0","main_experiment_trial","2","dog_causal","causal_sequence","chronological","","","","","","",""
"","","","","","html-keyboard-response","42","216199","0.0-42.0","439BD1A2D0D44840B6FEFBF003D0E78A","019dac5e-f59f-7346-9b44-59a9af41fca4","019dac5b-243f-7307-af64-a10f53f1ef70","","null","
                <div class=""stimulus-container"">
                    <img src=""images/causal_sequence/dog_causal/dog_causal_3.png"" class=""exp-image"">
                    <div class=""question-area""></div> 
                </div>","null","","","","","","","","","","","",""
"","","","","","html-button-response","43","216991","0.0-43.0","439BD1A2D0D44840B6FEFBF003D0E78A","019dac5e-f59f-7346-9b44-59a9af41fca4","019dac5b-243f-7307-af64-a10f53f1ef70","","790","
                <div class=""stimulus-container"">
                    <img src=""images/causal_sequence/dog_causal/dog_causal_3.png"" class=""exp-image"">
                    <div class=""question-area"">
                        <p style=""font-size: 20px; font-weight: bold; margin: 0;"">Is there a person in this image?</p>
                    </div>
                </div>","0","main_experiment_trial","3","dog_causal","causal_sequence","chronological","","","","","","",""
"","","","","","html-keyboard-response","44","222000","0.0-44.0","439BD1A2D0D44840B6FEFBF003D0E78A","019dac5e-f59f-7346-9b44-59a9af41fca4","019dac5b-243f-7307-af64-a10f53f1ef70","","null","
                <div class=""stimulus-container"">
                    <img src=""images/causal_sequence/dog_causal/dog_causal_4.png"" class=""exp-image"">
                    <div class=""question-area""></div> 
                </div>","null","","","","","","","","","","","",""
"","","","","","html-button-response","45","222413","0.0-45.0","439BD1A2D0D44840B6FEFBF003D0E78A","019dac5e-f59f-7346-9b44-59a9af41fca4","019dac5b-243f-7307-af64-a10f53f1ef70","","413","
                <div class=""stimulus-container"">
                    <img src=""images/causal_sequence/dog_causal/dog_causal_4.png"" class=""exp-image"">
                    <div class=""question-area"">
                        <p style=""font-size: 20px; font-weight: bold; margin: 0;"">Is there a person in this image?</p>
                    </div>
                </div>","0","main_experiment_trial","4","dog_causal","causal_sequence","chronological","","","","","","",""
"","","","","","html-keyboard-response","46","227416","0.0-46.0","439BD1A2D0D44840B6FEFBF003D0E78A","019dac5e-f59f-7346-9b44-59a9af41fca4","019dac5b-243f-7307-af64-a10f53f1ef70","","null","
                <div class=""stimulus-container"">
                    <img src=""images/causal_sequence/dog_causal/dog_causal_5.png"" class=""exp-image"">
                    <div class=""question-area""></div> 
                </div>","null","","","","","","","","","","","",""
"","","","","","html-button-response","47","228509","0.0-47.0","439BD1A2D0D44840B6FEFBF003D0E78A","019dac5e-f59f-7346-9b44-59a9af41fca4","019dac5b-243f-7307-af64-a10f53f1ef70","","1092","
                <div class=""stimulus-container"">
                    <img src=""images/causal_sequence/dog_causal/dog_causal_5.png"" class=""exp-image"">
                    <div class=""question-area"">
                        <p style=""font-size: 20px; font-weight: bold; margin: 0;"">Is there a person in this image?</p>
                    </div>
                </div>","0","main_experiment_trial","5","dog_causal","causal_sequence","chronological","","","","","","",""
"","","","","","html-keyboard-response","48","233517","0.0-48.0","439BD1A2D0D44840B6FEFBF003D0E78A","019dac5e-f59f-7346-9b44-59a9af41fca4","019dac5b-243f-7307-af64-a10f53f1ef70","","null","
                <div class=""stimulus-container"">
                    <img src=""images/causal_sequence/dog_causal/dog_causal_6.png"" class=""exp-image"">
                    <div class=""question-area""></div> 
                </div>","null","","","","","","","","","","","",""
"","","","","","html-button-response","49","234349","0.0-49.0","439BD1A2D0D44840B6FEFBF003D0E78A","019dac5e-f59f-7346-9b44-59a9af41fca4","019dac5b-243f-7307-af64-a10f53f1ef70","","831","
                <div class=""stimulus-container"">
                    <img src=""images/causal_sequence/dog_causal/dog_causal_6.png"" class=""exp-image"">
                    <div class=""question-area"">
                        <p style=""font-size: 20px; font-weight: bold; margin: 0;"">Is there a person in this image?</p>
                    </div>
                </div>","0","main_experiment_trial","6","dog_causal","causal_sequence","chronological","","","","","","",""
"","","","","","html-keyboard-response","50","239362","0.0-50.0","439BD1A2D0D44840B6FEFBF003D0E78A","019dac5e-f59f-7346-9b44-59a9af41fca4","019dac5b-243f-7307-af64-a10f53f1ef70","","null","
                <div class=""stimulus-container"">
                    <img src=""images/causal_sequence/dog_causal/dog_causal_7.png"" class=""exp-image"">
                    <div class=""question-area""></div> 
                </div>","null","","","","","","","","","","","",""
"","","","","","html-button-response","51","241996","0.0-51.0","439BD1A2D0D44840B6FEFBF003D0E78A","019dac5e-f59f-7346-9b44-59a9af41fca4","019dac5b-243f-7307-af64-a10f53f1ef70","","2632","
                <div class=""stimulus-container"">
                    <img src=""images/causal_sequence/dog_causal/dog_causal_7.png"" class=""exp-image"">
                    <div class=""question-area"">
                        <p style=""font-size: 20px; font-weight: bold; margin: 0;"">Is there a person in this image?</p>
                    </div>
                </div>","0","main_experiment_trial","7","dog_causal","causal_sequence","chronological","","","","","","",""
"","","","","","html-keyboard-response","52","247011","0.0-52.0","439BD1A2D0D44840B6FEFBF003D0E78A","019dac5e-f59f-7346-9b44-59a9af41fca4","019dac5b-243f-7307-af64-a10f53f1ef70","","null","
                <div class=""stimulus-container"">
                    <img src=""images/causal_sequence/dog_causal/dog_causal_8.png"" class=""exp-image"">
                    <div class=""question-area""></div> 
                </div>","null","","","","","","","","","","","",""
"","","","","","html-button-response","53","247837","0.0-53.0","439BD1A2D0D44840B6FEFBF003D0E78A","019dac5e-f59f-7346-9b44-59a9af41fca4","019dac5b-243f-7307-af64-a10f53f1ef70","","826","
                <div class=""stimulus-container"">
                    <img src=""images/causal_sequence/dog_causal/dog_causal_8.png"" class=""exp-image"">
                    <div class=""question-area"">
                        <p style=""font-size: 20px; font-weight: bold; margin: 0;"">Is there a person in this image?</p>
                    </div>
                </div>","0","main_experiment_trial","8","dog_causal","causal_sequence","chronological","","","","","","",""
"","","","","","html-keyboard-response","54","252839","0.0-54.0","439BD1A2D0D44840B6FEFBF003D0E78A","019dac5e-f59f-7346-9b44-59a9af41fca4","019dac5b-243f-7307-af64-a10f53f1ef70","","null","
                <div class=""stimulus-container"">
                    <img src=""images/causal_sequence/dog_causal/dog_causal_9.png"" class=""exp-image"">
                    <div class=""question-area""></div> 
                </div>","null","","","","","","","","","","","",""
"","","","","","html-button-response","55","253422","0.0-55.0","439BD1A2D0D44840B6FEFBF003D0E78A","019dac5e-f59f-7346-9b44-59a9af41fca4","019dac5b-243f-7307-af64-a10f53f1ef70","","582","
                <div class=""stimulus-container"">
                    <img src=""images/causal_sequence/dog_causal/dog_causal_9.png"" class=""exp-image"">
                    <div class=""question-area"">
                        <p style=""font-size: 20px; font-weight: bold; margin: 0;"">Is there a person in this image?</p>
                    </div>
                </div>","0","main_experiment_trial","9","dog_causal","causal_sequence","chronological","","","","","","",""
"","","","","","html-keyboard-response","56","258437","0.0-56.0","439BD1A2D0D44840B6FEFBF003D0E78A","019dac5e-f59f-7346-9b44-59a9af41fca4","019dac5b-243f-7307-af64-a10f53f1ef70","","null","
                <div class=""stimulus-container"">
                    <img src=""images/causal_sequence/dog_causal/dog_causal_ten.png"" class=""exp-image"">
                    <div class=""question-area""></div> 
                </div>","null","","","","","","","","","","","",""
"","","","","","html-button-response","57","259018","0.0-57.0","439BD1A2D0D44840B6FEFBF003D0E78A","019dac5e-f59f-7346-9b44-59a9af41fca4","019dac5b-243f-7307-af64-a10f53f1ef70","","580","
                <div class=""stimulus-container"">
                    <img src=""images/causal_sequence/dog_causal/dog_causal_ten.png"" class=""exp-image"">
                    <div class=""question-area"">
                        <p style=""font-size: 20px; font-weight: bold; margin: 0;"">Is there a person in this image?</p>
                    </div>
                </div>","0","main_experiment_trial","ten","dog_causal","causal_sequence","chronological","","","","","","",""
"","","","","","html-keyboard-response","58","264031","0.0-58.0","439BD1A2D0D44840B6FEFBF003D0E78A","019dac5e-f59f-7346-9b44-59a9af41fca4","019dac5b-243f-7307-af64-a10f53f1ef70","","null","<div style=""background-color: white; width: 100vw; height: 100vh;""></div>","null","","","","","","","","","","","",""
"","","","","","html-keyboard-response","59","269039","0.0-59.0","439BD1A2D0D44840B6FEFBF003D0E78A","019dac5e-f59f-7346-9b44-59a9af41fca4","019dac5b-243f-7307-af64-a10f53f1ef70","","null","
                <div class=""stimulus-container"">
                    <img src=""images/semantic_sequence/self_care_activities_semantic/self_care_activities_semantic_1.png"" class=""exp-image"">
                    <div class=""question-area""></div> 
                </div>","null","","","","","","","","","","","",""
"","","","","","html-button-response","60","269674","0.0-60.0","439BD1A2D0D44840B6FEFBF003D0E78A","019dac5e-f59f-7346-9b44-59a9af41fca4","019dac5b-243f-7307-af64-a10f53f1ef70","","634","
                <div class=""stimulus-container"">
                    <img src=""images/semantic_sequence/self_care_activities_semantic/self_care_activities_semantic_1.png"" class=""exp-image"">
                    <div class=""question-area"">
                        <p style=""font-size: 20px; font-weight: bold; margin: 0;"">Is there a person in this image?</p>
                    </div>
                </div>","0","main_experiment_trial","1","self_care_activities_semantic","semantic_sequence","chronological","","","","","","",""
"","","","","","html-keyboard-response","61","274689","0.0-61.0","439BD1A2D0D44840B6FEFBF003D0E78A","019dac5e-f59f-7346-9b44-59a9af41fca4","019dac5b-243f-7307-af64-a10f53f1ef70","","null","
                <div class=""stimulus-container"">
                    <img src=""images/semantic_sequence/self_care_activities_semantic/self_care_activities_semantic_2.png"" class=""exp-image"">
                    <div class=""question-area""></div> 
                </div>","null","","","","","","","","","","","",""
"","","","","","html-button-response","62","275633","0.0-62.0","439BD1A2D0D44840B6FEFBF003D0E78A","019dac5e-f59f-7346-9b44-59a9af41fca4","019dac5b-243f-7307-af64-a10f53f1ef70","","943","
                <div class=""stimulus-container"">
                    <img src=""images/semantic_sequence/self_care_activities_semantic/self_care_activities_semantic_2.png"" class=""exp-image"">
                    <div class=""question-area"">
                        <p style=""font-size: 20px; font-weight: bold; margin: 0;"">Is there a person in this image?</p>
                    </div>
                </div>","0","main_experiment_trial","2","self_care_activities_semantic","semantic_sequence","chronological","","","","","","",""
"","","","","","html-keyboard-response","63","280646","0.0-63.0","439BD1A2D0D44840B6FEFBF003D0E78A","019dac5e-f59f-7346-9b44-59a9af41fca4","019dac5b-243f-7307-af64-a10f53f1ef70","","null","
                <div class=""stimulus-container"">
                    <img src=""images/semantic_sequence/self_care_activities_semantic/self_care_activities_semantic_3.png"" class=""exp-image"">
                    <div class=""question-area""></div> 
                </div>","null","","","","","","","","","","","",""
"","","","","","html-button-response","64","281260","0.0-64.0","439BD1A2D0D44840B6FEFBF003D0E78A","019dac5e-f59f-7346-9b44-59a9af41fca4","019dac5b-243f-7307-af64-a10f53f1ef70","","612","
                <div class=""stimulus-container"">
                    <img src=""images/semantic_sequence/self_care_activities_semantic/self_care_activities_semantic_3.png"" class=""exp-image"">
                    <div class=""question-area"">
                        <p style=""font-size: 20px; font-weight: bold; margin: 0;"">Is there a person in this image?</p>
                    </div>
                </div>","0","main_experiment_trial","3","self_care_activities_semantic","semantic_sequence","chronological","","","","","","",""
"","","","","","html-keyboard-response","65","286267","0.0-65.0","439BD1A2D0D44840B6FEFBF003D0E78A","019dac5e-f59f-7346-9b44-59a9af41fca4","019dac5b-243f-7307-af64-a10f53f1ef70","","null","
                <div class=""stimulus-container"">
                    <img src=""images/semantic_sequence/self_care_activities_semantic/self_care_activities_semantic_4.png"" class=""exp-image"">
                    <div class=""question-area""></div> 
                </div>","null","","","","","","","","","","","",""
"","","","","","html-button-response","66","286800","0.0-66.0","439BD1A2D0D44840B6FEFBF003D0E78A","019dac5e-f59f-7346-9b44-59a9af41fca4","019dac5b-243f-7307-af64-a10f53f1ef70","","532","
                <div class=""stimulus-container"">
                    <img src=""images/semantic_sequence/self_care_activities_semantic/self_care_activities_semantic_4.png"" class=""exp-image"">
                    <div class=""question-area"">
                        <p style=""font-size: 20px; font-weight: bold; margin: 0;"">Is there a person in this image?</p>
                    </div>
                </div>","0","main_experiment_trial","4","self_care_activities_semantic","semantic_sequence","chronological","","","","","","",""
"","","","","","html-keyboard-response","67","291812","0.0-67.0","439BD1A2D0D44840B6FEFBF003D0E78A","019dac5e-f59f-7346-9b44-59a9af41fca4","019dac5b-243f-7307-af64-a10f53f1ef70","","null","
                <div class=""stimulus-container"">
                    <img src=""images/semantic_sequence/self_care_activities_semantic/self_care_activities_semantic_5.png"" class=""exp-image"">
                    <div class=""question-area""></div> 
                </div>","null","","","","","","","","","","","",""
"","","","","","html-button-response","68","292368","0.0-68.0","439BD1A2D0D44840B6FEFBF003D0E78A","019dac5e-f59f-7346-9b44-59a9af41fca4","019dac5b-243f-7307-af64-a10f53f1ef70","","554","
                <div class=""stimulus-container"">
                    <img src=""images/semantic_sequence/self_care_activities_semantic/self_care_activities_semantic_5.png"" class=""exp-image"">
                    <div class=""question-area"">
                        <p style=""font-size: 20px; font-weight: bold; margin: 0;"">Is there a person in this image?</p>
                    </div>
                </div>","0","main_experiment_trial","5","self_care_activities_semantic","semantic_sequence","chronological","","","","","","",""
"","","","","","html-keyboard-response","69","297377","0.0-69.0","439BD1A2D0D44840B6FEFBF003D0E78A","019dac5e-f59f-7346-9b44-59a9af41fca4","019dac5b-243f-7307-af64-a10f53f1ef70","","null","
                <div class=""stimulus-container"">
                    <img src=""images/semantic_sequence/self_care_activities_semantic/self_care_activities_semantic_6.png"" class=""exp-image"">
                    <div class=""question-area""></div> 
                </div>","null","","","","","","","","","","","",""
"","","","","","html-button-response","70","298122","0.0-70.0","439BD1A2D0D44840B6FEFBF003D0E78A","019dac5e-f59f-7346-9b44-59a9af41fca4","019dac5b-243f-7307-af64-a10f53f1ef70","","744","
                <div class=""stimulus-container"">
                    <img src=""images/semantic_sequence/self_care_activities_semantic/self_care_activities_semantic_6.png"" class=""exp-image"">
                    <div class=""question-area"">
                        <p style=""font-size: 20px; font-weight: bold; margin: 0;"">Is there a person in this image?</p>
                    </div>
                </div>","1","main_experiment_trial","6","self_care_activities_semantic","semantic_sequence","chronological","","","","","","",""
"","","","","","html-keyboard-response","71","303134","0.0-71.0","439BD1A2D0D44840B6FEFBF003D0E78A","019dac5e-f59f-7346-9b44-59a9af41fca4","019dac5b-243f-7307-af64-a10f53f1ef70","","null","
                <div class=""stimulus-container"">
                    <img src=""images/semantic_sequence/self_care_activities_semantic/self_care_activities_semantic_7.png"" class=""exp-image"">
                    <div class=""question-area""></div> 
                </div>","null","","","","","","","","","","","",""
"","","","","","html-button-response","72","303793","0.0-72.0","439BD1A2D0D44840B6FEFBF003D0E78A","019dac5e-f59f-7346-9b44-59a9af41fca4","019dac5b-243f-7307-af64-a10f53f1ef70","","658","
                <div class=""stimulus-container"">
                    <img src=""images/semantic_sequence/self_care_activities_semantic/self_care_activities_semantic_7.png"" class=""exp-image"">
                    <div class=""question-area"">
                        <p style=""font-size: 20px; font-weight: bold; margin: 0;"">Is there a person in this image?</p>
                    </div>
                </div>","0","main_experiment_trial","7","self_care_activities_semantic","semantic_sequence","chronological","","","","","","",""
"","","","","","html-keyboard-response","73","308794","0.0-73.0","439BD1A2D0D44840B6FEFBF003D0E78A","019dac5e-f59f-7346-9b44-59a9af41fca4","019dac5b-243f-7307-af64-a10f53f1ef70","","null","
                <div class=""stimulus-container"">
                    <img src=""images/semantic_sequence/self_care_activities_semantic/self_care_activities_semantic_8.png"" class=""exp-image"">
                    <div class=""question-area""></div> 
                </div>","null","","","","","","","","","","","",""
"","","","","","html-button-response","74","309490","0.0-74.0","439BD1A2D0D44840B6FEFBF003D0E78A","019dac5e-f59f-7346-9b44-59a9af41fca4","019dac5b-243f-7307-af64-a10f53f1ef70","","695","
                <div class=""stimulus-container"">
                    <img src=""images/semantic_sequence/self_care_activities_semantic/self_care_activities_semantic_8.png"" class=""exp-image"">
                    <div class=""question-area"">
                        <p style=""font-size: 20px; font-weight: bold; margin: 0;"">Is there a person in this image?</p>
                    </div>
                </div>","0","main_experiment_trial","8","self_care_activities_semantic","semantic_sequence","chronological","","","","","","",""
"","","","","","html-keyboard-response","75","314502","0.0-75.0","439BD1A2D0D44840B6FEFBF003D0E78A","019dac5e-f59f-7346-9b44-59a9af41fca4","019dac5b-243f-7307-af64-a10f53f1ef70","","null","
                <div class=""stimulus-container"">
                    <img src=""images/semantic_sequence/self_care_activities_semantic/self_care_activities_semantic_9.png"" class=""exp-image"">
                    <div class=""question-area""></div> 
                </div>","null","","","","","","","","","","","",""
"","","","","","html-button-response","76","315078","0.0-76.0","439BD1A2D0D44840B6FEFBF003D0E78A","019dac5e-f59f-7346-9b44-59a9af41fca4","019dac5b-243f-7307-af64-a10f53f1ef70","","574","
                <div class=""stimulus-container"">
                    <img src=""images/semantic_sequence/self_care_activities_semantic/self_care_activities_semantic_9.png"" class=""exp-image"">
                    <div class=""question-area"">
                        <p style=""font-size: 20px; font-weight: bold; margin: 0;"">Is there a person in this image?</p>
                    </div>
                </div>","0","main_experiment_trial","9","self_care_activities_semantic","semantic_sequence","chronological","","","","","","",""
"","","","","","html-keyboard-response","77","320086","0.0-77.0","439BD1A2D0D44840B6FEFBF003D0E78A","019dac5e-f59f-7346-9b44-59a9af41fca4","019dac5b-243f-7307-af64-a10f53f1ef70","","null","
                <div class=""stimulus-container"">
                    <img src=""images/semantic_sequence/self_care_activities_semantic/self_care_activities_semantic_ten.png"" class=""exp-image"">
                    <div class=""question-area""></div> 
                </div>","null","","","","","","","","","","","",""
"","","","","","html-button-response","78","320590","0.0-78.0","439BD1A2D0D44840B6FEFBF003D0E78A","019dac5e-f59f-7346-9b44-59a9af41fca4","019dac5b-243f-7307-af64-a10f53f1ef70","","503","
                <div class=""stimulus-container"">
                    <img src=""images/semantic_sequence/self_care_activities_semantic/self_care_activities_semantic_ten.png"" class=""exp-image"">
                    <div class=""question-area"">
                        <p style=""font-size: 20px; font-weight: bold; margin: 0;"">Is there a person in this image?</p>
                    </div>
                </div>","0","main_experiment_trial","ten","self_care_activities_semantic","semantic_sequence","chronological","","","","","","",""
"","","","","","html-keyboard-response","79","325606","0.0-79.0","439BD1A2D0D44840B6FEFBF003D0E78A","019dac5e-f59f-7346-9b44-59a9af41fca4","019dac5b-243f-7307-af64-a10f53f1ef70","","null","<div style=""background-color: white; width: 100vw; height: 100vh;""></div>","null","","","","","","","","","","","",""
"","","","","","html-keyboard-response","80","330610","0.0-80.0","439BD1A2D0D44840B6FEFBF003D0E78A","019dac5e-f59f-7346-9b44-59a9af41fca4","019dac5b-243f-7307-af64-a10f53f1ef70","","null","
                <div class=""stimulus-container"">
                    <img src=""images/causal_sequence/package_causal/package_causal_1.png"" class=""exp-image"">
                    <div class=""question-area""></div> 
                </div>","null","","","","","","","","","","","",""
"","","","","","html-button-response","81","331094","0.0-81.0","439BD1A2D0D44840B6FEFBF003D0E78A","019dac5e-f59f-7346-9b44-59a9af41fca4","019dac5b-243f-7307-af64-a10f53f1ef70","","483","
                <div class=""stimulus-container"">
                    <img src=""images/causal_sequence/package_causal/package_causal_1.png"" class=""exp-image"">
                    <div class=""question-area"">
                        <p style=""font-size: 20px; font-weight: bold; margin: 0;"">Is there a person in this image?</p>
                    </div>
                </div>","0","main_experiment_trial","1","package_causal","causal_sequence","chronological","","","","","","",""
"","","","","","html-keyboard-response","82","336101","0.0-82.0","439BD1A2D0D44840B6FEFBF003D0E78A","019dac5e-f59f-7346-9b44-59a9af41fca4","019dac5b-243f-7307-af64-a10f53f1ef70","","null","
                <div class=""stimulus-container"">
                    <img src=""images/causal_sequence/package_causal/package_causal_2.png"" class=""exp-image"">
                    <div class=""question-area""></div> 
                </div>","null","","","","","","","","","","","",""
"","","","","","html-button-response","83","336709","0.0-83.0","439BD1A2D0D44840B6FEFBF003D0E78A","019dac5e-f59f-7346-9b44-59a9af41fca4","019dac5b-243f-7307-af64-a10f53f1ef70","","608","
                <div class=""stimulus-container"">
                    <img src=""images/causal_sequence/package_causal/package_causal_2.png"" class=""exp-image"">
                    <div class=""question-area"">
                        <p style=""font-size: 20px; font-weight: bold; margin: 0;"">Is there a person in this image?</p>
                    </div>
                </div>","0","main_experiment_trial","2","package_causal","causal_sequence","chronological","","","","","","",""
"","","","","","html-keyboard-response","84","341712","0.0-84.0","439BD1A2D0D44840B6FEFBF003D0E78A","019dac5e-f59f-7346-9b44-59a9af41fca4","019dac5b-243f-7307-af64-a10f53f1ef70","","null","
                <div class=""stimulus-container"">
                    <img src=""images/causal_sequence/package_causal/package_causal_3.png"" class=""exp-image"">
                    <div class=""question-area""></div> 
                </div>","null","","","","","","","","","","","",""
"","","","","","html-button-response","85","342333","0.0-85.0","439BD1A2D0D44840B6FEFBF003D0E78A","019dac5e-f59f-7346-9b44-59a9af41fca4","019dac5b-243f-7307-af64-a10f53f1ef70","","620","
                <div class=""stimulus-container"">
                    <img src=""images/causal_sequence/package_causal/package_causal_3.png"" class=""exp-image"">
                    <div class=""question-area"">
                        <p style=""font-size: 20px; font-weight: bold; margin: 0;"">Is there a person in this image?</p>
                    </div>
                </div>","0","main_experiment_trial","3","package_causal","causal_sequence","chronological","","","","","","",""
"","","","","","html-keyboard-response","86","347348","0.0-86.0","439BD1A2D0D44840B6FEFBF003D0E78A","019dac5e-f59f-7346-9b44-59a9af41fca4","019dac5b-243f-7307-af64-a10f53f1ef70","","null","
                <div class=""stimulus-container"">
                    <img src=""images/causal_sequence/package_causal/package_causal_4.png"" class=""exp-image"">
                    <div class=""question-area""></div> 
                </div>","null","","","","","","","","","","","",""
"","","","","","html-button-response","87","348212","0.0-87.0","439BD1A2D0D44840B6FEFBF003D0E78A","019dac5e-f59f-7346-9b44-59a9af41fca4","019dac5b-243f-7307-af64-a10f53f1ef70","","863","
                <div class=""stimulus-container"">
                    <img src=""images/causal_sequence/package_causal/package_causal_4.png"" class=""exp-image"">
                    <div class=""question-area"">
                        <p style=""font-size: 20px; font-weight: bold; margin: 0;"">Is there a person in this image?</p>
                    </div>
                </div>","1","main_experiment_trial","4","package_causal","causal_sequence","chronological","","","","","","",""
"","","","","","html-keyboard-response","88","353220","0.0-88.0","439BD1A2D0D44840B6FEFBF003D0E78A","019dac5e-f59f-7346-9b44-59a9af41fca4","019dac5b-243f-7307-af64-a10f53f1ef70","","null","
                <div class=""stimulus-container"">
                    <img src=""images/causal_sequence/package_causal/package_causal_5.png"" class=""exp-image"">
                    <div class=""question-area""></div> 
                </div>","null","","","","","","","","","","","",""
"","","","","","html-button-response","89","354627","0.0-89.0","439BD1A2D0D44840B6FEFBF003D0E78A","019dac5e-f59f-7346-9b44-59a9af41fca4","019dac5b-243f-7307-af64-a10f53f1ef70","","1406","
                <div class=""stimulus-container"">
                    <img src=""images/causal_sequence/package_causal/package_causal_5.png"" class=""exp-image"">
                    <div class=""question-area"">
                        <p style=""font-size: 20px; font-weight: bold; margin: 0;"">Is there a person in this image?</p>
                    </div>
                </div>","0","main_experiment_trial","5","package_causal","causal_sequence","chronological","","","","","","",""
"","","","","","html-keyboard-response","90","359643","0.0-90.0","439BD1A2D0D44840B6FEFBF003D0E78A","019dac5e-f59f-7346-9b44-59a9af41fca4","019dac5b-243f-7307-af64-a10f53f1ef70","","null","
                <div class=""stimulus-container"">
                    <img src=""images/causal_sequence/package_causal/package_causal_6.png"" class=""exp-image"">
                    <div class=""question-area""></div> 
                </div>","null","","","","","","","","","","","",""
"","","","","","html-button-response","91","360953","0.0-91.0","439BD1A2D0D44840B6FEFBF003D0E78A","019dac5e-f59f-7346-9b44-59a9af41fca4","019dac5b-243f-7307-af64-a10f53f1ef70","","1309","
                <div class=""stimulus-container"">
                    <img src=""images/causal_sequence/package_causal/package_causal_6.png"" class=""exp-image"">
                    <div class=""question-area"">
                        <p style=""font-size: 20px; font-weight: bold; margin: 0;"">Is there a person in this image?</p>
                    </div>
                </div>","0","main_experiment_trial","6","package_causal","causal_sequence","chronological","","","","","","",""
"","","","","","html-keyboard-response","92","365958","0.0-92.0","439BD1A2D0D44840B6FEFBF003D0E78A","019dac5e-f59f-7346-9b44-59a9af41fca4","019dac5b-243f-7307-af64-a10f53f1ef70","","null","
                <div class=""stimulus-container"">
                    <img src=""images/causal_sequence/package_causal/package_causal_7.png"" class=""exp-image"">
                    <div class=""question-area""></div> 
                </div>","null","","","","","","","","","","","",""
"","","","","","html-button-response","93","367282","0.0-93.0","439BD1A2D0D44840B6FEFBF003D0E78A","019dac5e-f59f-7346-9b44-59a9af41fca4","019dac5b-243f-7307-af64-a10f53f1ef70","","1323","
                <div class=""stimulus-container"">
                    <img src=""images/causal_sequence/package_causal/package_causal_7.png"" class=""exp-image"">
                    <div class=""question-area"">
                        <p style=""font-size: 20px; font-weight: bold; margin: 0;"">Is there a person in this image?</p>
                    </div>
                </div>","0","main_experiment_trial","7","package_causal","causal_sequence","chronological","","","","","","",""
"","","","","","html-keyboard-response","94","372288","0.0-94.0","439BD1A2D0D44840B6FEFBF003D0E78A","019dac5e-f59f-7346-9b44-59a9af41fca4","019dac5b-243f-7307-af64-a10f53f1ef70","","null","
                <div class=""stimulus-container"">
                    <img src=""images/causal_sequence/package_causal/package_causal_8.png"" class=""exp-image"">
                    <div class=""question-area""></div> 
                </div>","null","","","","","","","","","","","",""
"","","","","","html-button-response","95","373093","0.0-95.0","439BD1A2D0D44840B6FEFBF003D0E78A","019dac5e-f59f-7346-9b44-59a9af41fca4","019dac5b-243f-7307-af64-a10f53f1ef70","","804","
                <div class=""stimulus-container"">
                    <img src=""images/causal_sequence/package_causal/package_causal_8.png"" class=""exp-image"">
                    <div class=""question-area"">
                        <p style=""font-size: 20px; font-weight: bold; margin: 0;"">Is there a person in this image?</p>
                    </div>
                </div>","0","main_experiment_trial","8","package_causal","causal_sequence","chronological","","","","","","",""
"","","","","","html-keyboard-response","96","378105","0.0-96.0","439BD1A2D0D44840B6FEFBF003D0E78A","019dac5e-f59f-7346-9b44-59a9af41fca4","019dac5b-243f-7307-af64-a10f53f1ef70","","null","
                <div class=""stimulus-container"">
                    <img src=""images/causal_sequence/package_causal/package_causal_9.png"" class=""exp-image"">
                    <div class=""question-area""></div> 
                </div>","null","","","","","","","","","","","",""
"","","","","","html-button-response","97","378766","0.0-97.0","439BD1A2D0D44840B6FEFBF003D0E78A","019dac5e-f59f-7346-9b44-59a9af41fca4","019dac5b-243f-7307-af64-a10f53f1ef70","","659","
                <div class=""stimulus-container"">
                    <img src=""images/causal_sequence/package_causal/package_causal_9.png"" class=""exp-image"">
                    <div class=""question-area"">
                        <p style=""font-size: 20px; font-weight: bold; margin: 0;"">Is there a person in this image?</p>
                    </div>
                </div>","0","main_experiment_trial","9","package_causal","causal_sequence","chronological","","","","","","",""
"","","","","","html-keyboard-response","98","383779","0.0-98.0","439BD1A2D0D44840B6FEFBF003D0E78A","019dac5e-f59f-7346-9b44-59a9af41fca4","019dac5b-243f-7307-af64-a10f53f1ef70","","null","
                <div class=""stimulus-container"">
                    <img src=""images/causal_sequence/package_causal/package_causal_ten.png"" class=""exp-image"">
                    <div class=""question-area""></div> 
                </div>","null","","","","","","","","","","","",""
"","","","","","html-button-response","99","384274","0.0-99.0","439BD1A2D0D44840B6FEFBF003D0E78A","019dac5e-f59f-7346-9b44-59a9af41fca4","019dac5b-243f-7307-af64-a10f53f1ef70","","493","
                <div class=""stimulus-container"">
                    <img src=""images/causal_sequence/package_causal/package_causal_ten.png"" class=""exp-image"">
                    <div class=""question-area"">
                        <p style=""font-size: 20px; font-weight: bold; margin: 0;"">Is there a person in this image?</p>
                    </div>
                </div>","0","main_experiment_trial","ten","package_causal","causal_sequence","chronological","","","","","","",""
"","","","","","html-keyboard-response","100","389277","0.0-100.0","439BD1A2D0D44840B6FEFBF003D0E78A","019dac5e-f59f-7346-9b44-59a9af41fca4","019dac5b-243f-7307-af64-a10f53f1ef70","","null","<div style=""background-color: white; width: 100vw; height: 100vh;""></div>","null","","","","","","","","","","","",""
"","","","","","html-keyboard-response","101","394283","0.0-101.0","439BD1A2D0D44840B6FEFBF003D0E78A","019dac5e-f59f-7346-9b44-59a9af41fca4","019dac5b-243f-7307-af64-a10f53f1ef70","","null","
                <div class=""stimulus-container"">
                    <img src=""images/causal_sequence/museum_causal/museum_causal_1.png"" class=""exp-image"">
                    <div class=""question-area""></div> 
                </div>","null","","","","","","","","","","","",""
"","","","","","html-button-response","102","395193","0.0-102.0","439BD1A2D0D44840B6FEFBF003D0E78A","019dac5e-f59f-7346-9b44-59a9af41fca4","019dac5b-243f-7307-af64-a10f53f1ef70","","908","
                <div class=""stimulus-container"">
                    <img src=""images/causal_sequence/museum_causal/museum_causal_1.png"" class=""exp-image"">
                    <div class=""question-area"">
                        <p style=""font-size: 20px; font-weight: bold; margin: 0;"">Is there a person in this image?</p>
                    </div>
                </div>","0","main_experiment_trial","1","museum_causal","causal_sequence","chronological","","","","","","",""
"","","","","","html-keyboard-response","103","400195","0.0-103.0","439BD1A2D0D44840B6FEFBF003D0E78A","019dac5e-f59f-7346-9b44-59a9af41fca4","019dac5b-243f-7307-af64-a10f53f1ef70","","null","
                <div class=""stimulus-container"">
                    <img src=""images/causal_sequence/museum_causal/museum_causal_2.png"" class=""exp-image"">
                    <div class=""question-area""></div> 
                </div>","null","","","","","","","","","","","",""
"","","","","","html-button-response","104","400897","0.0-104.0","439BD1A2D0D44840B6FEFBF003D0E78A","019dac5e-f59f-7346-9b44-59a9af41fca4","019dac5b-243f-7307-af64-a10f53f1ef70","","701","
                <div class=""stimulus-container"">
                    <img src=""images/causal_sequence/museum_causal/museum_causal_2.png"" class=""exp-image"">
                    <div class=""question-area"">
                        <p style=""font-size: 20px; font-weight: bold; margin: 0;"">Is there a person in this image?</p>
                    </div>
                </div>","0","main_experiment_trial","2","museum_causal","causal_sequence","chronological","","","","","","",""
"","","","","","html-keyboard-response","105","405901","0.0-105.0","439BD1A2D0D44840B6FEFBF003D0E78A","019dac5e-f59f-7346-9b44-59a9af41fca4","019dac5b-243f-7307-af64-a10f53f1ef70","","null","
                <div class=""stimulus-container"">
                    <img src=""images/causal_sequence/museum_causal/museum_causal_3.png"" class=""exp-image"">
                    <div class=""question-area""></div> 
                </div>","null","","","","","","","","","","","",""
"","","","","","html-button-response","106","406486","0.0-106.0","439BD1A2D0D44840B6FEFBF003D0E78A","019dac5e-f59f-7346-9b44-59a9af41fca4","019dac5b-243f-7307-af64-a10f53f1ef70","","584","
                <div class=""stimulus-container"">
                    <img src=""images/causal_sequence/museum_causal/museum_causal_3.png"" class=""exp-image"">
                    <div class=""question-area"">
                        <p style=""font-size: 20px; font-weight: bold; margin: 0;"">Is there a person in this image?</p>
                    </div>
                </div>","0","main_experiment_trial","3","museum_causal","causal_sequence","chronological","","","","","","",""
"","","","","","html-keyboard-response","107","411491","0.0-107.0","439BD1A2D0D44840B6FEFBF003D0E78A","019dac5e-f59f-7346-9b44-59a9af41fca4","019dac5b-243f-7307-af64-a10f53f1ef70","","null","
                <div class=""stimulus-container"">
                    <img src=""images/causal_sequence/museum_causal/museum_causal_4.png"" class=""exp-image"">
                    <div class=""question-area""></div> 
                </div>","null","","","","","","","","","","","",""
"","","","","","html-button-response","108","412499","0.0-108.0","439BD1A2D0D44840B6FEFBF003D0E78A","019dac5e-f59f-7346-9b44-59a9af41fca4","019dac5b-243f-7307-af64-a10f53f1ef70","","1006","
                <div class=""stimulus-container"">
                    <img src=""images/causal_sequence/museum_causal/museum_causal_4.png"" class=""exp-image"">
                    <div class=""question-area"">
                        <p style=""font-size: 20px; font-weight: bold; margin: 0;"">Is there a person in this image?</p>
                    </div>
                </div>","1","main_experiment_trial","4","museum_causal","causal_sequence","chronological","","","","","","",""
"","","","","","html-keyboard-response","109","417509","0.0-109.0","439BD1A2D0D44840B6FEFBF003D0E78A","019dac5e-f59f-7346-9b44-59a9af41fca4","019dac5b-243f-7307-af64-a10f53f1ef70","","null","
                <div class=""stimulus-container"">
                    <img src=""images/causal_sequence/museum_causal/museum_causal_5.png"" class=""exp-image"">
                    <div class=""question-area""></div> 
                </div>","null","","","","","","","","","","","",""
"","","","","","html-button-response","110","418072","0.0-110.0","439BD1A2D0D44840B6FEFBF003D0E78A","019dac5e-f59f-7346-9b44-59a9af41fca4","019dac5b-243f-7307-af64-a10f53f1ef70","","562","
                <div class=""stimulus-container"">
                    <img src=""images/causal_sequence/museum_causal/museum_causal_5.png"" class=""exp-image"">
                    <div class=""question-area"">
                        <p style=""font-size: 20px; font-weight: bold; margin: 0;"">Is there a person in this image?</p>
                    </div>
                </div>","0","main_experiment_trial","5","museum_causal","causal_sequence","chronological","","","","","","",""
"","","","","","html-keyboard-response","111","423087","0.0-111.0","439BD1A2D0D44840B6FEFBF003D0E78A","019dac5e-f59f-7346-9b44-59a9af41fca4","019dac5b-243f-7307-af64-a10f53f1ef70","","null","
                <div class=""stimulus-container"">
                    <img src=""images/causal_sequence/museum_causal/museum_causal_6.png"" class=""exp-image"">
                    <div class=""question-area""></div> 
                </div>","null","","","","","","","","","","","",""
"","","","","","html-button-response","112","423998","0.0-112.0","439BD1A2D0D44840B6FEFBF003D0E78A","019dac5e-f59f-7346-9b44-59a9af41fca4","019dac5b-243f-7307-af64-a10f53f1ef70","","910","
                <div class=""stimulus-container"">
                    <img src=""images/causal_sequence/museum_causal/museum_causal_6.png"" class=""exp-image"">
                    <div class=""question-area"">
                        <p style=""font-size: 20px; font-weight: bold; margin: 0;"">Is there a person in this image?</p>
                    </div>
                </div>","0","main_experiment_trial","6","museum_causal","causal_sequence","chronological","","","","","","",""
"","","","","","html-keyboard-response","113","429000","0.0-113.0","439BD1A2D0D44840B6FEFBF003D0E78A","019dac5e-f59f-7346-9b44-59a9af41fca4","019dac5b-243f-7307-af64-a10f53f1ef70","","null","
                <div class=""stimulus-container"">
                    <img src=""images/causal_sequence/museum_causal/museum_causal_7.png"" class=""exp-image"">
                    <div class=""question-area""></div> 
                </div>","null","","","","","","","","","","","",""
"","","","","","html-button-response","114","429745","0.0-114.0","439BD1A2D0D44840B6FEFBF003D0E78A","019dac5e-f59f-7346-9b44-59a9af41fca4","019dac5b-243f-7307-af64-a10f53f1ef70","","744","
                <div class=""stimulus-container"">
                    <img src=""images/causal_sequence/museum_causal/museum_causal_7.png"" class=""exp-image"">
                    <div class=""question-area"">
                        <p style=""font-size: 20px; font-weight: bold; margin: 0;"">Is there a person in this image?</p>
                    </div>
                </div>","1","main_experiment_trial","7","museum_causal","causal_sequence","chronological","","","","","","",""
"","","","","","html-keyboard-response","115","434746","0.0-115.0","439BD1A2D0D44840B6FEFBF003D0E78A","019dac5e-f59f-7346-9b44-59a9af41fca4","019dac5b-243f-7307-af64-a10f53f1ef70","","null","
                <div class=""stimulus-container"">
                    <img src=""images/causal_sequence/museum_causal/museum_causal_8.png"" class=""exp-image"">
                    <div class=""question-area""></div> 
                </div>","null","","","","","","","","","","","",""
"","","","","","html-button-response","116","435254","0.0-116.0","439BD1A2D0D44840B6FEFBF003D0E78A","019dac5e-f59f-7346-9b44-59a9af41fca4","019dac5b-243f-7307-af64-a10f53f1ef70","","507","
                <div class=""stimulus-container"">
                    <img src=""images/causal_sequence/museum_causal/museum_causal_8.png"" class=""exp-image"">
                    <div class=""question-area"">
                        <p style=""font-size: 20px; font-weight: bold; margin: 0;"">Is there a person in this image?</p>
                    </div>
                </div>","0","main_experiment_trial","8","museum_causal","causal_sequence","chronological","","","","","","",""
"","","","","","html-keyboard-response","117","440270","0.0-117.0","439BD1A2D0D44840B6FEFBF003D0E78A","019dac5e-f59f-7346-9b44-59a9af41fca4","019dac5b-243f-7307-af64-a10f53f1ef70","","null","
                <div class=""stimulus-container"">
                    <img src=""images/causal_sequence/museum_causal/museum_causal_9.png"" class=""exp-image"">
                    <div class=""question-area""></div> 
                </div>","null","","","","","","","","","","","",""
"","","","","","html-button-response","118","441049","0.0-118.0","439BD1A2D0D44840B6FEFBF003D0E78A","019dac5e-f59f-7346-9b44-59a9af41fca4","019dac5b-243f-7307-af64-a10f53f1ef70","","778","
                <div class=""stimulus-container"">
                    <img src=""images/causal_sequence/museum_causal/museum_causal_9.png"" class=""exp-image"">
                    <div class=""question-area"">
                        <p style=""font-size: 20px; font-weight: bold; margin: 0;"">Is there a person in this image?</p>
                    </div>
                </div>","0","main_experiment_trial","9","museum_causal","causal_sequence","chronological","","","","","","",""
"","","","","","html-keyboard-response","119","446064","0.0-119.0","439BD1A2D0D44840B6FEFBF003D0E78A","019dac5e-f59f-7346-9b44-59a9af41fca4","019dac5b-243f-7307-af64-a10f53f1ef70","","null","
                <div class=""stimulus-container"">
                    <img src=""images/causal_sequence/museum_causal/museum_causal_ten.png"" class=""exp-image"">
                    <div class=""question-area""></div> 
                </div>","null","","","","","","","","","","","",""
"","","","","","html-button-response","120","446888","0.0-120.0","439BD1A2D0D44840B6FEFBF003D0E78A","019dac5e-f59f-7346-9b44-59a9af41fca4","019dac5b-243f-7307-af64-a10f53f1ef70","","823","
                <div class=""stimulus-container"">
                    <img src=""images/causal_sequence/museum_causal/museum_causal_ten.png"" class=""exp-image"">
                    <div class=""question-area"">
                        <p style=""font-size: 20px; font-weight: bold; margin: 0;"">Is there a person in this image?</p>
                    </div>
                </div>","0","main_experiment_trial","ten","museum_causal","causal_sequence","chronological","","","","","","",""
"","","","","","html-keyboard-response","121","451889","0.0-121.0","439BD1A2D0D44840B6FEFBF003D0E78A","019dac5e-f59f-7346-9b44-59a9af41fca4","019dac5b-243f-7307-af64-a10f53f1ef70","","null","<div style=""background-color: white; width: 100vw; height: 100vh;""></div>","null","","","","","","","","","","","",""
"","","","","","html-keyboard-response","122","456904","0.0-122.0","439BD1A2D0D44840B6FEFBF003D0E78A","019dac5e-f59f-7346-9b44-59a9af41fca4","019dac5b-243f-7307-af64-a10f53f1ef70","","null","
                <div class=""stimulus-container"">
                    <img src=""images/semantic_sequence/maintaining_a_car_semantic/maintaining_a_car_semantic_1.png"" class=""exp-image"">
                    <div class=""question-area""></div> 
                </div>","null","","","","","","","","","","","",""
"","","","","","html-button-response","123","457523","0.0-123.0","439BD1A2D0D44840B6FEFBF003D0E78A","019dac5e-f59f-7346-9b44-59a9af41fca4","019dac5b-243f-7307-af64-a10f53f1ef70","","618","
                <div class=""stimulus-container"">
                    <img src=""images/semantic_sequence/maintaining_a_car_semantic/maintaining_a_car_semantic_1.png"" class=""exp-image"">
                    <div class=""question-area"">
                        <p style=""font-size: 20px; font-weight: bold; margin: 0;"">Is there a person in this image?</p>
                    </div>
                </div>","0","main_experiment_trial","1","maintaining_a_car_semantic","semantic_sequence","chronological","","","","","","",""
"","","","","","html-keyboard-response","124","462529","0.0-124.0","439BD1A2D0D44840B6FEFBF003D0E78A","019dac5e-f59f-7346-9b44-59a9af41fca4","019dac5b-243f-7307-af64-a10f53f1ef70","","null","
                <div class=""stimulus-container"">
                    <img src=""images/semantic_sequence/maintaining_a_car_semantic/maintaining_a_car_semantic_2.png"" class=""exp-image"">
                    <div class=""question-area""></div> 
                </div>","null","","","","","","","","","","","",""
"","","","","","html-button-response","125","463280","0.0-125.0","439BD1A2D0D44840B6FEFBF003D0E78A","019dac5e-f59f-7346-9b44-59a9af41fca4","019dac5b-243f-7307-af64-a10f53f1ef70","","750","
                <div class=""stimulus-container"">
                    <img src=""images/semantic_sequence/maintaining_a_car_semantic/maintaining_a_car_semantic_2.png"" class=""exp-image"">
                    <div class=""question-area"">
                        <p style=""font-size: 20px; font-weight: bold; margin: 0;"">Is there a person in this image?</p>
                    </div>
                </div>","0","main_experiment_trial","2","maintaining_a_car_semantic","semantic_sequence","chronological","","","","","","",""
"","","","","","html-keyboard-response","126","468282","0.0-126.0","439BD1A2D0D44840B6FEFBF003D0E78A","019dac5e-f59f-7346-9b44-59a9af41fca4","019dac5b-243f-7307-af64-a10f53f1ef70","","null","
                <div class=""stimulus-container"">
                    <img src=""images/semantic_sequence/maintaining_a_car_semantic/maintaining_a_car_semantic_3.png"" class=""exp-image"">
                    <div class=""question-area""></div> 
                </div>","null","","","","","","","","","","","",""
"","","","","","html-button-response","127","469339","0.0-127.0","439BD1A2D0D44840B6FEFBF003D0E78A","019dac5e-f59f-7346-9b44-59a9af41fca4","019dac5b-243f-7307-af64-a10f53f1ef70","","1056","
                <div class=""stimulus-container"">
                    <img src=""images/semantic_sequence/maintaining_a_car_semantic/maintaining_a_car_semantic_3.png"" class=""exp-image"">
                    <div class=""question-area"">
                        <p style=""font-size: 20px; font-weight: bold; margin: 0;"">Is there a person in this image?</p>
                    </div>
                </div>","0","main_experiment_trial","3","maintaining_a_car_semantic","semantic_sequence","chronological","","","","","","",""
"","","","","","html-keyboard-response","128","474351","0.0-128.0","439BD1A2D0D44840B6FEFBF003D0E78A","019dac5e-f59f-7346-9b44-59a9af41fca4","019dac5b-243f-7307-af64-a10f53f1ef70","","null","
                <div class=""stimulus-container"">
                    <img src=""images/semantic_sequence/maintaining_a_car_semantic/maintaining_a_car_semantic_4.png"" class=""exp-image"">
                    <div class=""question-area""></div> 
                </div>","null","","","","","","","","","","","",""
"","","","","","html-button-response","129","475476","0.0-129.0","439BD1A2D0D44840B6FEFBF003D0E78A","019dac5e-f59f-7346-9b44-59a9af41fca4","019dac5b-243f-7307-af64-a10f53f1ef70","","1123","
                <div class=""stimulus-container"">
                    <img src=""images/semantic_sequence/maintaining_a_car_semantic/maintaining_a_car_semantic_4.png"" class=""exp-image"">
                    <div class=""question-area"">
                        <p style=""font-size: 20px; font-weight: bold; margin: 0;"">Is there a person in this image?</p>
                    </div>
                </div>","0","main_experiment_trial","4","maintaining_a_car_semantic","semantic_sequence","chronological","","","","","","",""
"","","","","","html-keyboard-response","130","480479","0.0-130.0","439BD1A2D0D44840B6FEFBF003D0E78A","019dac5e-f59f-7346-9b44-59a9af41fca4","019dac5b-243f-7307-af64-a10f53f1ef70","","null","
                <div class=""stimulus-container"">
                    <img src=""images/semantic_sequence/maintaining_a_car_semantic/maintaining_a_car_semantic_5.png"" class=""exp-image"">
                    <div class=""question-area""></div> 
                </div>","null","","","","","","","","","","","",""
"","","","","","html-button-response","131","481149","0.0-131.0","439BD1A2D0D44840B6FEFBF003D0E78A","019dac5e-f59f-7346-9b44-59a9af41fca4","019dac5b-243f-7307-af64-a10f53f1ef70","","669","
                <div class=""stimulus-container"">
                    <img src=""images/semantic_sequence/maintaining_a_car_semantic/maintaining_a_car_semantic_5.png"" class=""exp-image"">
                    <div class=""question-area"">
                        <p style=""font-size: 20px; font-weight: bold; margin: 0;"">Is there a person in this image?</p>
                    </div>
                </div>","0","main_experiment_trial","5","maintaining_a_car_semantic","semantic_sequence","chronological","","","","","","",""
"","","","","","html-keyboard-response","132","486150","0.0-132.0","439BD1A2D0D44840B6FEFBF003D0E78A","019dac5e-f59f-7346-9b44-59a9af41fca4","019dac5b-243f-7307-af64-a10f53f1ef70","","null","
                <div class=""stimulus-container"">
                    <img src=""images/semantic_sequence/maintaining_a_car_semantic/maintaining_a_car_semantic_6.png"" class=""exp-image"">
                    <div class=""question-area""></div> 
                </div>","null","","","","","","","","","","","",""
"","","","","","html-button-response","133","486779","0.0-133.0","439BD1A2D0D44840B6FEFBF003D0E78A","019dac5e-f59f-7346-9b44-59a9af41fca4","019dac5b-243f-7307-af64-a10f53f1ef70","","627","
                <div class=""stimulus-container"">
                    <img src=""images/semantic_sequence/maintaining_a_car_semantic/maintaining_a_car_semantic_6.png"" class=""exp-image"">
                    <div class=""question-area"">
                        <p style=""font-size: 20px; font-weight: bold; margin: 0;"">Is there a person in this image?</p>
                    </div>
                </div>","0","main_experiment_trial","6","maintaining_a_car_semantic","semantic_sequence","chronological","","","","","","",""
"","","","","","html-keyboard-response","134","491790","0.0-134.0","439BD1A2D0D44840B6FEFBF003D0E78A","019dac5e-f59f-7346-9b44-59a9af41fca4","019dac5b-243f-7307-af64-a10f53f1ef70","","null","
                <div class=""stimulus-container"">
                    <img src=""images/semantic_sequence/maintaining_a_car_semantic/maintaining_a_car_semantic_7.png"" class=""exp-image"">
                    <div class=""question-area""></div> 
                </div>","null","","","","","","","","","","","",""
"","","","","","html-button-response","135","492308","0.0-135.0","439BD1A2D0D44840B6FEFBF003D0E78A","019dac5e-f59f-7346-9b44-59a9af41fca4","019dac5b-243f-7307-af64-a10f53f1ef70","","517","
                <div class=""stimulus-container"">
                    <img src=""images/semantic_sequence/maintaining_a_car_semantic/maintaining_a_car_semantic_7.png"" class=""exp-image"">
                    <div class=""question-area"">
                        <p style=""font-size: 20px; font-weight: bold; margin: 0;"">Is there a person in this image?</p>
                    </div>
                </div>","0","main_experiment_trial","7","maintaining_a_car_semantic","semantic_sequence","chronological","","","","","","",""
"","","","","","html-keyboard-response","136","497319","0.0-136.0","439BD1A2D0D44840B6FEFBF003D0E78A","019dac5e-f59f-7346-9b44-59a9af41fca4","019dac5b-243f-7307-af64-a10f53f1ef70","","null","
                <div class=""stimulus-container"">
                    <img src=""images/semantic_sequence/maintaining_a_car_semantic/maintaining_a_car_semantic_8.png"" class=""exp-image"">
                    <div class=""question-area""></div> 
                </div>","null","","","","","","","","","","","",""
"","","","","","html-button-response","137","498759","0.0-137.0","439BD1A2D0D44840B6FEFBF003D0E78A","019dac5e-f59f-7346-9b44-59a9af41fca4","019dac5b-243f-7307-af64-a10f53f1ef70","","1438","
                <div class=""stimulus-container"">
                    <img src=""images/semantic_sequence/maintaining_a_car_semantic/maintaining_a_car_semantic_8.png"" class=""exp-image"">
                    <div class=""question-area"">
                        <p style=""font-size: 20px; font-weight: bold; margin: 0;"">Is there a person in this image?</p>
                    </div>
                </div>","0","main_experiment_trial","8","maintaining_a_car_semantic","semantic_sequence","chronological","","","","","","",""
"","","","","","html-keyboard-response","138","503773","0.0-138.0","439BD1A2D0D44840B6FEFBF003D0E78A","019dac5e-f59f-7346-9b44-59a9af41fca4","019dac5b-243f-7307-af64-a10f53f1ef70","","null","
                <div class=""stimulus-container"">
                    <img src=""images/semantic_sequence/maintaining_a_car_semantic/maintaining_a_car_semantic_9.png"" class=""exp-image"">
                    <div class=""question-area""></div> 
                </div>","null","","","","","","","","","","","",""
"","","","","","html-button-response","139","506777","0.0-139.0","439BD1A2D0D44840B6FEFBF003D0E78A","019dac5e-f59f-7346-9b44-59a9af41fca4","019dac5b-243f-7307-af64-a10f53f1ef70","","null","
                <div class=""stimulus-container"">
                    <img src=""images/semantic_sequence/maintaining_a_car_semantic/maintaining_a_car_semantic_9.png"" class=""exp-image"">
                    <div class=""question-area"">
                        <p style=""font-size: 20px; font-weight: bold; margin: 0;"">Is there a person in this image?</p>
                    </div>
                </div>","null","main_experiment_trial","9","maintaining_a_car_semantic","semantic_sequence","chronological","","","","","","",""
"","","","","","html-keyboard-response","140","511786","0.0-140.0","439BD1A2D0D44840B6FEFBF003D0E78A","019dac5e-f59f-7346-9b44-59a9af41fca4","019dac5b-243f-7307-af64-a10f53f1ef70","","null","
                <div class=""stimulus-container"">
                    <img src=""images/semantic_sequence/maintaining_a_car_semantic/maintaining_a_car_semantic_ten.png"" class=""exp-image"">
                    <div class=""question-area""></div> 
                </div>","null","","","","","","","","","","","",""
"","","","","","html-button-response","141","512583","0.0-141.0","439BD1A2D0D44840B6FEFBF003D0E78A","019dac5e-f59f-7346-9b44-59a9af41fca4","019dac5b-243f-7307-af64-a10f53f1ef70","","796","
                <div class=""stimulus-container"">
                    <img src=""images/semantic_sequence/maintaining_a_car_semantic/maintaining_a_car_semantic_ten.png"" class=""exp-image"">
                    <div class=""question-area"">
                        <p style=""font-size: 20px; font-weight: bold; margin: 0;"">Is there a person in this image?</p>
                    </div>
                </div>","0","main_experiment_trial","ten","maintaining_a_car_semantic","semantic_sequence","chronological","","","","","","",""
"","","","","","html-keyboard-response","142","517589","0.0-142.0","439BD1A2D0D44840B6FEFBF003D0E78A","019dac5e-f59f-7346-9b44-59a9af41fca4","019dac5b-243f-7307-af64-a10f53f1ef70","","null","<div style=""background-color: white; width: 100vw; height: 100vh;""></div>","null","","","","","","","","","","","",""
"","","","","","html-keyboard-response","143","522598","0.0-143.0","439BD1A2D0D44840B6FEFBF003D0E78A","019dac5e-f59f-7346-9b44-59a9af41fca4","019dac5b-243f-7307-af64-a10f53f1ef70","","null","
                <div class=""stimulus-container"">
                    <img src=""images/semantic_sequence/physical_activity_semantic/physical_activity_semantic_1.png"" class=""exp-image"">
                    <div class=""question-area""></div> 
                </div>","null","","","","","","","","","","","",""
"","","","","","html-button-response","144","523956","0.0-144.0","439BD1A2D0D44840B6FEFBF003D0E78A","019dac5e-f59f-7346-9b44-59a9af41fca4","019dac5b-243f-7307-af64-a10f53f1ef70","","1357","
                <div class=""stimulus-container"">
                    <img src=""images/semantic_sequence/physical_activity_semantic/physical_activity_semantic_1.png"" class=""exp-image"">
                    <div class=""question-area"">
                        <p style=""font-size: 20px; font-weight: bold; margin: 0;"">Is there a person in this image?</p>
                    </div>
                </div>","0","main_experiment_trial","1","physical_activity_semantic","semantic_sequence","chronological","","","","","","",""
"","","","","","html-keyboard-response","145","528968","0.0-145.0","439BD1A2D0D44840B6FEFBF003D0E78A","019dac5e-f59f-7346-9b44-59a9af41fca4","019dac5b-243f-7307-af64-a10f53f1ef70","","null","
                <div class=""stimulus-container"">
                    <img src=""images/semantic_sequence/physical_activity_semantic/physical_activity_semantic_2.png"" class=""exp-image"">
                    <div class=""question-area""></div> 
                </div>","null","","","","","","","","","","","",""
"","","","","","html-button-response","146","529650","0.0-146.0","439BD1A2D0D44840B6FEFBF003D0E78A","019dac5e-f59f-7346-9b44-59a9af41fca4","019dac5b-243f-7307-af64-a10f53f1ef70","","681","
                <div class=""stimulus-container"">
                    <img src=""images/semantic_sequence/physical_activity_semantic/physical_activity_semantic_2.png"" class=""exp-image"">
                    <div class=""question-area"">
                        <p style=""font-size: 20px; font-weight: bold; margin: 0;"">Is there a person in this image?</p>
                    </div>
                </div>","0","main_experiment_trial","2","physical_activity_semantic","semantic_sequence","chronological","","","","","","",""
"","","","","","html-keyboard-response","147","534659","0.0-147.0","439BD1A2D0D44840B6FEFBF003D0E78A","019dac5e-f59f-7346-9b44-59a9af41fca4","019dac5b-243f-7307-af64-a10f53f1ef70","","null","
                <div class=""stimulus-container"">
                    <img src=""images/semantic_sequence/physical_activity_semantic/physical_activity_semantic_3.png"" class=""exp-image"">
                    <div class=""question-area""></div> 
                </div>","null","","","","","","","","","","","",""
"","","","","","html-button-response","148","536066","0.0-148.0","439BD1A2D0D44840B6FEFBF003D0E78A","019dac5e-f59f-7346-9b44-59a9af41fca4","019dac5b-243f-7307-af64-a10f53f1ef70","","1406","
                <div class=""stimulus-container"">
                    <img src=""images/semantic_sequence/physical_activity_semantic/physical_activity_semantic_3.png"" class=""exp-image"">
                    <div class=""question-area"">
                        <p style=""font-size: 20px; font-weight: bold; margin: 0;"">Is there a person in this image?</p>
                    </div>
                </div>","0","main_experiment_trial","3","physical_activity_semantic","semantic_sequence","chronological","","","","","","",""
"","","","","","html-keyboard-response","149","541080","0.0-149.0","439BD1A2D0D44840B6FEFBF003D0E78A","019dac5e-f59f-7346-9b44-59a9af41fca4","019dac5b-243f-7307-af64-a10f53f1ef70","","null","
                <div class=""stimulus-container"">
                    <img src=""images/semantic_sequence/physical_activity_semantic/physical_activity_semantic_4.png"" class=""exp-image"">
                    <div class=""question-area""></div> 
                </div>","null","","","","","","","","","","","",""
"","","","","","html-button-response","150","542801","0.0-150.0","439BD1A2D0D44840B6FEFBF003D0E78A","019dac5e-f59f-7346-9b44-59a9af41fca4","019dac5b-243f-7307-af64-a10f53f1ef70","","1720","
                <div class=""stimulus-container"">
                    <img src=""images/semantic_sequence/physical_activity_semantic/physical_activity_semantic_4.png"" class=""exp-image"">
                    <div class=""question-area"">
                        <p style=""font-size: 20px; font-weight: bold; margin: 0;"">Is there a person in this image?</p>
                    </div>
                </div>","0","main_experiment_trial","4","physical_activity_semantic","semantic_sequence","chronological","","","","","","",""
"","","","","","html-keyboard-response","151","547814","0.0-151.0","439BD1A2D0D44840B6FEFBF003D0E78A","019dac5e-f59f-7346-9b44-59a9af41fca4","019dac5b-243f-7307-af64-a10f53f1ef70","","null","
                <div class=""stimulus-container"">
                    <img src=""images/semantic_sequence/physical_activity_semantic/physical_activity_semantic_5.png"" class=""exp-image"">
                    <div class=""question-area""></div> 
                </div>","null","","","","","","","","","","","",""
"","","","","","html-button-response","152","548786","0.0-152.0","439BD1A2D0D44840B6FEFBF003D0E78A","019dac5e-f59f-7346-9b44-59a9af41fca4","019dac5b-243f-7307-af64-a10f53f1ef70","","971","
                <div class=""stimulus-container"">
                    <img src=""images/semantic_sequence/physical_activity_semantic/physical_activity_semantic_5.png"" class=""exp-image"">
                    <div class=""question-area"">
                        <p style=""font-size: 20px; font-weight: bold; margin: 0;"">Is there a person in this image?</p>
                    </div>
                </div>","0","main_experiment_trial","5","physical_activity_semantic","semantic_sequence","chronological","","","","","","",""
"","","","","","html-keyboard-response","153","553788","0.0-153.0","439BD1A2D0D44840B6FEFBF003D0E78A","019dac5e-f59f-7346-9b44-59a9af41fca4","019dac5b-243f-7307-af64-a10f53f1ef70","","null","
                <div class=""stimulus-container"">
                    <img src=""images/semantic_sequence/physical_activity_semantic/physical_activity_semantic_6.png"" class=""exp-image"">
                    <div class=""question-area""></div> 
                </div>","null","","","","","","","","","","","",""
"","","","","","html-button-response","154","554552","0.0-154.0","439BD1A2D0D44840B6FEFBF003D0E78A","019dac5e-f59f-7346-9b44-59a9af41fca4","019dac5b-243f-7307-af64-a10f53f1ef70","","762","
                <div class=""stimulus-container"">
                    <img src=""images/semantic_sequence/physical_activity_semantic/physical_activity_semantic_6.png"" class=""exp-image"">
                    <div class=""question-area"">
                        <p style=""font-size: 20px; font-weight: bold; margin: 0;"">Is there a person in this image?</p>
                    </div>
                </div>","0","main_experiment_trial","6","physical_activity_semantic","semantic_sequence","chronological","","","","","","",""
"","","","","","html-keyboard-response","155","559560","0.0-155.0","439BD1A2D0D44840B6FEFBF003D0E78A","019dac5e-f59f-7346-9b44-59a9af41fca4","019dac5b-243f-7307-af64-a10f53f1ef70","","null","
                <div class=""stimulus-container"">
                    <img src=""images/semantic_sequence/physical_activity_semantic/physical_activity_semantic_7.png"" class=""exp-image"">
                    <div class=""question-area""></div> 
                </div>","null","","","","","","","","","","","",""
"","","","","","html-button-response","156","560681","0.0-156.0","439BD1A2D0D44840B6FEFBF003D0E78A","019dac5e-f59f-7346-9b44-59a9af41fca4","019dac5b-243f-7307-af64-a10f53f1ef70","","1119","
                <div class=""stimulus-container"">
                    <img src=""images/semantic_sequence/physical_activity_semantic/physical_activity_semantic_7.png"" class=""exp-image"">
                    <div class=""question-area"">
                        <p style=""font-size: 20px; font-weight: bold; margin: 0;"">Is there a person in this image?</p>
                    </div>
                </div>","0","main_experiment_trial","7","physical_activity_semantic","semantic_sequence","chronological","","","","","","",""
"","","","","","html-keyboard-response","157","565691","0.0-157.0","439BD1A2D0D44840B6FEFBF003D0E78A","019dac5e-f59f-7346-9b44-59a9af41fca4","019dac5b-243f-7307-af64-a10f53f1ef70","","null","
                <div class=""stimulus-container"">
                    <img src=""images/semantic_sequence/physical_activity_semantic/physical_activity_semantic_8.png"" class=""exp-image"">
                    <div class=""question-area""></div> 
                </div>","null","","","","","","","","","","","",""
"","","","","","html-button-response","158","566382","0.0-158.0","439BD1A2D0D44840B6FEFBF003D0E78A","019dac5e-f59f-7346-9b44-59a9af41fca4","019dac5b-243f-7307-af64-a10f53f1ef70","","690","
                <div class=""stimulus-container"">
                    <img src=""images/semantic_sequence/physical_activity_semantic/physical_activity_semantic_8.png"" class=""exp-image"">
                    <div class=""question-area"">
                        <p style=""font-size: 20px; font-weight: bold; margin: 0;"">Is there a person in this image?</p>
                    </div>
                </div>","0","main_experiment_trial","8","physical_activity_semantic","semantic_sequence","chronological","","","","","","",""
"","","","","","html-keyboard-response","159","571387","0.0-159.0","439BD1A2D0D44840B6FEFBF003D0E78A","019dac5e-f59f-7346-9b44-59a9af41fca4","019dac5b-243f-7307-af64-a10f53f1ef70","","null","
                <div class=""stimulus-container"">
                    <img src=""images/semantic_sequence/physical_activity_semantic/physical_activity_semantic_9.png"" class=""exp-image"">
                    <div class=""question-area""></div> 
                </div>","null","","","","","","","","","","","",""
"","","","","","html-button-response","160","572656","0.0-160.0","439BD1A2D0D44840B6FEFBF003D0E78A","019dac5e-f59f-7346-9b44-59a9af41fca4","019dac5b-243f-7307-af64-a10f53f1ef70","","1267","
                <div class=""stimulus-container"">
                    <img src=""images/semantic_sequence/physical_activity_semantic/physical_activity_semantic_9.png"" class=""exp-image"">
                    <div class=""question-area"">
                        <p style=""font-size: 20px; font-weight: bold; margin: 0;"">Is there a person in this image?</p>
                    </div>
                </div>","0","main_experiment_trial","9","physical_activity_semantic","semantic_sequence","chronological","","","","","","",""
"","","","","","html-keyboard-response","161","577670","0.0-161.0","439BD1A2D0D44840B6FEFBF003D0E78A","019dac5e-f59f-7346-9b44-59a9af41fca4","019dac5b-243f-7307-af64-a10f53f1ef70","","null","
                <div class=""stimulus-container"">
                    <img src=""images/semantic_sequence/physical_activity_semantic/physical_activity_semantic_ten.png"" class=""exp-image"">
                    <div class=""question-area""></div> 
                </div>","null","","","","","","","","","","","",""
"","","","","","html-button-response","162","578646","0.0-162.0","439BD1A2D0D44840B6FEFBF003D0E78A","019dac5e-f59f-7346-9b44-59a9af41fca4","019dac5b-243f-7307-af64-a10f53f1ef70","","974","
                <div class=""stimulus-container"">
                    <img src=""images/semantic_sequence/physical_activity_semantic/physical_activity_semantic_ten.png"" class=""exp-image"">
                    <div class=""question-area"">
                        <p style=""font-size: 20px; font-weight: bold; margin: 0;"">Is there a person in this image?</p>
                    </div>
                </div>","0","main_experiment_trial","ten","physical_activity_semantic","semantic_sequence","chronological","","","","","","",""
"","","","","","html-keyboard-response","163","583650","0.0-163.0","439BD1A2D0D44840B6FEFBF003D0E78A","019dac5e-f59f-7346-9b44-59a9af41fca4","019dac5b-243f-7307-af64-a10f53f1ef70","","null","<div style=""background-color: white; width: 100vw; height: 100vh;""></div>","null","","","","","","","","","","","",""
"","","","","","html-keyboard-response","164","588664","0.0-164.0","439BD1A2D0D44840B6FEFBF003D0E78A","019dac5e-f59f-7346-9b44-59a9af41fca4","019dac5b-243f-7307-af64-a10f53f1ef70","","null","
                <div class=""stimulus-container"">
                    <img src=""images/causal_sequence/coin_causal/coin_causal_1.png"" class=""exp-image"">
                    <div class=""question-area""></div> 
                </div>","null","","","","","","","","","","","",""
"","","","","","html-button-response","165","589333","0.0-165.0","439BD1A2D0D44840B6FEFBF003D0E78A","019dac5e-f59f-7346-9b44-59a9af41fca4","019dac5b-243f-7307-af64-a10f53f1ef70","","668","
                <div class=""stimulus-container"">
                    <img src=""images/causal_sequence/coin_causal/coin_causal_1.png"" class=""exp-image"">
                    <div class=""question-area"">
                        <p style=""font-size: 20px; font-weight: bold; margin: 0;"">Is there a person in this image?</p>
                    </div>
                </div>","0","main_experiment_trial","1","coin_causal","causal_sequence","chronological","","","","","","",""
"","","","","","html-keyboard-response","166","594341","0.0-166.0","439BD1A2D0D44840B6FEFBF003D0E78A","019dac5e-f59f-7346-9b44-59a9af41fca4","019dac5b-243f-7307-af64-a10f53f1ef70","","null","
                <div class=""stimulus-container"">
                    <img src=""images/causal_sequence/coin_causal/coin_causal_2.png"" class=""exp-image"">
                    <div class=""question-area""></div> 
                </div>","null","","","","","","","","","","","",""
"","","","","","html-button-response","167","594712","0.0-167.0","439BD1A2D0D44840B6FEFBF003D0E78A","019dac5e-f59f-7346-9b44-59a9af41fca4","019dac5b-243f-7307-af64-a10f53f1ef70","","370","
                <div class=""stimulus-container"">
                    <img src=""images/causal_sequence/coin_causal/coin_causal_2.png"" class=""exp-image"">
                    <div class=""question-area"">
                        <p style=""font-size: 20px; font-weight: bold; margin: 0;"">Is there a person in this image?</p>
                    </div>
                </div>","0","main_experiment_trial","2","coin_causal","causal_sequence","chronological","","","","","","",""
"","","","","","html-keyboard-response","168","599722","0.0-168.0","439BD1A2D0D44840B6FEFBF003D0E78A","019dac5e-f59f-7346-9b44-59a9af41fca4","019dac5b-243f-7307-af64-a10f53f1ef70","","null","
                <div class=""stimulus-container"">
                    <img src=""images/causal_sequence/coin_causal/coin_causal_3.png"" class=""exp-image"">
                    <div class=""question-area""></div> 
                </div>","null","","","","","","","","","","","",""
"","","","","","html-button-response","169","600373","0.0-169.0","439BD1A2D0D44840B6FEFBF003D0E78A","019dac5e-f59f-7346-9b44-59a9af41fca4","019dac5b-243f-7307-af64-a10f53f1ef70","","649","
                <div class=""stimulus-container"">
                    <img src=""images/causal_sequence/coin_causal/coin_causal_3.png"" class=""exp-image"">
                    <div class=""question-area"">
                        <p style=""font-size: 20px; font-weight: bold; margin: 0;"">Is there a person in this image?</p>
                    </div>
                </div>","0","main_experiment_trial","3","coin_causal","causal_sequence","chronological","","","","","","",""
"","","","","","html-keyboard-response","170","605376","0.0-170.0","439BD1A2D0D44840B6FEFBF003D0E78A","019dac5e-f59f-7346-9b44-59a9af41fca4","019dac5b-243f-7307-af64-a10f53f1ef70","","null","
                <div class=""stimulus-container"">
                    <img src=""images/causal_sequence/coin_causal/coin_causal_4.png"" class=""exp-image"">
                    <div class=""question-area""></div> 
                </div>","null","","","","","","","","","","","",""
"","","","","","html-button-response","171","606084","0.0-171.0","439BD1A2D0D44840B6FEFBF003D0E78A","019dac5e-f59f-7346-9b44-59a9af41fca4","019dac5b-243f-7307-af64-a10f53f1ef70","","707","
                <div class=""stimulus-container"">
                    <img src=""images/causal_sequence/coin_causal/coin_causal_4.png"" class=""exp-image"">
                    <div class=""question-area"">
                        <p style=""font-size: 20px; font-weight: bold; margin: 0;"">Is there a person in this image?</p>
                    </div>
                </div>","0","main_experiment_trial","4","coin_causal","causal_sequence","chronological","","","","","","",""
"","","","","","html-keyboard-response","172","611095","0.0-172.0","439BD1A2D0D44840B6FEFBF003D0E78A","019dac5e-f59f-7346-9b44-59a9af41fca4","019dac5b-243f-7307-af64-a10f53f1ef70","","null","
                <div class=""stimulus-container"">
                    <img src=""images/causal_sequence/coin_causal/coin_causal_5.png"" class=""exp-image"">
                    <div class=""question-area""></div> 
                </div>","null","","","","","","","","","","","",""
"","","","","","html-button-response","173","612750","0.0-173.0","439BD1A2D0D44840B6FEFBF003D0E78A","019dac5e-f59f-7346-9b44-59a9af41fca4","019dac5b-243f-7307-af64-a10f53f1ef70","","1655","
                <div class=""stimulus-container"">
                    <img src=""images/causal_sequence/coin_causal/coin_causal_5.png"" class=""exp-image"">
                    <div class=""question-area"">
                        <p style=""font-size: 20px; font-weight: bold; margin: 0;"">Is there a person in this image?</p>
                    </div>
                </div>","0","main_experiment_trial","5","coin_causal","causal_sequence","chronological","","","","","","",""
"","","","","","html-keyboard-response","174","617766","0.0-174.0","439BD1A2D0D44840B6FEFBF003D0E78A","019dac5e-f59f-7346-9b44-59a9af41fca4","019dac5b-243f-7307-af64-a10f53f1ef70","","null","
                <div class=""stimulus-container"">
                    <img src=""images/causal_sequence/coin_causal/coin_causal_6.png"" class=""exp-image"">
                    <div class=""question-area""></div> 
                </div>","null","","","","","","","","","","","",""
"","","","","","html-button-response","175","618373","0.0-175.0","439BD1A2D0D44840B6FEFBF003D0E78A","019dac5e-f59f-7346-9b44-59a9af41fca4","019dac5b-243f-7307-af64-a10f53f1ef70","","605","
                <div class=""stimulus-container"">
                    <img src=""images/causal_sequence/coin_causal/coin_causal_6.png"" class=""exp-image"">
                    <div class=""question-area"">
                        <p style=""font-size: 20px; font-weight: bold; margin: 0;"">Is there a person in this image?</p>
                    </div>
                </div>","0","main_experiment_trial","6","coin_causal","causal_sequence","chronological","","","","","","",""
"","","","","","html-keyboard-response","176","623380","0.0-176.0","439BD1A2D0D44840B6FEFBF003D0E78A","019dac5e-f59f-7346-9b44-59a9af41fca4","019dac5b-243f-7307-af64-a10f53f1ef70","","null","
                <div class=""stimulus-container"">
                    <img src=""images/causal_sequence/coin_causal/coin_causal_7.png"" class=""exp-image"">
