"success","timeout","failed_images","failed_audio","failed_video","trial_type","trial_index","time_elapsed","internal_node_id","subject_id","study_id","session_id","view_history","rt","stimulus","response","task","image_index","folder","sequence_type","presentation_order","valuable_image_index","reward_type","distance_from_x","target_X","chosen_image_index","is_x_plus_dist","correct_choice"
"true","false","[]","[]","[]","preload","0","6728","0.0-0.0","D39A144EC1D244DA9DC0F92F330544C1","019d6b90-7216-77f5-add9-67d68318df35","019d6b6d-d11f-7233-9b95-7a424dbf389f","","","","","","","","","","","","","","","",""
"","","","","","instructions","1","13837","0.0-1.0","D39A144EC1D244DA9DC0F92F330544C1","019d6b90-7216-77f5-add9-67d68318df35","019d6b6d-d11f-7233-9b95-7a424dbf389f","[{""page_index"":0,""viewing_time"":7108}]","7108","","","","","","","","","","","","","",""
"","","","","","instructions","2","20349","0.0-2.0","D39A144EC1D244DA9DC0F92F330544C1","019d6b90-7216-77f5-add9-67d68318df35","019d6b6d-d11f-7233-9b95-7a424dbf389f","[{""page_index"":0,""viewing_time"":6512}]","6512","","","","","","","","","","","","","",""
"true","","","","","fullscreen","3","23660","0.0-3.0","D39A144EC1D244DA9DC0F92F330544C1","019d6b90-7216-77f5-add9-67d68318df35","019d6b6d-d11f-7233-9b95-7a424dbf389f","","2307","","","","","","","","","","","","","",""
"","","","","","instructions","4","32741","0.0-4.0","D39A144EC1D244DA9DC0F92F330544C1","019d6b90-7216-77f5-add9-67d68318df35","019d6b6d-d11f-7233-9b95-7a424dbf389f","[{""page_index"":0,""viewing_time"":9080}]","9080","","","","","","","","","","","","","",""
"","","","","","instructions","5","35655","0.0-5.0","D39A144EC1D244DA9DC0F92F330544C1","019d6b90-7216-77f5-add9-67d68318df35","019d6b6d-d11f-7233-9b95-7a424dbf389f","[{""page_index"":0,""viewing_time"":2913}]","2914","","","","","","","","","","","","","",""
"","","","","","html-keyboard-response","6","39658","0.0-6.0","D39A144EC1D244DA9DC0F92F330544C1","019d6b90-7216-77f5-add9-67d68318df35","019d6b6d-d11f-7233-9b95-7a424dbf389f","","null","
            <div class=""stimulus-container"">
                <img src=""images/instructions/movie_1.png"" class=""exp-image"">
                <div class=""question-area""></div> 
            </div>","null","","","","","","","","","","","",""
"","","","","","html-button-response","7","42526","0.0-7.0","D39A144EC1D244DA9DC0F92F330544C1","019d6b90-7216-77f5-add9-67d68318df35","019d6b6d-d11f-7233-9b95-7a424dbf389f","","2865","
            <div class=""stimulus-container"">
                <img src=""images/instructions/movie_1.png"" class=""exp-image"">
                <div class=""question-area"">
                    <p style=""font-size: 20px; font-weight: bold; margin: 0;"">Was there a person in this image?</p>
                </div>
            </div>","0","example_question","1","","","","","","","","","",""
"","","","","","html-keyboard-response","8","46528","0.0-8.0","D39A144EC1D244DA9DC0F92F330544C1","019d6b90-7216-77f5-add9-67d68318df35","019d6b6d-d11f-7233-9b95-7a424dbf389f","","null","
            <div class=""stimulus-container"">
                <img src=""images/instructions/movie_2.png"" class=""exp-image"">
                <div class=""question-area""></div> 
            </div>","null","","","","","","","","","","","",""
"","","","","","html-button-response","9","47563","0.0-9.0","D39A144EC1D244DA9DC0F92F330544C1","019d6b90-7216-77f5-add9-67d68318df35","019d6b6d-d11f-7233-9b95-7a424dbf389f","","1032","
            <div class=""stimulus-container"">
                <img src=""images/instructions/movie_2.png"" class=""exp-image"">
                <div class=""question-area"">
                    <p style=""font-size: 20px; font-weight: bold; margin: 0;"">Was there a person in this image?</p>
                </div>
            </div>","0","example_question","2","","","","","","","","","",""
"","","","","","html-keyboard-response","10","51564","0.0-10.0","D39A144EC1D244DA9DC0F92F330544C1","019d6b90-7216-77f5-add9-67d68318df35","019d6b6d-d11f-7233-9b95-7a424dbf389f","","null","
            <div class=""stimulus-container"">
                <img src=""images/instructions/movie_3.png"" class=""exp-image"">
                <div class=""question-area""></div> 
            </div>","null","","","","","","","","","","","",""
"","","","","","html-button-response","11","52519","0.0-11.0","D39A144EC1D244DA9DC0F92F330544C1","019d6b90-7216-77f5-add9-67d68318df35","019d6b6d-d11f-7233-9b95-7a424dbf389f","","954","
            <div class=""stimulus-container"">
                <img src=""images/instructions/movie_3.png"" class=""exp-image"">
                <div class=""question-area"">
                    <p style=""font-size: 20px; font-weight: bold; margin: 0;"">Was there a person in this image?</p>
                </div>
            </div>","0","example_question","3","","","","","","","","","",""
"","","","","","html-keyboard-response","12","56521","0.0-12.0","D39A144EC1D244DA9DC0F92F330544C1","019d6b90-7216-77f5-add9-67d68318df35","019d6b6d-d11f-7233-9b95-7a424dbf389f","","null","
            <div class=""stimulus-container"">
                <img src=""images/instructions/movie_4.png"" class=""exp-image"">
                <div class=""question-area""></div> 
            </div>","null","","","","","","","","","","","",""
"","","","","","html-button-response","13","57218","0.0-13.0","D39A144EC1D244DA9DC0F92F330544C1","019d6b90-7216-77f5-add9-67d68318df35","019d6b6d-d11f-7233-9b95-7a424dbf389f","","696","
            <div class=""stimulus-container"">
                <img src=""images/instructions/movie_4.png"" class=""exp-image"">
                <div class=""question-area"">
                    <p style=""font-size: 20px; font-weight: bold; margin: 0;"">Was there a person in this image?</p>
                </div>
            </div>","0","example_question","4","","","","","","","","","",""
"","","","","","instructions","14","59023","0.0-14.0","D39A144EC1D244DA9DC0F92F330544C1","019d6b90-7216-77f5-add9-67d68318df35","019d6b6d-d11f-7233-9b95-7a424dbf389f","[{""page_index"":0,""viewing_time"":1804}]","1804","","","","","","","","","","","","","",""
"","","","","","instructions","15","64158","0.0-15.0","D39A144EC1D244DA9DC0F92F330544C1","019d6b90-7216-77f5-add9-67d68318df35","019d6b6d-d11f-7233-9b95-7a424dbf389f","[{""page_index"":0,""viewing_time"":5134}]","5134","","","","","","","","","","","","","",""
"","","","","","html-keyboard-response","16","69160","0.0-16.0","D39A144EC1D244DA9DC0F92F330544C1","019d6b90-7216-77f5-add9-67d68318df35","019d6b6d-d11f-7233-9b95-7a424dbf389f","","null","<div style=""background-color: white; width: 100vw; height: 100vh;""></div>","null","","","","","","","","","","","",""
"","","","","","html-keyboard-response","17","74162","0.0-17.0","D39A144EC1D244DA9DC0F92F330544C1","019d6b90-7216-77f5-add9-67d68318df35","019d6b6d-d11f-7233-9b95-7a424dbf389f","","null","
                <div class=""stimulus-container"">
                    <img src=""semantic_sequence_notimeline/professions_semantic/professions_semantic_1.png"" class=""exp-image"">
                    <div class=""question-area""></div> 
                </div>","null","","","","","","","","","","","",""
"","","","","","html-button-response","18","75521","0.0-18.0","D39A144EC1D244DA9DC0F92F330544C1","019d6b90-7216-77f5-add9-67d68318df35","019d6b6d-d11f-7233-9b95-7a424dbf389f","","1358","
                <div class=""stimulus-container"">
                    <img src=""semantic_sequence_notimeline/professions_semantic/professions_semantic_1.png"" class=""exp-image"">
                    <div class=""question-area"">
                        <p style=""font-size: 20px; font-weight: bold; margin: 0;"">Is there a person in this image?</p>
                    </div>
                </div>","0","main_experiment_trial","1","professions_semantic","semantic_sequence_notimeline","chronological","","","","","","",""
"","","","","","html-keyboard-response","19","80522","0.0-19.0","D39A144EC1D244DA9DC0F92F330544C1","019d6b90-7216-77f5-add9-67d68318df35","019d6b6d-d11f-7233-9b95-7a424dbf389f","","null","
                <div class=""stimulus-container"">
                    <img src=""semantic_sequence_notimeline/professions_semantic/professions_semantic_2.png"" class=""exp-image"">
                    <div class=""question-area""></div> 
                </div>","null","","","","","","","","","","","",""
"","","","","","html-button-response","20","81261","0.0-20.0","D39A144EC1D244DA9DC0F92F330544C1","019d6b90-7216-77f5-add9-67d68318df35","019d6b6d-d11f-7233-9b95-7a424dbf389f","","736","
                <div class=""stimulus-container"">
                    <img src=""semantic_sequence_notimeline/professions_semantic/professions_semantic_2.png"" class=""exp-image"">
                    <div class=""question-area"">
                        <p style=""font-size: 20px; font-weight: bold; margin: 0;"">Is there a person in this image?</p>
                    </div>
                </div>","0","main_experiment_trial","2","professions_semantic","semantic_sequence_notimeline","chronological","","","","","","",""
"","","","","","html-keyboard-response","21","86263","0.0-21.0","D39A144EC1D244DA9DC0F92F330544C1","019d6b90-7216-77f5-add9-67d68318df35","019d6b6d-d11f-7233-9b95-7a424dbf389f","","null","
                <div class=""stimulus-container"">
                    <img src=""semantic_sequence_notimeline/professions_semantic/professions_semantic_3.png"" class=""exp-image"">
                    <div class=""question-area""></div> 
                </div>","null","","","","","","","","","","","",""
"","","","","","html-button-response","22","87289","0.0-22.0","D39A144EC1D244DA9DC0F92F330544C1","019d6b90-7216-77f5-add9-67d68318df35","019d6b6d-d11f-7233-9b95-7a424dbf389f","","1025","
                <div class=""stimulus-container"">
                    <img src=""semantic_sequence_notimeline/professions_semantic/professions_semantic_3.png"" class=""exp-image"">
                    <div class=""question-area"">
                        <p style=""font-size: 20px; font-weight: bold; margin: 0;"">Is there a person in this image?</p>
                    </div>
                </div>","0","main_experiment_trial","3","professions_semantic","semantic_sequence_notimeline","chronological","","","","","","",""
"","","","","","html-keyboard-response","23","92291","0.0-23.0","D39A144EC1D244DA9DC0F92F330544C1","019d6b90-7216-77f5-add9-67d68318df35","019d6b6d-d11f-7233-9b95-7a424dbf389f","","null","
                <div class=""stimulus-container"">
                    <img src=""semantic_sequence_notimeline/professions_semantic/professions_semantic_4.png"" class=""exp-image"">
                    <div class=""question-area""></div> 
                </div>","null","","","","","","","","","","","",""
"","","","","","html-button-response","24","92762","0.0-24.0","D39A144EC1D244DA9DC0F92F330544C1","019d6b90-7216-77f5-add9-67d68318df35","019d6b6d-d11f-7233-9b95-7a424dbf389f","","469","
                <div class=""stimulus-container"">
                    <img src=""semantic_sequence_notimeline/professions_semantic/professions_semantic_4.png"" class=""exp-image"">
                    <div class=""question-area"">
                        <p style=""font-size: 20px; font-weight: bold; margin: 0;"">Is there a person in this image?</p>
                    </div>
                </div>","0","main_experiment_trial","4","professions_semantic","semantic_sequence_notimeline","chronological","","","","","","",""
"","","","","","html-keyboard-response","25","97764","0.0-25.0","D39A144EC1D244DA9DC0F92F330544C1","019d6b90-7216-77f5-add9-67d68318df35","019d6b6d-d11f-7233-9b95-7a424dbf389f","","null","
                <div class=""stimulus-container"">
                    <img src=""semantic_sequence_notimeline/professions_semantic/professions_semantic_5.png"" class=""exp-image"">
                    <div class=""question-area""></div> 
                </div>","null","","","","","","","","","","","",""
"","","","","","html-button-response","26","98275","0.0-26.0","D39A144EC1D244DA9DC0F92F330544C1","019d6b90-7216-77f5-add9-67d68318df35","019d6b6d-d11f-7233-9b95-7a424dbf389f","","509","
                <div class=""stimulus-container"">
                    <img src=""semantic_sequence_notimeline/professions_semantic/professions_semantic_5.png"" class=""exp-image"">
                    <div class=""question-area"">
                        <p style=""font-size: 20px; font-weight: bold; margin: 0;"">Is there a person in this image?</p>
                    </div>
                </div>","0","main_experiment_trial","5","professions_semantic","semantic_sequence_notimeline","chronological","","","","","","",""
"","","","","","html-keyboard-response","27","103277","0.0-27.0","D39A144EC1D244DA9DC0F92F330544C1","019d6b90-7216-77f5-add9-67d68318df35","019d6b6d-d11f-7233-9b95-7a424dbf389f","","null","
                <div class=""stimulus-container"">
                    <img src=""semantic_sequence_notimeline/professions_semantic/professions_semantic_6.png"" class=""exp-image"">
                    <div class=""question-area""></div> 
                </div>","null","","","","","","","","","","","",""
"","","","","","html-button-response","28","103876","0.0-28.0","D39A144EC1D244DA9DC0F92F330544C1","019d6b90-7216-77f5-add9-67d68318df35","019d6b6d-d11f-7233-9b95-7a424dbf389f","","597","
                <div class=""stimulus-container"">
                    <img src=""semantic_sequence_notimeline/professions_semantic/professions_semantic_6.png"" class=""exp-image"">
                    <div class=""question-area"">
                        <p style=""font-size: 20px; font-weight: bold; margin: 0;"">Is there a person in this image?</p>
                    </div>
                </div>","0","main_experiment_trial","6","professions_semantic","semantic_sequence_notimeline","chronological","","","","","","",""
"","","","","","html-keyboard-response","29","108878","0.0-29.0","D39A144EC1D244DA9DC0F92F330544C1","019d6b90-7216-77f5-add9-67d68318df35","019d6b6d-d11f-7233-9b95-7a424dbf389f","","null","
                <div class=""stimulus-container"">
                    <img src=""semantic_sequence_notimeline/professions_semantic/professions_semantic_7.png"" class=""exp-image"">
                    <div class=""question-area""></div> 
                </div>","null","","","","","","","","","","","",""
"","","","","","html-button-response","30","109419","0.0-30.0","D39A144EC1D244DA9DC0F92F330544C1","019d6b90-7216-77f5-add9-67d68318df35","019d6b6d-d11f-7233-9b95-7a424dbf389f","","539","
                <div class=""stimulus-container"">
                    <img src=""semantic_sequence_notimeline/professions_semantic/professions_semantic_7.png"" class=""exp-image"">
                    <div class=""question-area"">
                        <p style=""font-size: 20px; font-weight: bold; margin: 0;"">Is there a person in this image?</p>
                    </div>
                </div>","0","main_experiment_trial","7","professions_semantic","semantic_sequence_notimeline","chronological","","","","","","",""
"","","","","","html-keyboard-response","31","114420","0.0-31.0","D39A144EC1D244DA9DC0F92F330544C1","019d6b90-7216-77f5-add9-67d68318df35","019d6b6d-d11f-7233-9b95-7a424dbf389f","","null","
                <div class=""stimulus-container"">
                    <img src=""semantic_sequence_notimeline/professions_semantic/professions_semantic_8.png"" class=""exp-image"">
                    <div class=""question-area""></div> 
                </div>","null","","","","","","","","","","","",""
"","","","","","html-button-response","32","115277","0.0-32.0","D39A144EC1D244DA9DC0F92F330544C1","019d6b90-7216-77f5-add9-67d68318df35","019d6b6d-d11f-7233-9b95-7a424dbf389f","","855","
                <div class=""stimulus-container"">
                    <img src=""semantic_sequence_notimeline/professions_semantic/professions_semantic_8.png"" class=""exp-image"">
                    <div class=""question-area"">
                        <p style=""font-size: 20px; font-weight: bold; margin: 0;"">Is there a person in this image?</p>
                    </div>
                </div>","0","main_experiment_trial","8","professions_semantic","semantic_sequence_notimeline","chronological","","","","","","",""
"","","","","","html-keyboard-response","33","120279","0.0-33.0","D39A144EC1D244DA9DC0F92F330544C1","019d6b90-7216-77f5-add9-67d68318df35","019d6b6d-d11f-7233-9b95-7a424dbf389f","","null","
                <div class=""stimulus-container"">
                    <img src=""semantic_sequence_notimeline/professions_semantic/professions_semantic_9.png"" class=""exp-image"">
                    <div class=""question-area""></div> 
                </div>","null","","","","","","","","","","","",""
"","","","","","html-button-response","34","121513","0.0-34.0","D39A144EC1D244DA9DC0F92F330544C1","019d6b90-7216-77f5-add9-67d68318df35","019d6b6d-d11f-7233-9b95-7a424dbf389f","","1232","
                <div class=""stimulus-container"">
                    <img src=""semantic_sequence_notimeline/professions_semantic/professions_semantic_9.png"" class=""exp-image"">
                    <div class=""question-area"">
                        <p style=""font-size: 20px; font-weight: bold; margin: 0;"">Is there a person in this image?</p>
                    </div>
                </div>","0","main_experiment_trial","9","professions_semantic","semantic_sequence_notimeline","chronological","","","","","","",""
"","","","","","html-keyboard-response","35","126515","0.0-35.0","D39A144EC1D244DA9DC0F92F330544C1","019d6b90-7216-77f5-add9-67d68318df35","019d6b6d-d11f-7233-9b95-7a424dbf389f","","null","
                <div class=""stimulus-container"">
                    <img src=""semantic_sequence_notimeline/professions_semantic/professions_semantic_ten.png"" class=""exp-image"">
                    <div class=""question-area""></div> 
                </div>","null","","","","","","","","","","","",""
"","","","","","html-button-response","36","127024","0.0-36.0","D39A144EC1D244DA9DC0F92F330544C1","019d6b90-7216-77f5-add9-67d68318df35","019d6b6d-d11f-7233-9b95-7a424dbf389f","","507","
                <div class=""stimulus-container"">
                    <img src=""semantic_sequence_notimeline/professions_semantic/professions_semantic_ten.png"" class=""exp-image"">
                    <div class=""question-area"">
                        <p style=""font-size: 20px; font-weight: bold; margin: 0;"">Is there a person in this image?</p>
                    </div>
                </div>","0","main_experiment_trial","ten","professions_semantic","semantic_sequence_notimeline","chronological","","","","","","",""
"","","","","","html-keyboard-response","37","132026","0.0-37.0","D39A144EC1D244DA9DC0F92F330544C1","019d6b90-7216-77f5-add9-67d68318df35","019d6b6d-d11f-7233-9b95-7a424dbf389f","","null","<div style=""background-color: white; width: 100vw; height: 100vh;""></div>","null","","","","","","","","","","","",""
"","","","","","html-keyboard-response","38","137028","0.0-38.0","D39A144EC1D244DA9DC0F92F330544C1","019d6b90-7216-77f5-add9-67d68318df35","019d6b6d-d11f-7233-9b95-7a424dbf389f","","null","
                <div class=""stimulus-container"">
                    <img src=""semantic_sequence_notimeline/household_objects_semantic/household_objects_semantic_1.png"" class=""exp-image"">
                    <div class=""question-area""></div> 
                </div>","null","","","","","","","","","","","",""
"","","","","","html-button-response","39","138155","0.0-39.0","D39A144EC1D244DA9DC0F92F330544C1","019d6b90-7216-77f5-add9-67d68318df35","019d6b6d-d11f-7233-9b95-7a424dbf389f","","1126","
                <div class=""stimulus-container"">
                    <img src=""semantic_sequence_notimeline/household_objects_semantic/household_objects_semantic_1.png"" class=""exp-image"">
                    <div class=""question-area"">
                        <p style=""font-size: 20px; font-weight: bold; margin: 0;"">Is there a person in this image?</p>
                    </div>
                </div>","1","main_experiment_trial","1","household_objects_semantic","semantic_sequence_notimeline","chronological","","","","","","",""
"","","","","","html-keyboard-response","40","143157","0.0-40.0","D39A144EC1D244DA9DC0F92F330544C1","019d6b90-7216-77f5-add9-67d68318df35","019d6b6d-d11f-7233-9b95-7a424dbf389f","","null","
                <div class=""stimulus-container"">
                    <img src=""semantic_sequence_notimeline/household_objects_semantic/household_objects_semantic_2.png"" class=""exp-image"">
                    <div class=""question-area""></div> 
                </div>","null","","","","","","","","","","","",""
"","","","","","html-button-response","41","144588","0.0-41.0","D39A144EC1D244DA9DC0F92F330544C1","019d6b90-7216-77f5-add9-67d68318df35","019d6b6d-d11f-7233-9b95-7a424dbf389f","","1428","
                <div class=""stimulus-container"">
                    <img src=""semantic_sequence_notimeline/household_objects_semantic/household_objects_semantic_2.png"" class=""exp-image"">
                    <div class=""question-area"">
                        <p style=""font-size: 20px; font-weight: bold; margin: 0;"">Is there a person in this image?</p>
                    </div>
                </div>","1","main_experiment_trial","2","household_objects_semantic","semantic_sequence_notimeline","chronological","","","","","","",""
"","","","","","html-keyboard-response","42","149589","0.0-42.0","D39A144EC1D244DA9DC0F92F330544C1","019d6b90-7216-77f5-add9-67d68318df35","019d6b6d-d11f-7233-9b95-7a424dbf389f","","null","
                <div class=""stimulus-container"">
                    <img src=""semantic_sequence_notimeline/household_objects_semantic/household_objects_semantic_3.png"" class=""exp-image"">
                    <div class=""question-area""></div> 
                </div>","null","","","","","","","","","","","",""
"","","","","","html-button-response","43","151169","0.0-43.0","D39A144EC1D244DA9DC0F92F330544C1","019d6b90-7216-77f5-add9-67d68318df35","019d6b6d-d11f-7233-9b95-7a424dbf389f","","1578","
                <div class=""stimulus-container"">
                    <img src=""semantic_sequence_notimeline/household_objects_semantic/household_objects_semantic_3.png"" class=""exp-image"">
                    <div class=""question-area"">
                        <p style=""font-size: 20px; font-weight: bold; margin: 0;"">Is there a person in this image?</p>
                    </div>
                </div>","1","main_experiment_trial","3","household_objects_semantic","semantic_sequence_notimeline","chronological","","","","","","",""
"","","","","","html-keyboard-response","44","156171","0.0-44.0","D39A144EC1D244DA9DC0F92F330544C1","019d6b90-7216-77f5-add9-67d68318df35","019d6b6d-d11f-7233-9b95-7a424dbf389f","","null","
                <div class=""stimulus-container"">
                    <img src=""semantic_sequence_notimeline/household_objects_semantic/household_objects_semantic_4.png"" class=""exp-image"">
                    <div class=""question-area""></div> 
                </div>","null","","","","","","","","","","","",""
"","","","","","html-button-response","45","157432","0.0-45.0","D39A144EC1D244DA9DC0F92F330544C1","019d6b90-7216-77f5-add9-67d68318df35","019d6b6d-d11f-7233-9b95-7a424dbf389f","","1259","
                <div class=""stimulus-container"">
                    <img src=""semantic_sequence_notimeline/household_objects_semantic/household_objects_semantic_4.png"" class=""exp-image"">
                    <div class=""question-area"">
                        <p style=""font-size: 20px; font-weight: bold; margin: 0;"">Is there a person in this image?</p>
                    </div>
                </div>","1","main_experiment_trial","4","household_objects_semantic","semantic_sequence_notimeline","chronological","","","","","","",""
"","","","","","html-keyboard-response","46","162434","0.0-46.0","D39A144EC1D244DA9DC0F92F330544C1","019d6b90-7216-77f5-add9-67d68318df35","019d6b6d-d11f-7233-9b95-7a424dbf389f","","null","
                <div class=""stimulus-container"">
                    <img src=""semantic_sequence_notimeline/household_objects_semantic/household_objects_semantic_5.png"" class=""exp-image"">
                    <div class=""question-area""></div> 
                </div>","null","","","","","","","","","","","",""
"","","","","","html-button-response","47","163359","0.0-47.0","D39A144EC1D244DA9DC0F92F330544C1","019d6b90-7216-77f5-add9-67d68318df35","019d6b6d-d11f-7233-9b95-7a424dbf389f","","923","
                <div class=""stimulus-container"">
                    <img src=""semantic_sequence_notimeline/household_objects_semantic/household_objects_semantic_5.png"" class=""exp-image"">
                    <div class=""question-area"">
                        <p style=""font-size: 20px; font-weight: bold; margin: 0;"">Is there a person in this image?</p>
                    </div>
                </div>","1","main_experiment_trial","5","household_objects_semantic","semantic_sequence_notimeline","chronological","","","","","","",""
"","","","","","html-keyboard-response","48","168361","0.0-48.0","D39A144EC1D244DA9DC0F92F330544C1","019d6b90-7216-77f5-add9-67d68318df35","019d6b6d-d11f-7233-9b95-7a424dbf389f","","null","
                <div class=""stimulus-container"">
                    <img src=""semantic_sequence_notimeline/household_objects_semantic/household_objects_semantic_6.png"" class=""exp-image"">
                    <div class=""question-area""></div> 
                </div>","null","","","","","","","","","","","",""
"","","","","","html-button-response","49","168898","0.0-49.0","D39A144EC1D244DA9DC0F92F330544C1","019d6b90-7216-77f5-add9-67d68318df35","019d6b6d-d11f-7233-9b95-7a424dbf389f","","535","
                <div class=""stimulus-container"">
                    <img src=""semantic_sequence_notimeline/household_objects_semantic/household_objects_semantic_6.png"" class=""exp-image"">
                    <div class=""question-area"">
                        <p style=""font-size: 20px; font-weight: bold; margin: 0;"">Is there a person in this image?</p>
                    </div>
                </div>","1","main_experiment_trial","6","household_objects_semantic","semantic_sequence_notimeline","chronological","","","","","","",""
"","","","","","html-keyboard-response","50","173900","0.0-50.0","D39A144EC1D244DA9DC0F92F330544C1","019d6b90-7216-77f5-add9-67d68318df35","019d6b6d-d11f-7233-9b95-7a424dbf389f","","null","
                <div class=""stimulus-container"">
                    <img src=""semantic_sequence_notimeline/household_objects_semantic/household_objects_semantic_7.png"" class=""exp-image"">
                    <div class=""question-area""></div> 
                </div>","null","","","","","","","","","","","",""
"","","","","","html-button-response","51","174627","0.0-51.0","D39A144EC1D244DA9DC0F92F330544C1","019d6b90-7216-77f5-add9-67d68318df35","019d6b6d-d11f-7233-9b95-7a424dbf389f","","725","
                <div class=""stimulus-container"">
                    <img src=""semantic_sequence_notimeline/household_objects_semantic/household_objects_semantic_7.png"" class=""exp-image"">
                    <div class=""question-area"">
                        <p style=""font-size: 20px; font-weight: bold; margin: 0;"">Is there a person in this image?</p>
                    </div>
                </div>","1","main_experiment_trial","7","household_objects_semantic","semantic_sequence_notimeline","chronological","","","","","","",""
"","","","","","html-keyboard-response","52","179628","0.0-52.0","D39A144EC1D244DA9DC0F92F330544C1","019d6b90-7216-77f5-add9-67d68318df35","019d6b6d-d11f-7233-9b95-7a424dbf389f","","null","
                <div class=""stimulus-container"">
                    <img src=""semantic_sequence_notimeline/household_objects_semantic/household_objects_semantic_8.png"" class=""exp-image"">
                    <div class=""question-area""></div> 
                </div>","null","","","","","","","","","","","",""
"","","","","","html-button-response","53","180254","0.0-53.0","D39A144EC1D244DA9DC0F92F330544C1","019d6b90-7216-77f5-add9-67d68318df35","019d6b6d-d11f-7233-9b95-7a424dbf389f","","626","
                <div class=""stimulus-container"">
                    <img src=""semantic_sequence_notimeline/household_objects_semantic/household_objects_semantic_8.png"" class=""exp-image"">
                    <div class=""question-area"">
                        <p style=""font-size: 20px; font-weight: bold; margin: 0;"">Is there a person in this image?</p>
                    </div>
                </div>","1","main_experiment_trial","8","household_objects_semantic","semantic_sequence_notimeline","chronological","","","","","","",""
"","","","","","html-keyboard-response","54","185256","0.0-54.0","D39A144EC1D244DA9DC0F92F330544C1","019d6b90-7216-77f5-add9-67d68318df35","019d6b6d-d11f-7233-9b95-7a424dbf389f","","null","
                <div class=""stimulus-container"">
                    <img src=""semantic_sequence_notimeline/household_objects_semantic/household_objects_semantic_9.png"" class=""exp-image"">
                    <div class=""question-area""></div> 
                </div>","null","","","","","","","","","","","",""
"","","","","","html-button-response","55","186301","0.0-55.0","D39A144EC1D244DA9DC0F92F330544C1","019d6b90-7216-77f5-add9-67d68318df35","019d6b6d-d11f-7233-9b95-7a424dbf389f","","1043","
                <div class=""stimulus-container"">
                    <img src=""semantic_sequence_notimeline/household_objects_semantic/household_objects_semantic_9.png"" class=""exp-image"">
                    <div class=""question-area"">
                        <p style=""font-size: 20px; font-weight: bold; margin: 0;"">Is there a person in this image?</p>
                    </div>
                </div>","1","main_experiment_trial","9","household_objects_semantic","semantic_sequence_notimeline","chronological","","","","","","",""
"","","","","","html-keyboard-response","56","191303","0.0-56.0","D39A144EC1D244DA9DC0F92F330544C1","019d6b90-7216-77f5-add9-67d68318df35","019d6b6d-d11f-7233-9b95-7a424dbf389f","","null","
                <div class=""stimulus-container"">
                    <img src=""semantic_sequence_notimeline/household_objects_semantic/household_objects_semantic_ten.png"" class=""exp-image"">
                    <div class=""question-area""></div> 
                </div>","null","","","","","","","","","","","",""
"","","","","","html-button-response","57","192138","0.0-57.0","D39A144EC1D244DA9DC0F92F330544C1","019d6b90-7216-77f5-add9-67d68318df35","019d6b6d-d11f-7233-9b95-7a424dbf389f","","833","
                <div class=""stimulus-container"">
                    <img src=""semantic_sequence_notimeline/household_objects_semantic/household_objects_semantic_ten.png"" class=""exp-image"">
                    <div class=""question-area"">
                        <p style=""font-size: 20px; font-weight: bold; margin: 0;"">Is there a person in this image?</p>
                    </div>
                </div>","1","main_experiment_trial","ten","household_objects_semantic","semantic_sequence_notimeline","chronological","","","","","","",""
"","","","","","html-keyboard-response","58","197139","0.0-58.0","D39A144EC1D244DA9DC0F92F330544C1","019d6b90-7216-77f5-add9-67d68318df35","019d6b6d-d11f-7233-9b95-7a424dbf389f","","null","<div style=""background-color: white; width: 100vw; height: 100vh;""></div>","null","","","","","","","","","","","",""
"","","","","","html-keyboard-response","59","202142","0.0-59.0","D39A144EC1D244DA9DC0F92F330544C1","019d6b90-7216-77f5-add9-67d68318df35","019d6b6d-d11f-7233-9b95-7a424dbf389f","","null","
                <div class=""stimulus-container"">
                    <img src=""images/causal_sequence/package_causal/package_causal_1.png"" class=""exp-image"">
                    <div class=""question-area""></div> 
                </div>","null","","","","","","","","","","","",""
"","","","","","html-button-response","60","203685","0.0-60.0","D39A144EC1D244DA9DC0F92F330544C1","019d6b90-7216-77f5-add9-67d68318df35","019d6b6d-d11f-7233-9b95-7a424dbf389f","","1541","
                <div class=""stimulus-container"">
                    <img src=""images/causal_sequence/package_causal/package_causal_1.png"" class=""exp-image"">
                    <div class=""question-area"">
                        <p style=""font-size: 20px; font-weight: bold; margin: 0;"">Is there a person in this image?</p>
                    </div>
                </div>","0","main_experiment_trial","1","package_causal","causal_sequence","chronological","","","","","","",""
"","","","","","html-keyboard-response","61","208686","0.0-61.0","D39A144EC1D244DA9DC0F92F330544C1","019d6b90-7216-77f5-add9-67d68318df35","019d6b6d-d11f-7233-9b95-7a424dbf389f","","null","
                <div class=""stimulus-container"">
                    <img src=""images/causal_sequence/package_causal/package_causal_2.png"" class=""exp-image"">
                    <div class=""question-area""></div> 
                </div>","null","","","","","","","","","","","",""
"","","","","","html-button-response","62","209513","0.0-62.0","D39A144EC1D244DA9DC0F92F330544C1","019d6b90-7216-77f5-add9-67d68318df35","019d6b6d-d11f-7233-9b95-7a424dbf389f","","826","
                <div class=""stimulus-container"">
                    <img src=""images/causal_sequence/package_causal/package_causal_2.png"" class=""exp-image"">
                    <div class=""question-area"">
                        <p style=""font-size: 20px; font-weight: bold; margin: 0;"">Is there a person in this image?</p>
                    </div>
                </div>","0","main_experiment_trial","2","package_causal","causal_sequence","chronological","","","","","","",""
"","","","","","html-keyboard-response","63","214515","0.0-63.0","D39A144EC1D244DA9DC0F92F330544C1","019d6b90-7216-77f5-add9-67d68318df35","019d6b6d-d11f-7233-9b95-7a424dbf389f","","null","
                <div class=""stimulus-container"">
                    <img src=""images/causal_sequence/package_causal/package_causal_3.png"" class=""exp-image"">
                    <div class=""question-area""></div> 
                </div>","null","","","","","","","","","","","",""
"","","","","","html-button-response","64","215024","0.0-64.0","D39A144EC1D244DA9DC0F92F330544C1","019d6b90-7216-77f5-add9-67d68318df35","019d6b6d-d11f-7233-9b95-7a424dbf389f","","507","
                <div class=""stimulus-container"">
                    <img src=""images/causal_sequence/package_causal/package_causal_3.png"" class=""exp-image"">
                    <div class=""question-area"">
                        <p style=""font-size: 20px; font-weight: bold; margin: 0;"">Is there a person in this image?</p>
                    </div>
                </div>","0","main_experiment_trial","3","package_causal","causal_sequence","chronological","","","","","","",""
"","","","","","html-keyboard-response","65","220025","0.0-65.0","D39A144EC1D244DA9DC0F92F330544C1","019d6b90-7216-77f5-add9-67d68318df35","019d6b6d-d11f-7233-9b95-7a424dbf389f","","null","
                <div class=""stimulus-container"">
                    <img src=""images/causal_sequence/package_causal/package_causal_4.png"" class=""exp-image"">
                    <div class=""question-area""></div> 
                </div>","null","","","","","","","","","","","",""
"","","","","","html-button-response","66","221070","0.0-66.0","D39A144EC1D244DA9DC0F92F330544C1","019d6b90-7216-77f5-add9-67d68318df35","019d6b6d-d11f-7233-9b95-7a424dbf389f","","1043","
                <div class=""stimulus-container"">
                    <img src=""images/causal_sequence/package_causal/package_causal_4.png"" class=""exp-image"">
                    <div class=""question-area"">
                        <p style=""font-size: 20px; font-weight: bold; margin: 0;"">Is there a person in this image?</p>
                    </div>
                </div>","1","main_experiment_trial","4","package_causal","causal_sequence","chronological","","","","","","",""
"","","","","","html-keyboard-response","67","226073","0.0-67.0","D39A144EC1D244DA9DC0F92F330544C1","019d6b90-7216-77f5-add9-67d68318df35","019d6b6d-d11f-7233-9b95-7a424dbf389f","","null","
                <div class=""stimulus-container"">
                    <img src=""images/causal_sequence/package_causal/package_causal_5.png"" class=""exp-image"">
                    <div class=""question-area""></div> 
                </div>","null","","","","","","","","","","","",""
"","","","","","html-button-response","68","226911","0.0-68.0","D39A144EC1D244DA9DC0F92F330544C1","019d6b90-7216-77f5-add9-67d68318df35","019d6b6d-d11f-7233-9b95-7a424dbf389f","","836","
                <div class=""stimulus-container"">
                    <img src=""images/causal_sequence/package_causal/package_causal_5.png"" class=""exp-image"">
                    <div class=""question-area"">
                        <p style=""font-size: 20px; font-weight: bold; margin: 0;"">Is there a person in this image?</p>
                    </div>
                </div>","0","main_experiment_trial","5","package_causal","causal_sequence","chronological","","","","","","",""
"","","","","","html-keyboard-response","69","231913","0.0-69.0","D39A144EC1D244DA9DC0F92F330544C1","019d6b90-7216-77f5-add9-67d68318df35","019d6b6d-d11f-7233-9b95-7a424dbf389f","","null","
                <div class=""stimulus-container"">
                    <img src=""images/causal_sequence/package_causal/package_causal_6.png"" class=""exp-image"">
                    <div class=""question-area""></div> 
                </div>","null","","","","","","","","","","","",""
"","","","","","html-button-response","70","232759","0.0-70.0","D39A144EC1D244DA9DC0F92F330544C1","019d6b90-7216-77f5-add9-67d68318df35","019d6b6d-d11f-7233-9b95-7a424dbf389f","","844","
                <div class=""stimulus-container"">
                    <img src=""images/causal_sequence/package_causal/package_causal_6.png"" class=""exp-image"">
                    <div class=""question-area"">
                        <p style=""font-size: 20px; font-weight: bold; margin: 0;"">Is there a person in this image?</p>
                    </div>
                </div>","0","main_experiment_trial","6","package_causal","causal_sequence","chronological","","","","","","",""
"","","","","","html-keyboard-response","71","237761","0.0-71.0","D39A144EC1D244DA9DC0F92F330544C1","019d6b90-7216-77f5-add9-67d68318df35","019d6b6d-d11f-7233-9b95-7a424dbf389f","","null","
                <div class=""stimulus-container"">
                    <img src=""images/causal_sequence/package_causal/package_causal_7.png"" class=""exp-image"">
                    <div class=""question-area""></div> 
                </div>","null","","","","","","","","","","","",""
"","","","","","html-button-response","72","238401","0.0-72.0","D39A144EC1D244DA9DC0F92F330544C1","019d6b90-7216-77f5-add9-67d68318df35","019d6b6d-d11f-7233-9b95-7a424dbf389f","","638","
                <div class=""stimulus-container"">
                    <img src=""images/causal_sequence/package_causal/package_causal_7.png"" class=""exp-image"">
                    <div class=""question-area"">
                        <p style=""font-size: 20px; font-weight: bold; margin: 0;"">Is there a person in this image?</p>
                    </div>
                </div>","0","main_experiment_trial","7","package_causal","causal_sequence","chronological","","","","","","",""
"","","","","","html-keyboard-response","73","243402","0.0-73.0","D39A144EC1D244DA9DC0F92F330544C1","019d6b90-7216-77f5-add9-67d68318df35","019d6b6d-d11f-7233-9b95-7a424dbf389f","","null","
                <div class=""stimulus-container"">
                    <img src=""images/causal_sequence/package_causal/package_causal_8.png"" class=""exp-image"">
                    <div class=""question-area""></div> 
                </div>","null","","","","","","","","","","","",""
"","","","","","html-button-response","74","243852","0.0-74.0","D39A144EC1D244DA9DC0F92F330544C1","019d6b90-7216-77f5-add9-67d68318df35","019d6b6d-d11f-7233-9b95-7a424dbf389f","","449","
                <div class=""stimulus-container"">
                    <img src=""images/causal_sequence/package_causal/package_causal_8.png"" class=""exp-image"">
                    <div class=""question-area"">
                        <p style=""font-size: 20px; font-weight: bold; margin: 0;"">Is there a person in this image?</p>
                    </div>
                </div>","0","main_experiment_trial","8","package_causal","causal_sequence","chronological","","","","","","",""
"","","","","","html-keyboard-response","75","248854","0.0-75.0","D39A144EC1D244DA9DC0F92F330544C1","019d6b90-7216-77f5-add9-67d68318df35","019d6b6d-d11f-7233-9b95-7a424dbf389f","","null","
                <div class=""stimulus-container"">
                    <img src=""images/causal_sequence/package_causal/package_causal_9.png"" class=""exp-image"">
                    <div class=""question-area""></div> 
                </div>","null","","","","","","","","","","","",""
"","","","","","html-button-response","76","249256","0.0-76.0","D39A144EC1D244DA9DC0F92F330544C1","019d6b90-7216-77f5-add9-67d68318df35","019d6b6d-d11f-7233-9b95-7a424dbf389f","","400","
                <div class=""stimulus-container"">
                    <img src=""images/causal_sequence/package_causal/package_causal_9.png"" class=""exp-image"">
                    <div class=""question-area"">
                        <p style=""font-size: 20px; font-weight: bold; margin: 0;"">Is there a person in this image?</p>
                    </div>
                </div>","0","main_experiment_trial","9","package_causal","causal_sequence","chronological","","","","","","",""
"","","","","","html-keyboard-response","77","254257","0.0-77.0","D39A144EC1D244DA9DC0F92F330544C1","019d6b90-7216-77f5-add9-67d68318df35","019d6b6d-d11f-7233-9b95-7a424dbf389f","","null","
                <div class=""stimulus-container"">
                    <img src=""images/causal_sequence/package_causal/package_causal_ten.png"" class=""exp-image"">
                    <div class=""question-area""></div> 
                </div>","null","","","","","","","","","","","",""
"","","","","","html-button-response","78","255076","0.0-78.0","D39A144EC1D244DA9DC0F92F330544C1","019d6b90-7216-77f5-add9-67d68318df35","019d6b6d-d11f-7233-9b95-7a424dbf389f","","816","
                <div class=""stimulus-container"">
                    <img src=""images/causal_sequence/package_causal/package_causal_ten.png"" class=""exp-image"">
                    <div class=""question-area"">
                        <p style=""font-size: 20px; font-weight: bold; margin: 0;"">Is there a person in this image?</p>
                    </div>
                </div>","0","main_experiment_trial","ten","package_causal","causal_sequence","chronological","","","","","","",""
"","","","","","html-keyboard-response","79","260077","0.0-79.0","D39A144EC1D244DA9DC0F92F330544C1","019d6b90-7216-77f5-add9-67d68318df35","019d6b6d-d11f-7233-9b95-7a424dbf389f","","null","<div style=""background-color: white; width: 100vw; height: 100vh;""></div>","null","","","","","","","","","","","",""
"","","","","","html-keyboard-response","80","265080","0.0-80.0","D39A144EC1D244DA9DC0F92F330544C1","019d6b90-7216-77f5-add9-67d68318df35","019d6b6d-d11f-7233-9b95-7a424dbf389f","","null","
                <div class=""stimulus-container"">
                    <img src=""images/causal_sequence/museum_causal/museum_causal_1.png"" class=""exp-image"">
                    <div class=""question-area""></div> 
                </div>","null","","","","","","","","","","","",""
"","","","","","html-button-response","81","265841","0.0-81.0","D39A144EC1D244DA9DC0F92F330544C1","019d6b90-7216-77f5-add9-67d68318df35","019d6b6d-d11f-7233-9b95-7a424dbf389f","","759","
                <div class=""stimulus-container"">
                    <img src=""images/causal_sequence/museum_causal/museum_causal_1.png"" class=""exp-image"">
                    <div class=""question-area"">
                        <p style=""font-size: 20px; font-weight: bold; margin: 0;"">Is there a person in this image?</p>
                    </div>
                </div>","0","main_experiment_trial","1","museum_causal","causal_sequence","chronological","","","","","","",""
"","","","","","html-keyboard-response","82","270842","0.0-82.0","D39A144EC1D244DA9DC0F92F330544C1","019d6b90-7216-77f5-add9-67d68318df35","019d6b6d-d11f-7233-9b95-7a424dbf389f","","null","
                <div class=""stimulus-container"">
                    <img src=""images/causal_sequence/museum_causal/museum_causal_2.png"" class=""exp-image"">
                    <div class=""question-area""></div> 
                </div>","null","","","","","","","","","","","",""
"","","","","","html-button-response","83","273721","0.0-83.0","D39A144EC1D244DA9DC0F92F330544C1","019d6b90-7216-77f5-add9-67d68318df35","019d6b6d-d11f-7233-9b95-7a424dbf389f","","2877","
                <div class=""stimulus-container"">
                    <img src=""images/causal_sequence/museum_causal/museum_causal_2.png"" class=""exp-image"">
                    <div class=""question-area"">
                        <p style=""font-size: 20px; font-weight: bold; margin: 0;"">Is there a person in this image?</p>
                    </div>
                </div>","0","main_experiment_trial","2","museum_causal","causal_sequence","chronological","","","","","","",""
"","","","","","html-keyboard-response","84","278723","0.0-84.0","D39A144EC1D244DA9DC0F92F330544C1","019d6b90-7216-77f5-add9-67d68318df35","019d6b6d-d11f-7233-9b95-7a424dbf389f","","null","
                <div class=""stimulus-container"">
                    <img src=""images/causal_sequence/museum_causal/museum_causal_3.png"" class=""exp-image"">
                    <div class=""question-area""></div> 
                </div>","null","","","","","","","","","","","",""
"","","","","","html-button-response","85","281008","0.0-85.0","D39A144EC1D244DA9DC0F92F330544C1","019d6b90-7216-77f5-add9-67d68318df35","019d6b6d-d11f-7233-9b95-7a424dbf389f","","2283","
                <div class=""stimulus-container"">
                    <img src=""images/causal_sequence/museum_causal/museum_causal_3.png"" class=""exp-image"">
                    <div class=""question-area"">
                        <p style=""font-size: 20px; font-weight: bold; margin: 0;"">Is there a person in this image?</p>
                    </div>
                </div>","0","main_experiment_trial","3","museum_causal","causal_sequence","chronological","","","","","","",""
"","","","","","html-keyboard-response","86","286009","0.0-86.0","D39A144EC1D244DA9DC0F92F330544C1","019d6b90-7216-77f5-add9-67d68318df35","019d6b6d-d11f-7233-9b95-7a424dbf389f","","null","
                <div class=""stimulus-container"">
                    <img src=""images/causal_sequence/museum_causal/museum_causal_4.png"" class=""exp-image"">
                    <div class=""question-area""></div> 
                </div>","null","","","","","","","","","","","",""
"","","","","","html-button-response","87","287788","0.0-87.0","D39A144EC1D244DA9DC0F92F330544C1","019d6b90-7216-77f5-add9-67d68318df35","019d6b6d-d11f-7233-9b95-7a424dbf389f","","1777","
                <div class=""stimulus-container"">
                    <img src=""images/causal_sequence/museum_causal/museum_causal_4.png"" class=""exp-image"">
                    <div class=""question-area"">
                        <p style=""font-size: 20px; font-weight: bold; margin: 0;"">Is there a person in this image?</p>
                    </div>
                </div>","1","main_experiment_trial","4","museum_causal","causal_sequence","chronological","","","","","","",""
"","","","","","html-keyboard-response","88","292790","0.0-88.0","D39A144EC1D244DA9DC0F92F330544C1","019d6b90-7216-77f5-add9-67d68318df35","019d6b6d-d11f-7233-9b95-7a424dbf389f","","null","
                <div class=""stimulus-container"">
                    <img src=""images/causal_sequence/museum_causal/museum_causal_5.png"" class=""exp-image"">
                    <div class=""question-area""></div> 
                </div>","null","","","","","","","","","","","",""
"","","","","","html-button-response","89","294510","0.0-89.0","D39A144EC1D244DA9DC0F92F330544C1","019d6b90-7216-77f5-add9-67d68318df35","019d6b6d-d11f-7233-9b95-7a424dbf389f","","1718","
                <div class=""stimulus-container"">
                    <img src=""images/causal_sequence/museum_causal/museum_causal_5.png"" class=""exp-image"">
                    <div class=""question-area"">
                        <p style=""font-size: 20px; font-weight: bold; margin: 0;"">Is there a person in this image?</p>
                    </div>
                </div>","0","main_experiment_trial","5","museum_causal","causal_sequence","chronological","","","","","","",""
"","","","","","html-keyboard-response","90","299511","0.0-90.0","D39A144EC1D244DA9DC0F92F330544C1","019d6b90-7216-77f5-add9-67d68318df35","019d6b6d-d11f-7233-9b95-7a424dbf389f","","null","
                <div class=""stimulus-container"">
                    <img src=""images/causal_sequence/museum_causal/museum_causal_6.png"" class=""exp-image"">
                    <div class=""question-area""></div> 
                </div>","null","","","","","","","","","","","",""
"","","","","","html-button-response","91","302513","0.0-91.0","D39A144EC1D244DA9DC0F92F330544C1","019d6b90-7216-77f5-add9-67d68318df35","019d6b6d-d11f-7233-9b95-7a424dbf389f","","null","
                <div class=""stimulus-container"">
                    <img src=""images/causal_sequence/museum_causal/museum_causal_6.png"" class=""exp-image"">
                    <div class=""question-area"">
                        <p style=""font-size: 20px; font-weight: bold; margin: 0;"">Is there a person in this image?</p>
                    </div>
                </div>","null","main_experiment_trial","6","museum_causal","causal_sequence","chronological","","","","","","",""
"","","","","","html-keyboard-response","92","307515","0.0-92.0","D39A144EC1D244DA9DC0F92F330544C1","019d6b90-7216-77f5-add9-67d68318df35","019d6b6d-d11f-7233-9b95-7a424dbf389f","","null","
                <div class=""stimulus-container"">
                    <img src=""images/causal_sequence/museum_causal/museum_causal_7.png"" class=""exp-image"">
                    <div class=""question-area""></div> 
                </div>","null","","","","","","","","","","","",""
"","","","","","html-button-response","93","308587","0.0-93.0","D39A144EC1D244DA9DC0F92F330544C1","019d6b90-7216-77f5-add9-67d68318df35","019d6b6d-d11f-7233-9b95-7a424dbf389f","","1070","
                <div class=""stimulus-container"">
                    <img src=""images/causal_sequence/museum_causal/museum_causal_7.png"" class=""exp-image"">
                    <div class=""question-area"">
                        <p style=""font-size: 20px; font-weight: bold; margin: 0;"">Is there a person in this image?</p>
                    </div>
                </div>","1","main_experiment_trial","7","museum_causal","causal_sequence","chronological","","","","","","",""
"","","","","","html-keyboard-response","94","313588","0.0-94.0","D39A144EC1D244DA9DC0F92F330544C1","019d6b90-7216-77f5-add9-67d68318df35","019d6b6d-d11f-7233-9b95-7a424dbf389f","","null","
                <div class=""stimulus-container"">
                    <img src=""images/causal_sequence/museum_causal/museum_causal_8.png"" class=""exp-image"">
                    <div class=""question-area""></div> 
                </div>","null","","","","","","","","","","","",""
"","","","","","html-button-response","95","314853","0.0-95.0","D39A144EC1D244DA9DC0F92F330544C1","019d6b90-7216-77f5-add9-67d68318df35","019d6b6d-d11f-7233-9b95-7a424dbf389f","","1263","
                <div class=""stimulus-container"">
                    <img src=""images/causal_sequence/museum_causal/museum_causal_8.png"" class=""exp-image"">
                    <div class=""question-area"">
                        <p style=""font-size: 20px; font-weight: bold; margin: 0;"">Is there a person in this image?</p>
                    </div>
                </div>","0","main_experiment_trial","8","museum_causal","causal_sequence","chronological","","","","","","",""
"","","","","","html-keyboard-response","96","319854","0.0-96.0","D39A144EC1D244DA9DC0F92F330544C1","019d6b90-7216-77f5-add9-67d68318df35","019d6b6d-d11f-7233-9b95-7a424dbf389f","","null","
                <div class=""stimulus-container"">
                    <img src=""images/causal_sequence/museum_causal/museum_causal_9.png"" class=""exp-image"">
                    <div class=""question-area""></div> 
                </div>","null","","","","","","","","","","","",""
"","","","","","html-button-response","97","321367","0.0-97.0","D39A144EC1D244DA9DC0F92F330544C1","019d6b90-7216-77f5-add9-67d68318df35","019d6b6d-d11f-7233-9b95-7a424dbf389f","","1512","
                <div class=""stimulus-container"">
                    <img src=""images/causal_sequence/museum_causal/museum_causal_9.png"" class=""exp-image"">
                    <div class=""question-area"">
                        <p style=""font-size: 20px; font-weight: bold; margin: 0;"">Is there a person in this image?</p>
                    </div>
                </div>","1","main_experiment_trial","9","museum_causal","causal_sequence","chronological","","","","","","",""
"","","","","","html-keyboard-response","98","326368","0.0-98.0","D39A144EC1D244DA9DC0F92F330544C1","019d6b90-7216-77f5-add9-67d68318df35","019d6b6d-d11f-7233-9b95-7a424dbf389f","","null","
                <div class=""stimulus-container"">
                    <img src=""images/causal_sequence/museum_causal/museum_causal_ten.png"" class=""exp-image"">
                    <div class=""question-area""></div> 
                </div>","null","","","","","","","","","","","",""
"","","","","","html-button-response","99","327829","0.0-99.0","D39A144EC1D244DA9DC0F92F330544C1","019d6b90-7216-77f5-add9-67d68318df35","019d6b6d-d11f-7233-9b95-7a424dbf389f","","1459","
                <div class=""stimulus-container"">
                    <img src=""images/causal_sequence/museum_causal/museum_causal_ten.png"" class=""exp-image"">
                    <div class=""question-area"">
                        <p style=""font-size: 20px; font-weight: bold; margin: 0;"">Is there a person in this image?</p>
                    </div>
                </div>","0","main_experiment_trial","ten","museum_causal","causal_sequence","chronological","","","","","","",""
"","","","","","html-keyboard-response","100","332831","0.0-100.0","D39A144EC1D244DA9DC0F92F330544C1","019d6b90-7216-77f5-add9-67d68318df35","019d6b6d-d11f-7233-9b95-7a424dbf389f","","null","<div style=""background-color: white; width: 100vw; height: 100vh;""></div>","null","","","","","","","","","","","",""
"","","","","","html-keyboard-response","101","337833","0.0-101.0","D39A144EC1D244DA9DC0F92F330544C1","019d6b90-7216-77f5-add9-67d68318df35","019d6b6d-d11f-7233-9b95-7a424dbf389f","","null","
                <div class=""stimulus-container"">
                    <img src=""semantic_sequence_notimeline/fruits_semantic/fruits_semantic_1.png"" class=""exp-image"">
                    <div class=""question-area""></div> 
                </div>","null","","","","","","","","","","","",""
"","","","","","html-button-response","102","338993","0.0-102.0","D39A144EC1D244DA9DC0F92F330544C1","019d6b90-7216-77f5-add9-67d68318df35","019d6b6d-d11f-7233-9b95-7a424dbf389f","","1158","
                <div class=""stimulus-container"">
                    <img src=""semantic_sequence_notimeline/fruits_semantic/fruits_semantic_1.png"" class=""exp-image"">
                    <div class=""question-area"">
                        <p style=""font-size: 20px; font-weight: bold; margin: 0;"">Is there a person in this image?</p>
                    </div>
                </div>","1","main_experiment_trial","1","fruits_semantic","semantic_sequence_notimeline","chronological","","","","","","",""
"","","","","","html-keyboard-response","103","343995","0.0-103.0","D39A144EC1D244DA9DC0F92F330544C1","019d6b90-7216-77f5-add9-67d68318df35","019d6b6d-d11f-7233-9b95-7a424dbf389f","","null","
                <div class=""stimulus-container"">
                    <img src=""semantic_sequence_notimeline/fruits_semantic/fruits_semantic_2.png"" class=""exp-image"">
                    <div class=""question-area""></div> 
                </div>","null","","","","","","","","","","","",""
"","","","","","html-button-response","104","344752","0.0-104.0","D39A144EC1D244DA9DC0F92F330544C1","019d6b90-7216-77f5-add9-67d68318df35","019d6b6d-d11f-7233-9b95-7a424dbf389f","","755","
                <div class=""stimulus-container"">
                    <img src=""semantic_sequence_notimeline/fruits_semantic/fruits_semantic_2.png"" class=""exp-image"">
                    <div class=""question-area"">
                        <p style=""font-size: 20px; font-weight: bold; margin: 0;"">Is there a person in this image?</p>
                    </div>
                </div>","1","main_experiment_trial","2","fruits_semantic","semantic_sequence_notimeline","chronological","","","","","","",""
"","","","","","html-keyboard-response","105","349753","0.0-105.0","D39A144EC1D244DA9DC0F92F330544C1","019d6b90-7216-77f5-add9-67d68318df35","019d6b6d-d11f-7233-9b95-7a424dbf389f","","null","
                <div class=""stimulus-container"">
                    <img src=""semantic_sequence_notimeline/fruits_semantic/fruits_semantic_3.png"" class=""exp-image"">
                    <div class=""question-area""></div> 
                </div>","null","","","","","","","","","","","",""
"","","","","","html-button-response","106","350917","0.0-106.0","D39A144EC1D244DA9DC0F92F330544C1","019d6b90-7216-77f5-add9-67d68318df35","019d6b6d-d11f-7233-9b95-7a424dbf389f","","1162","
                <div class=""stimulus-container"">
                    <img src=""semantic_sequence_notimeline/fruits_semantic/fruits_semantic_3.png"" class=""exp-image"">
                    <div class=""question-area"">
                        <p style=""font-size: 20px; font-weight: bold; margin: 0;"">Is there a person in this image?</p>
                    </div>
                </div>","1","main_experiment_trial","3","fruits_semantic","semantic_sequence_notimeline","chronological","","","","","","",""
"","","","","","html-keyboard-response","107","355919","0.0-107.0","D39A144EC1D244DA9DC0F92F330544C1","019d6b90-7216-77f5-add9-67d68318df35","019d6b6d-d11f-7233-9b95-7a424dbf389f","","null","
                <div class=""stimulus-container"">
                    <img src=""semantic_sequence_notimeline/fruits_semantic/fruits_semantic_4.png"" class=""exp-image"">
                    <div class=""question-area""></div> 
                </div>","null","","","","","","","","","","","",""
"","","","","","html-button-response","108","357043","0.0-108.0","D39A144EC1D244DA9DC0F92F330544C1","019d6b90-7216-77f5-add9-67d68318df35","019d6b6d-d11f-7233-9b95-7a424dbf389f","","1122","
                <div class=""stimulus-container"">
                    <img src=""semantic_sequence_notimeline/fruits_semantic/fruits_semantic_4.png"" class=""exp-image"">
                    <div class=""question-area"">
                        <p style=""font-size: 20px; font-weight: bold; margin: 0;"">Is there a person in this image?</p>
                    </div>
                </div>","1","main_experiment_trial","4","fruits_semantic","semantic_sequence_notimeline","chronological","","","","","","",""
"","","","","","html-keyboard-response","109","362045","0.0-109.0","D39A144EC1D244DA9DC0F92F330544C1","019d6b90-7216-77f5-add9-67d68318df35","019d6b6d-d11f-7233-9b95-7a424dbf389f","","null","
                <div class=""stimulus-container"">
                    <img src=""semantic_sequence_notimeline/fruits_semantic/fruits_semantic_5.png"" class=""exp-image"">
                    <div class=""question-area""></div> 
                </div>","null","","","","","","","","","","","",""
"","","","","","html-button-response","110","362883","0.0-110.0","D39A144EC1D244DA9DC0F92F330544C1","019d6b90-7216-77f5-add9-67d68318df35","019d6b6d-d11f-7233-9b95-7a424dbf389f","","836","
                <div class=""stimulus-container"">
                    <img src=""semantic_sequence_notimeline/fruits_semantic/fruits_semantic_5.png"" class=""exp-image"">
                    <div class=""question-area"">
                        <p style=""font-size: 20px; font-weight: bold; margin: 0;"">Is there a person in this image?</p>
                    </div>
                </div>","1","main_experiment_trial","5","fruits_semantic","semantic_sequence_notimeline","chronological","","","","","","",""
"","","","","","html-keyboard-response","111","367885","0.0-111.0","D39A144EC1D244DA9DC0F92F330544C1","019d6b90-7216-77f5-add9-67d68318df35","019d6b6d-d11f-7233-9b95-7a424dbf389f","","null","
                <div class=""stimulus-container"">
                    <img src=""semantic_sequence_notimeline/fruits_semantic/fruits_semantic_6.png"" class=""exp-image"">
                    <div class=""question-area""></div> 
                </div>","null","","","","","","","","","","","",""
"","","","","","html-button-response","112","368534","0.0-112.0","D39A144EC1D244DA9DC0F92F330544C1","019d6b90-7216-77f5-add9-67d68318df35","019d6b6d-d11f-7233-9b95-7a424dbf389f","","647","
                <div class=""stimulus-container"">
                    <img src=""semantic_sequence_notimeline/fruits_semantic/fruits_semantic_6.png"" class=""exp-image"">
                    <div class=""question-area"">
                        <p style=""font-size: 20px; font-weight: bold; margin: 0;"">Is there a person in this image?</p>
                    </div>
                </div>","1","main_experiment_trial","6","fruits_semantic","semantic_sequence_notimeline","chronological","","","","","","",""
"","","","","","html-keyboard-response","113","373536","0.0-113.0","D39A144EC1D244DA9DC0F92F330544C1","019d6b90-7216-77f5-add9-67d68318df35","019d6b6d-d11f-7233-9b95-7a424dbf389f","","null","
                <div class=""stimulus-container"">
                    <img src=""semantic_sequence_notimeline/fruits_semantic/fruits_semantic_7.png"" class=""exp-image"">
                    <div class=""question-area""></div> 
                </div>","null","","","","","","","","","","","",""
"","","","","","html-button-response","114","374761","0.0-114.0","D39A144EC1D244DA9DC0F92F330544C1","019d6b90-7216-77f5-add9-67d68318df35","019d6b6d-d11f-7233-9b95-7a424dbf389f","","1223","
                <div class=""stimulus-container"">
                    <img src=""semantic_sequence_notimeline/fruits_semantic/fruits_semantic_7.png"" class=""exp-image"">
                    <div class=""question-area"">
                        <p style=""font-size: 20px; font-weight: bold; margin: 0;"">Is there a person in this image?</p>
                    </div>
                </div>","1","main_experiment_trial","7","fruits_semantic","semantic_sequence_notimeline","chronological","","","","","","",""
"","","","","","html-keyboard-response","115","379762","0.0-115.0","D39A144EC1D244DA9DC0F92F330544C1","019d6b90-7216-77f5-add9-67d68318df35","019d6b6d-d11f-7233-9b95-7a424dbf389f","","null","
                <div class=""stimulus-container"">
                    <img src=""semantic_sequence_notimeline/fruits_semantic/fruits_semantic_8.png"" class=""exp-image"">
                    <div class=""question-area""></div> 
                </div>","null","","","","","","","","","","","",""
"","","","","","html-button-response","116","380747","0.0-116.0","D39A144EC1D244DA9DC0F92F330544C1","019d6b90-7216-77f5-add9-67d68318df35","019d6b6d-d11f-7233-9b95-7a424dbf389f","","983","
                <div class=""stimulus-container"">
                    <img src=""semantic_sequence_notimeline/fruits_semantic/fruits_semantic_8.png"" class=""exp-image"">
                    <div class=""question-area"">
                        <p style=""font-size: 20px; font-weight: bold; margin: 0;"">Is there a person in this image?</p>
                    </div>
                </div>","1","main_experiment_trial","8","fruits_semantic","semantic_sequence_notimeline","chronological","","","","","","",""
"","","","","","html-keyboard-response","117","385749","0.0-117.0","D39A144EC1D244DA9DC0F92F330544C1","019d6b90-7216-77f5-add9-67d68318df35","019d6b6d-d11f-7233-9b95-7a424dbf389f","","null","
                <div class=""stimulus-container"">
                    <img src=""semantic_sequence_notimeline/fruits_semantic/fruits_semantic_9.png"" class=""exp-image"">
                    <div class=""question-area""></div> 
                </div>","null","","","","","","","","","","","",""
"","","","","","html-button-response","118","387271","0.0-118.0","D39A144EC1D244DA9DC0F92F330544C1","019d6b90-7216-77f5-add9-67d68318df35","019d6b6d-d11f-7233-9b95-7a424dbf389f","","1520","
                <div class=""stimulus-container"">
                    <img src=""semantic_sequence_notimeline/fruits_semantic/fruits_semantic_9.png"" class=""exp-image"">
                    <div class=""question-area"">
                        <p style=""font-size: 20px; font-weight: bold; margin: 0;"">Is there a person in this image?</p>
                    </div>
                </div>","1","main_experiment_trial","9","fruits_semantic","semantic_sequence_notimeline","chronological","","","","","","",""
"","","","","","html-keyboard-response","119","392273","0.0-119.0","D39A144EC1D244DA9DC0F92F330544C1","019d6b90-7216-77f5-add9-67d68318df35","019d6b6d-d11f-7233-9b95-7a424dbf389f","","null","
                <div class=""stimulus-container"">
                    <img src=""semantic_sequence_notimeline/fruits_semantic/fruits_semantic_ten.png"" class=""exp-image"">
                    <div class=""question-area""></div> 
                </div>","null","","","","","","","","","","","",""
"","","","","","html-button-response","120","392921","0.0-120.0","D39A144EC1D244DA9DC0F92F330544C1","019d6b90-7216-77f5-add9-67d68318df35","019d6b6d-d11f-7233-9b95-7a424dbf389f","","646","
                <div class=""stimulus-container"">
                    <img src=""semantic_sequence_notimeline/fruits_semantic/fruits_semantic_ten.png"" class=""exp-image"">
                    <div class=""question-area"">
                        <p style=""font-size: 20px; font-weight: bold; margin: 0;"">Is there a person in this image?</p>
                    </div>
                </div>","1","main_experiment_trial","ten","fruits_semantic","semantic_sequence_notimeline","chronological","","","","","","",""
"","","","","","html-keyboard-response","121","397923","0.0-121.0","D39A144EC1D244DA9DC0F92F330544C1","019d6b90-7216-77f5-add9-67d68318df35","019d6b6d-d11f-7233-9b95-7a424dbf389f","","null","<div style=""background-color: white; width: 100vw; height: 100vh;""></div>","null","","","","","","","","","","","",""
"","","","","","html-keyboard-response","122","402925","0.0-122.0","D39A144EC1D244DA9DC0F92F330544C1","019d6b90-7216-77f5-add9-67d68318df35","019d6b6d-d11f-7233-9b95-7a424dbf389f","","null","
                <div class=""stimulus-container"">
                    <img src=""semantic_sequence_notimeline/clothing_semantic/clothing_semantic_1.png"" class=""exp-image"">
                    <div class=""question-area""></div> 
                </div>","null","","","","","","","","","","","",""
"","","","","","html-button-response","123","404272","0.0-123.0","D39A144EC1D244DA9DC0F92F330544C1","019d6b90-7216-77f5-add9-67d68318df35","019d6b6d-d11f-7233-9b95-7a424dbf389f","","1346","
                <div class=""stimulus-container"">
                    <img src=""semantic_sequence_notimeline/clothing_semantic/clothing_semantic_1.png"" class=""exp-image"">
                    <div class=""question-area"">
                        <p style=""font-size: 20px; font-weight: bold; margin: 0;"">Is there a person in this image?</p>
                    </div>
                </div>","1","main_experiment_trial","1","clothing_semantic","semantic_sequence_notimeline","chronological","","","","","","",""
"","","","","","html-keyboard-response","124","409273","0.0-124.0","D39A144EC1D244DA9DC0F92F330544C1","019d6b90-7216-77f5-add9-67d68318df35","019d6b6d-d11f-7233-9b95-7a424dbf389f","","null","
                <div class=""stimulus-container"">
                    <img src=""semantic_sequence_notimeline/clothing_semantic/clothing_semantic_2.png"" class=""exp-image"">
                    <div class=""question-area""></div> 
                </div>","null","","","","","","","","","","","",""
"","","","","","html-button-response","125","409950","0.0-125.0","D39A144EC1D244DA9DC0F92F330544C1","019d6b90-7216-77f5-add9-67d68318df35","019d6b6d-d11f-7233-9b95-7a424dbf389f","","675","
                <div class=""stimulus-container"">
                    <img src=""semantic_sequence_notimeline/clothing_semantic/clothing_semantic_2.png"" class=""exp-image"">
                    <div class=""question-area"">
                        <p style=""font-size: 20px; font-weight: bold; margin: 0;"">Is there a person in this image?</p>
                    </div>
                </div>","1","main_experiment_trial","2","clothing_semantic","semantic_sequence_notimeline","chronological","","","","","","",""
"","","","","","html-keyboard-response","126","414952","0.0-126.0","D39A144EC1D244DA9DC0F92F330544C1","019d6b90-7216-77f5-add9-67d68318df35","019d6b6d-d11f-7233-9b95-7a424dbf389f","","null","
                <div class=""stimulus-container"">
                    <img src=""semantic_sequence_notimeline/clothing_semantic/clothing_semantic_3.png"" class=""exp-image"">
                    <div class=""question-area""></div> 
                </div>","null","","","","","","","","","","","",""
"","","","","","html-button-response","127","416414","0.0-127.0","D39A144EC1D244DA9DC0F92F330544C1","019d6b90-7216-77f5-add9-67d68318df35","019d6b6d-d11f-7233-9b95-7a424dbf389f","","1460","
                <div class=""stimulus-container"">
                    <img src=""semantic_sequence_notimeline/clothing_semantic/clothing_semantic_3.png"" class=""exp-image"">
                    <div class=""question-area"">
                        <p style=""font-size: 20px; font-weight: bold; margin: 0;"">Is there a person in this image?</p>
                    </div>
                </div>","1","main_experiment_trial","3","clothing_semantic","semantic_sequence_notimeline","chronological","","","","","","",""
"","","","","","html-keyboard-response","128","421416","0.0-128.0","D39A144EC1D244DA9DC0F92F330544C1","019d6b90-7216-77f5-add9-67d68318df35","019d6b6d-d11f-7233-9b95-7a424dbf389f","","null","
                <div class=""stimulus-container"">
                    <img src=""semantic_sequence_notimeline/clothing_semantic/clothing_semantic_4.png"" class=""exp-image"">
                    <div class=""question-area""></div> 
                </div>","null","","","","","","","","","","","",""
"","","","","","html-button-response","129","422251","0.0-129.0","D39A144EC1D244DA9DC0F92F330544C1","019d6b90-7216-77f5-add9-67d68318df35","019d6b6d-d11f-7233-9b95-7a424dbf389f","","834","
                <div class=""stimulus-container"">
                    <img src=""semantic_sequence_notimeline/clothing_semantic/clothing_semantic_4.png"" class=""exp-image"">
                    <div class=""question-area"">
                        <p style=""font-size: 20px; font-weight: bold; margin: 0;"">Is there a person in this image?</p>
                    </div>
                </div>","1","main_experiment_trial","4","clothing_semantic","semantic_sequence_notimeline","chronological","","","","","","",""
"","","","","","html-keyboard-response","130","427253","0.0-130.0","D39A144EC1D244DA9DC0F92F330544C1","019d6b90-7216-77f5-add9-67d68318df35","019d6b6d-d11f-7233-9b95-7a424dbf389f","","null","
                <div class=""stimulus-container"">
                    <img src=""semantic_sequence_notimeline/clothing_semantic/clothing_semantic_5.png"" class=""exp-image"">
                    <div class=""question-area""></div> 
                </div>","null","","","","","","","","","","","",""
"","","","","","html-button-response","131","430255","0.0-131.0","D39A144EC1D244DA9DC0F92F330544C1","019d6b90-7216-77f5-add9-67d68318df35","019d6b6d-d11f-7233-9b95-7a424dbf389f","","null","
                <div class=""stimulus-container"">
                    <img src=""semantic_sequence_notimeline/clothing_semantic/clothing_semantic_5.png"" class=""exp-image"">
                    <div class=""question-area"">
                        <p style=""font-size: 20px; font-weight: bold; margin: 0;"">Is there a person in this image?</p>
                    </div>
                </div>","null","main_experiment_trial","5","clothing_semantic","semantic_sequence_notimeline","chronological","","","","","","",""
"","","","","","html-keyboard-response","132","435257","0.0-132.0","D39A144EC1D244DA9DC0F92F330544C1","019d6b90-7216-77f5-add9-67d68318df35","019d6b6d-d11f-7233-9b95-7a424dbf389f","","null","
                <div class=""stimulus-container"">
                    <img src=""semantic_sequence_notimeline/clothing_semantic/clothing_semantic_6.png"" class=""exp-image"">
                    <div class=""question-area""></div> 
                </div>","null","","","","","","","","","","","",""
"","","","","","html-button-response","133","436706","0.0-133.0","D39A144EC1D244DA9DC0F92F330544C1","019d6b90-7216-77f5-add9-67d68318df35","019d6b6d-d11f-7233-9b95-7a424dbf389f","","1448","
                <div class=""stimulus-container"">
                    <img src=""semantic_sequence_notimeline/clothing_semantic/clothing_semantic_6.png"" class=""exp-image"">
                    <div class=""question-area"">
                        <p style=""font-size: 20px; font-weight: bold; margin: 0;"">Is there a person in this image?</p>
                    </div>
                </div>","1","main_experiment_trial","6","clothing_semantic","semantic_sequence_notimeline","chronological","","","","","","",""
"","","","","","html-keyboard-response","134","441707","0.0-134.0","D39A144EC1D244DA9DC0F92F330544C1","019d6b90-7216-77f5-add9-67d68318df35","019d6b6d-d11f-7233-9b95-7a424dbf389f","","null","
                <div class=""stimulus-container"">
                    <img src=""semantic_sequence_notimeline/clothing_semantic/clothing_semantic_7.png"" class=""exp-image"">
                    <div class=""question-area""></div> 
                </div>","null","","","","","","","","","","","",""
"","","","","","html-button-response","135","442475","0.0-135.0","D39A144EC1D244DA9DC0F92F330544C1","019d6b90-7216-77f5-add9-67d68318df35","019d6b6d-d11f-7233-9b95-7a424dbf389f","","766","
                <div class=""stimulus-container"">
                    <img src=""semantic_sequence_notimeline/clothing_semantic/clothing_semantic_7.png"" class=""exp-image"">
                    <div class=""question-area"">
                        <p style=""font-size: 20px; font-weight: bold; margin: 0;"">Is there a person in this image?</p>
                    </div>
                </div>","1","main_experiment_trial","7","clothing_semantic","semantic_sequence_notimeline","chronological","","","","","","",""
"","","","","","html-keyboard-response","136","447476","0.0-136.0","D39A144EC1D244DA9DC0F92F330544C1","019d6b90-7216-77f5-add9-67d68318df35","019d6b6d-d11f-7233-9b95-7a424dbf389f","","null","
                <div class=""stimulus-container"">
                    <img src=""semantic_sequence_notimeline/clothing_semantic/clothing_semantic_8.png"" class=""exp-image"">
                    <div class=""question-area""></div> 
                </div>","null","","","","","","","","","","","",""
"","","","","","html-button-response","137","448851","0.0-137.0","D39A144EC1D244DA9DC0F92F330544C1","019d6b90-7216-77f5-add9-67d68318df35","019d6b6d-d11f-7233-9b95-7a424dbf389f","","1373","
                <div class=""stimulus-container"">
                    <img src=""semantic_sequence_notimeline/clothing_semantic/clothing_semantic_8.png"" class=""exp-image"">
                    <div class=""question-area"">
                        <p style=""font-size: 20px; font-weight: bold; margin: 0;"">Is there a person in this image?</p>
                    </div>
                </div>","1","main_experiment_trial","8","clothing_semantic","semantic_sequence_notimeline","chronological","","","","","","",""
"","","","","","html-keyboard-response","138","453853","0.0-138.0","D39A144EC1D244DA9DC0F92F330544C1","019d6b90-7216-77f5-add9-67d68318df35","019d6b6d-d11f-7233-9b95-7a424dbf389f","","null","
                <div class=""stimulus-container"">
                    <img src=""semantic_sequence_notimeline/clothing_semantic/clothing_semantic_9.png"" class=""exp-image"">
                    <div class=""question-area""></div> 
                </div>","null","","","","","","","","","","","",""
"","","","","","html-button-response","139","455402","0.0-139.0","D39A144EC1D244DA9DC0F92F330544C1","019d6b90-7216-77f5-add9-67d68318df35","019d6b6d-d11f-7233-9b95-7a424dbf389f","","1546","
                <div class=""stimulus-container"">
                    <img src=""semantic_sequence_notimeline/clothing_semantic/clothing_semantic_9.png"" class=""exp-image"">
                    <div class=""question-area"">
                        <p style=""font-size: 20px; font-weight: bold; margin: 0;"">Is there a person in this image?</p>
                    </div>
                </div>","1","main_experiment_trial","9","clothing_semantic","semantic_sequence_notimeline","chronological","","","","","","",""
"","","","","","html-keyboard-response","140","460403","0.0-140.0","D39A144EC1D244DA9DC0F92F330544C1","019d6b90-7216-77f5-add9-67d68318df35","019d6b6d-d11f-7233-9b95-7a424dbf389f","","null","
                <div class=""stimulus-container"">
                    <img src=""semantic_sequence_notimeline/clothing_semantic/clothing_semantic_ten.png"" class=""exp-image"">
                    <div class=""question-area""></div> 
                </div>","null","","","","","","","","","","","",""
"","","","","","html-button-response","141","463406","0.0-141.0","D39A144EC1D244DA9DC0F92F330544C1","019d6b90-7216-77f5-add9-67d68318df35","019d6b6d-d11f-7233-9b95-7a424dbf389f","","null","
                <div class=""stimulus-container"">
                    <img src=""semantic_sequence_notimeline/clothing_semantic/clothing_semantic_ten.png"" class=""exp-image"">
                    <div class=""question-area"">
                        <p style=""font-size: 20px; font-weight: bold; margin: 0;"">Is there a person in this image?</p>
                    </div>
                </div>","null","main_experiment_trial","ten","clothing_semantic","semantic_sequence_notimeline","chronological","","","","","","",""
"","","","","","html-keyboard-response","142","468407","0.0-142.0","D39A144EC1D244DA9DC0F92F330544C1","019d6b90-7216-77f5-add9-67d68318df35","019d6b6d-d11f-7233-9b95-7a424dbf389f","","null","<div style=""background-color: white; width: 100vw; height: 100vh;""></div>","null","","","","","","","","","","","",""
"","","","","","html-keyboard-response","143","473408","0.0-143.0","D39A144EC1D244DA9DC0F92F330544C1","019d6b90-7216-77f5-add9-67d68318df35","019d6b6d-d11f-7233-9b95-7a424dbf389f","","null","
                <div class=""stimulus-container"">
                    <img src=""images/causal_sequence/coin_causal/coin_causal_1.png"" class=""exp-image"">
                    <div class=""question-area""></div> 
                </div>","null","","","","","","","","","","","",""
"","","","","","html-button-response","144","476410","0.0-144.0","D39A144EC1D244DA9DC0F92F330544C1","019d6b90-7216-77f5-add9-67d68318df35","019d6b6d-d11f-7233-9b95-7a424dbf389f","","null","
                <div class=""stimulus-container"">
                    <img src=""images/causal_sequence/coin_causal/coin_causal_1.png"" class=""exp-image"">
                    <div class=""question-area"">
                        <p style=""font-size: 20px; font-weight: bold; margin: 0;"">Is there a person in this image?</p>
                    </div>
                </div>","null","main_experiment_trial","1","coin_causal","causal_sequence","chronological","","","","","","",""
"","","","","","html-keyboard-response","145","481412","0.0-145.0","D39A144EC1D244DA9DC0F92F330544C1","019d6b90-7216-77f5-add9-67d68318df35","019d6b6d-d11f-7233-9b95-7a424dbf389f","","null","
                <div class=""stimulus-container"">
                    <img src=""images/causal_sequence/coin_causal/coin_causal_2.png"" class=""exp-image"">
                    <div class=""question-area""></div> 
                </div>","null","","","","","","","","","","","",""
"","","","","","html-button-response","146","482129","0.0-146.0","D39A144EC1D244DA9DC0F92F330544C1","019d6b90-7216-77f5-add9-67d68318df35","019d6b6d-d11f-7233-9b95-7a424dbf389f","","714","
                <div class=""stimulus-container"">
                    <img src=""images/causal_sequence/coin_causal/coin_causal_2.png"" class=""exp-image"">
                    <div class=""question-area"">
                        <p style=""font-size: 20px; font-weight: bold; margin: 0;"">Is there a person in this image?</p>
                    </div>
                </div>","1","main_experiment_trial","2","coin_causal","causal_sequence","chronological","","","","","","",""
"","","","","","html-keyboard-response","147","487131","0.0-147.0","D39A144EC1D244DA9DC0F92F330544C1","019d6b90-7216-77f5-add9-67d68318df35","019d6b6d-d11f-7233-9b95-7a424dbf389f","","null","
                <div class=""stimulus-container"">
                    <img src=""images/causal_sequence/coin_causal/coin_causal_3.png"" class=""exp-image"">
                    <div class=""question-area""></div> 
                </div>","null","","","","","","","","","","","",""
"","","","","","html-button-response","148","488959","0.0-148.0","D39A144EC1D244DA9DC0F92F330544C1","019d6b90-7216-77f5-add9-67d68318df35","019d6b6d-d11f-7233-9b95-7a424dbf389f","","1826","
                <div class=""stimulus-container"">
                    <img src=""images/causal_sequence/coin_causal/coin_causal_3.png"" class=""exp-image"">
                    <div class=""question-area"">
                        <p style=""font-size: 20px; font-weight: bold; margin: 0;"">Is there a person in this image?</p>
                    </div>
                </div>","0","main_experiment_trial","3","coin_causal","causal_sequence","chronological","","","","","","",""
"","","","","","html-keyboard-response","149","493960","0.0-149.0","D39A144EC1D244DA9DC0F92F330544C1","019d6b90-7216-77f5-add9-67d68318df35","019d6b6d-d11f-7233-9b95-7a424dbf389f","","null","
                <div class=""stimulus-container"">
                    <img src=""images/causal_sequence/coin_causal/coin_causal_4.png"" class=""exp-image"">
                    <div class=""question-area""></div> 
                </div>","null","","","","","","","","","","","",""
"","","","","","html-button-response","150","496963","0.0-150.0","D39A144EC1D244DA9DC0F92F330544C1","019d6b90-7216-77f5-add9-67d68318df35","019d6b6d-d11f-7233-9b95-7a424dbf389f","","null","
                <div class=""stimulus-container"">
                    <img src=""images/causal_sequence/coin_causal/coin_causal_4.png"" class=""exp-image"">
                    <div class=""question-area"">
                        <p style=""font-size: 20px; font-weight: bold; margin: 0;"">Is there a person in this image?</p>
                    </div>
                </div>","null","main_experiment_trial","4","coin_causal","causal_sequence","chronological","","","","","","",""
"","","","","","html-keyboard-response","151","501964","0.0-151.0","D39A144EC1D244DA9DC0F92F330544C1","019d6b90-7216-77f5-add9-67d68318df35","019d6b6d-d11f-7233-9b95-7a424dbf389f","","null","
                <div class=""stimulus-container"">
                    <img src=""images/causal_sequence/coin_causal/coin_causal_5.png"" class=""exp-image"">
                    <div class=""question-area""></div> 
                </div>","null","","","","","","","","","","","",""
"","","","","","html-button-response","152","503661","0.0-152.0","D39A144EC1D244DA9DC0F92F330544C1","019d6b90-7216-77f5-add9-67d68318df35","019d6b6d-d11f-7233-9b95-7a424dbf389f","","1696","
                <div class=""stimulus-container"">
                    <img src=""images/causal_sequence/coin_causal/coin_causal_5.png"" class=""exp-image"">
                    <div class=""question-area"">
                        <p style=""font-size: 20px; font-weight: bold; margin: 0;"">Is there a person in this image?</p>
                    </div>
                </div>","0","main_experiment_trial","5","coin_causal","causal_sequence","chronological","","","","","","",""
"","","","","","html-keyboard-response","153","508663","0.0-153.0","D39A144EC1D244DA9DC0F92F330544C1","019d6b90-7216-77f5-add9-67d68318df35","019d6b6d-d11f-7233-9b95-7a424dbf389f","","null","
                <div class=""stimulus-container"">
                    <img src=""images/causal_sequence/coin_causal/coin_causal_6.png"" class=""exp-image"">
                    <div class=""question-area""></div> 
                </div>","null","","","","","","","","","","","",""
"","","","","","html-button-response","154","509698","0.0-154.0","D39A144EC1D244DA9DC0F92F330544C1","019d6b90-7216-77f5-add9-67d68318df35","019d6b6d-d11f-7233-9b95-7a424dbf389f","","1034","
                <div class=""stimulus-container"">
                    <img src=""images/causal_sequence/coin_causal/coin_causal_6.png"" class=""exp-image"">
                    <div class=""question-area"">
                        <p style=""font-size: 20px; font-weight: bold; margin: 0;"">Is there a person in this image?</p>
                    </div>
                </div>","0","main_experiment_trial","6","coin_causal","causal_sequence","chronological","","","","","","",""
"","","","","","html-keyboard-response","155","514699","0.0-155.0","D39A144EC1D244DA9DC0F92F330544C1","019d6b90-7216-77f5-add9-67d68318df35","019d6b6d-d11f-7233-9b95-7a424dbf389f","","null","
                <div class=""stimulus-container"">
                    <img src=""images/causal_sequence/coin_causal/coin_causal_7.png"" class=""exp-image"">
                    <div class=""question-area""></div> 
                </div>","null","","","","","","","","","","","",""
"","","","","","html-button-response","156","516867","0.0-156.0","D39A144EC1D244DA9DC0F92F330544C1","019d6b90-7216-77f5-add9-67d68318df35","019d6b6d-d11f-7233-9b95-7a424dbf389f","","2166","
                <div class=""stimulus-container"">
                    <img src=""images/causal_sequence/coin_causal/coin_causal_7.png"" class=""exp-image"">
                    <div class=""question-area"">
                        <p style=""font-size: 20px; font-weight: bold; margin: 0;"">Is there a person in this image?</p>
                    </div>
                </div>","1","main_experiment_trial","7","coin_causal","causal_sequence","chronological","","","","","","",""
"","","","","","html-keyboard-response","157","521868","0.0-157.0","D39A144EC1D244DA9DC0F92F330544C1","019d6b90-7216-77f5-add9-67d68318df35","019d6b6d-d11f-7233-9b95-7a424dbf389f","","null","
                <div class=""stimulus-container"">
                    <img src=""images/causal_sequence/coin_causal/coin_causal_8.png"" class=""exp-image"">
                    <div class=""question-area""></div> 
                </div>","null","","","","","","","","","","","",""
"","","","","","html-button-response","158","522964","0.0-158.0","D39A144EC1D244DA9DC0F92F330544C1","019d6b90-7216-77f5-add9-67d68318df35","019d6b6d-d11f-7233-9b95-7a424dbf389f","","1094","
                <div class=""stimulus-container"">
                    <img src=""images/causal_sequence/coin_causal/coin_causal_8.png"" class=""exp-image"">
                    <div class=""question-area"">
                        <p style=""font-size: 20px; font-weight: bold; margin: 0;"">Is there a person in this image?</p>
                    </div>
                </div>","0","main_experiment_trial","8","coin_causal","causal_sequence","chronological","","","","","","",""
"","","","","","html-keyboard-response","159","527965","0.0-159.0","D39A144EC1D244DA9DC0F92F330544C1","019d6b90-7216-77f5-add9-67d68318df35","019d6b6d-d11f-7233-9b95-7a424dbf389f","","null","
                <div class=""stimulus-container"">
                    <img src=""images/causal_sequence/coin_causal/coin_causal_9.png"" class=""exp-image"">
                    <div class=""question-area""></div> 
                </div>","null","","","","","","","","","","","",""
"","","","","","html-button-response","160","528447","0.0-160.0","D39A144EC1D244DA9DC0F92F330544C1","019d6b90-7216-77f5-add9-67d68318df35","019d6b6d-d11f-7233-9b95-7a424dbf389f","","480","
                <div class=""stimulus-container"">
                    <img src=""images/causal_sequence/coin_causal/coin_causal_9.png"" class=""exp-image"">
                    <div class=""question-area"">
                        <p style=""font-size: 20px; font-weight: bold; margin: 0;"">Is there a person in this image?</p>
                    </div>
                </div>","0","main_experiment_trial","9","coin_causal","causal_sequence","chronological","","","","","","",""
"","","","","","html-keyboard-response","161","533449","0.0-161.0","D39A144EC1D244DA9DC0F92F330544C1","019d6b90-7216-77f5-add9-67d68318df35","019d6b6d-d11f-7233-9b95-7a424dbf389f","","null","
                <div class=""stimulus-container"">
                    <img src=""images/causal_sequence/coin_causal/coin_causal_ten.png"" class=""exp-image"">
                    <div class=""question-area""></div> 
                </div>","null","","","","","","","","","","","",""
"","","","","","html-button-response","162","534436","0.0-162.0","D39A144EC1D244DA9DC0F92F330544C1","019d6b90-7216-77f5-add9-67d68318df35","019d6b6d-d11f-7233-9b95-7a424dbf389f","","985","
                <div class=""stimulus-container"">
                    <img src=""images/causal_sequence/coin_causal/coin_causal_ten.png"" class=""exp-image"">
                    <div class=""question-area"">
                        <p style=""font-size: 20px; font-weight: bold; margin: 0;"">Is there a person in this image?</p>
                    </div>
                </div>","0","main_experiment_trial","ten","coin_causal","causal_sequence","chronological","","","","","","",""
"","","","","","html-keyboard-response","163","539437","0.0-163.0","D39A144EC1D244DA9DC0F92F330544C1","019d6b90-7216-77f5-add9-67d68318df35","019d6b6d-d11f-7233-9b95-7a424dbf389f","","null","<div style=""background-color: white; width: 100vw; height: 100vh;""></div>","null","","","","","","","","","","","",""
"","","","","","html-keyboard-response","164","544439","0.0-164.0","D39A144EC1D244DA9DC0F92F330544C1","019d6b90-7216-77f5-add9-67d68318df35","019d6b6d-d11f-7233-9b95-7a424dbf389f","","null","
                <div class=""stimulus-container"">
                    <img src=""semantic_sequence_notimeline/transportation_semantic/transportation_semantic_1.png"" class=""exp-image"">
                    <div class=""question-area""></div> 
                </div>","null","","","","","","","","","","","",""
"","","","","","html-button-response","165","545501","0.0-165.0","D39A144EC1D244DA9DC0F92F330544C1","019d6b90-7216-77f5-add9-67d68318df35","019d6b6d-d11f-7233-9b95-7a424dbf389f","","1061","
                <div class=""stimulus-container"">
                    <img src=""semantic_sequence_notimeline/transportation_semantic/transportation_semantic_1.png"" class=""exp-image"">
                    <div class=""question-area"">
                        <p style=""font-size: 20px; font-weight: bold; margin: 0;"">Is there a person in this image?</p>
                    </div>
                </div>","1","main_experiment_trial","1","transportation_semantic","semantic_sequence_notimeline","chronological","","","","","","",""
"","","","","","html-keyboard-response","166","550503","0.0-166.0","D39A144EC1D244DA9DC0F92F330544C1","019d6b90-7216-77f5-add9-67d68318df35","019d6b6d-d11f-7233-9b95-7a424dbf389f","","null","
                <div class=""stimulus-container"">
                    <img src=""semantic_sequence_notimeline/transportation_semantic/transportation_semantic_2.png"" class=""exp-image"">
                    <div class=""question-area""></div> 
                </div>","null","","","","","","","","","","","",""
"","","","","","html-button-response","167","550994","0.0-167.0","D39A144EC1D244DA9DC0F92F330544C1","019d6b90-7216-77f5-add9-67d68318df35","019d6b6d-d11f-7233-9b95-7a424dbf389f","","489","
                <div class=""stimulus-container"">
                    <img src=""semantic_sequence_notimeline/transportation_semantic/transportation_semantic_2.png"" class=""exp-image"">
                    <div class=""question-area"">
                        <p style=""font-size: 20px; font-weight: bold; margin: 0;"">Is there a person in this image?</p>
                    </div>
                </div>","1","main_experiment_trial","2","transportation_semantic","semantic_sequence_notimeline","chronological","","","","","","",""
"","","","","","html-keyboard-response","168","555995","0.0-168.0","D39A144EC1D244DA9DC0F92F330544C1","019d6b90-7216-77f5-add9-67d68318df35","019d6b6d-d11f-7233-9b95-7a424dbf389f","","null","
                <div class=""stimulus-container"">
                    <img src=""semantic_sequence_notimeline/transportation_semantic/transportation_semantic_3.png"" class=""exp-image"">
                    <div class=""question-area""></div> 
                </div>","null","","","","","","","","","","","",""
"","","","","","html-button-response","169","556397","0.0-169.0","D39A144EC1D244DA9DC0F92F330544C1","019d6b90-7216-77f5-add9-67d68318df35","019d6b6d-d11f-7233-9b95-7a424dbf389f","","400","
                <div class=""stimulus-container"">
                    <img src=""semantic_sequence_notimeline/transportation_semantic/transportation_semantic_3.png"" class=""exp-image"">
                    <div class=""question-area"">
                        <p style=""font-size: 20px; font-weight: bold; margin: 0;"">Is there a person in this image?</p>
                    </div>
                </div>","1","main_experiment_trial","3","transportation_semantic","semantic_sequence_notimeline","chronological","","","","","","",""
"","","","","","html-keyboard-response","170","561399","0.0-170.0","D39A144EC1D244DA9DC0F92F330544C1","019d6b90-7216-77f5-add9-67d68318df35","019d6b6d-d11f-7233-9b95-7a424dbf389f","","null","
                <div class=""stimulus-container"">
                    <img src=""semantic_sequence_notimeline/transportation_semantic/transportation_semantic_4.png"" class=""exp-image"">
                    <div class=""question-area""></div> 
                </div>","null","","","","","","","","","","","",""
"","","","","","html-button-response","171","561455","0.0-171.0","D39A144EC1D244DA9DC0F92F330544C1","019d6b90-7216-77f5-add9-67d68318df35","019d6b6d-d11f-7233-9b95-7a424dbf389f","","56","
                <div class=""stimulus-container"">
                    <img src=""semantic_sequence_notimeline/transportation_semantic/transportation_semantic_4.png"" class=""exp-image"">
                    <div class=""question-area"">
                        <p style=""font-size: 20px; font-weight: bold; margin: 0;"">Is there a person in this image?</p>
                    </div>
                </div>","1","main_experiment_trial","4","transportation_semantic","semantic_sequence_notimeline","chronological","","","","","","",""
"","","","","","html-keyboard-response","172","566457","0.0-172.0","D39A144EC1D244DA9DC0F92F330544C1","019d6b90-7216-77f5-add9-67d68318df35","019d6b6d-d11f-7233-9b95-7a424dbf389f","","null","
                <div class=""stimulus-container"">
                    <img src=""semantic_sequence_notimeline/transportation_semantic/transportation_semantic_5.png"" class=""exp-image"">
                    <div class=""question-area""></div> 
                </div>","null","","","","","","","","","","","",""
"","","","","","html-button-response","173","566472","0.0-173.0","D39A144EC1D244DA9DC0F92F330544C1","019d6b90-7216-77f5-add9-67d68318df35","019d6b6d-d11f-7233-9b95-7a424dbf389f","","14","
                <div class=""stimulus-container"">
                    <img src=""semantic_sequence_notimeline/transportation_semantic/transportation_semantic_5.png"" class=""exp-image"">
                    <div class=""question-area"">
                        <p style=""font-size: 20px; font-weight: bold; margin: 0;"">Is there a person in this image?</p>
                    </div>
                </div>","1","main_experiment_trial","5","transportation_semantic","semantic_sequence_notimeline","chronological","","","","","","",""
"","","","","","html-keyboard-response","174","571474","0.0-174.0","D39A144EC1D244DA9DC0F92F330544C1","019d6b90-7216-77f5-add9-67d68318df35","019d6b6d-d11f-7233-9b95-7a424dbf389f","","null","
                <div class=""stimulus-container"">
                    <img src=""semantic_sequence_notimeline/transportation_semantic/transportation_semantic_6.png"" class=""exp-image"">
                    <div class=""question-area""></div> 
                </div>","null","","","","","","","","","","","",""
"","","","","","html-button-response","175","572392","0.0-175.0","D39A144EC1D244DA9DC0F92F330544C1","019d6b90-7216-77f5-add9-67d68318df35","019d6b6d-d11f-7233-9b95-7a424dbf389f","","917","
                <div class=""stimulus-container"">
                    <img src=""semantic_sequence_notimeline/transportation_semantic/transportation_semantic_6.png"" class=""exp-image"">
                    <div class=""question-area"">
                        <p style=""font-size: 20px; font-weight: bold; margin: 0;"">Is there a person in this image?</p>
                    </div>
                </div>","0","main_experiment_trial","6","transportation_semantic","semantic_sequence_notimeline","chronological","","","","","","",""
"","","","","","html-keyboard-response","176","577394","0.0-176.0","D39A144EC1D244DA9DC0F92F330544C1","019d6b90-7216-77f5-add9-67d68318df35","019d6b6d-d11f-7233-9b95-7a424dbf389f","","null","
                <div class=""stimulus-container"">
                    <img src=""semantic_sequence_notimeline/transportation_semantic/transportation_semantic_7.png"" class=""exp-image"">
                    <div class=""question-area""></div> 
                </div>","null","","","","","","","","","","","",""
