"success","timeout","failed_images","failed_audio","failed_video","trial_type","trial_index","time_elapsed","internal_node_id","subject_id","study_id","session_id","view_history","rt","stimulus","response","task","image_index","folder","sequence_type","valuable_image_index","reward_type","left_idx","right_idx","lucky_X","chosen_image_index","distance_from_X","left_image_index","right_image_index"
"true","false","[]","[]","[]","preload","0","4352","0.0-0.0","ED99A4077C4B479AB6999B4F1660AAE5","019cea6c-8521-70cd-92c3-71faa1863adb","019cea5b-a1d2-7168-a211-b4d8162559a9","","","","","","","","","","","","","","","","",""
"","","","","","instructions","1","51379","0.0-1.0","ED99A4077C4B479AB6999B4F1660AAE5","019cea6c-8521-70cd-92c3-71faa1863adb","019cea5b-a1d2-7168-a211-b4d8162559a9","[{""page_index"":0,""viewing_time"":47025}]","47026","","","","","","","","","","","","","","",""
"","","","","","instructions","2","56263","0.0-2.0","ED99A4077C4B479AB6999B4F1660AAE5","019cea6c-8521-70cd-92c3-71faa1863adb","019cea5b-a1d2-7168-a211-b4d8162559a9","[{""page_index"":0,""viewing_time"":4883}]","4884","","","","","","","","","","","","","","",""
"true","","","","","fullscreen","3","279244","0.0-3.0","ED99A4077C4B479AB6999B4F1660AAE5","019cea6c-8521-70cd-92c3-71faa1863adb","019cea5b-a1d2-7168-a211-b4d8162559a9","","221971","","","","","","","","","","","","","","",""
"","","","","","instructions","4","400993","0.0-4.0","ED99A4077C4B479AB6999B4F1660AAE5","019cea6c-8521-70cd-92c3-71faa1863adb","019cea5b-a1d2-7168-a211-b4d8162559a9","[{""page_index"":0,""viewing_time"":121748}]","121748","","","","","","","","","","","","","","",""
"","","","","","instructions","5","417333","0.0-5.0","ED99A4077C4B479AB6999B4F1660AAE5","019cea6c-8521-70cd-92c3-71faa1863adb","019cea5b-a1d2-7168-a211-b4d8162559a9","[{""page_index"":0,""viewing_time"":16340}]","16340","","","","","","","","","","","","","","",""
"","","","","","html-keyboard-response","6","421343","0.0-6.0","ED99A4077C4B479AB6999B4F1660AAE5","019cea6c-8521-70cd-92c3-71faa1863adb","019cea5b-a1d2-7168-a211-b4d8162559a9","","null","
                <div class=""stimulus-container"">
                    <img src=""images/instructions/movie_1.png"" class=""exp-image"">
                    <div class=""question-area""></div> 
                </div>","null","","","","","","","","","","","","",""
"","","","","","html-button-response","7","422400","0.0-7.0","ED99A4077C4B479AB6999B4F1660AAE5","019cea6c-8521-70cd-92c3-71faa1863adb","019cea5b-a1d2-7168-a211-b4d8162559a9","","1055","
                <div class=""stimulus-container"">
                    <img src=""images/instructions/movie_1.png"" class=""exp-image"">
                    <div class=""question-area"">
                        <p style=""font-size: 20px; font-weight: bold; margin: 0;"">Was there a person in this image?</p>
                    </div>
                </div>","0","example_question","1","","","","","","","","","","",""
"","","","","","html-keyboard-response","8","426402","0.0-8.0","ED99A4077C4B479AB6999B4F1660AAE5","019cea6c-8521-70cd-92c3-71faa1863adb","019cea5b-a1d2-7168-a211-b4d8162559a9","","null","
                <div class=""stimulus-container"">
                    <img src=""images/instructions/movie_2.png"" class=""exp-image"">
                    <div class=""question-area""></div> 
                </div>","null","","","","","","","","","","","","",""
"","","","","","html-button-response","9","427413","0.0-9.0","ED99A4077C4B479AB6999B4F1660AAE5","019cea6c-8521-70cd-92c3-71faa1863adb","019cea5b-a1d2-7168-a211-b4d8162559a9","","1010","
                <div class=""stimulus-container"">
                    <img src=""images/instructions/movie_2.png"" class=""exp-image"">
                    <div class=""question-area"">
                        <p style=""font-size: 20px; font-weight: bold; margin: 0;"">Was there a person in this image?</p>
                    </div>
                </div>","1","example_question","2","","","","","","","","","","",""
"","","","","","html-keyboard-response","10","431422","0.0-10.0","ED99A4077C4B479AB6999B4F1660AAE5","019cea6c-8521-70cd-92c3-71faa1863adb","019cea5b-a1d2-7168-a211-b4d8162559a9","","null","
                <div class=""stimulus-container"">
                    <img src=""images/instructions/movie_3.png"" class=""exp-image"">
                    <div class=""question-area""></div> 
                </div>","null","","","","","","","","","","","","",""
"","","","","","html-button-response","11","432298","0.0-11.0","ED99A4077C4B479AB6999B4F1660AAE5","019cea6c-8521-70cd-92c3-71faa1863adb","019cea5b-a1d2-7168-a211-b4d8162559a9","","875","
                <div class=""stimulus-container"">
                    <img src=""images/instructions/movie_3.png"" class=""exp-image"">
                    <div class=""question-area"">
                        <p style=""font-size: 20px; font-weight: bold; margin: 0;"">Was there a person in this image?</p>
                    </div>
                </div>","0","example_question","3","","","","","","","","","","",""
"","","","","","html-keyboard-response","12","436309","0.0-12.0","ED99A4077C4B479AB6999B4F1660AAE5","019cea6c-8521-70cd-92c3-71faa1863adb","019cea5b-a1d2-7168-a211-b4d8162559a9","","null","
                <div class=""stimulus-container"">
                    <img src=""images/instructions/movie_4.png"" class=""exp-image"">
                    <div class=""question-area""></div> 
                </div>","null","","","","","","","","","","","","",""
"","","","","","html-button-response","13","437716","0.0-13.0","ED99A4077C4B479AB6999B4F1660AAE5","019cea6c-8521-70cd-92c3-71faa1863adb","019cea5b-a1d2-7168-a211-b4d8162559a9","","1405","
                <div class=""stimulus-container"">
                    <img src=""images/instructions/movie_4.png"" class=""exp-image"">
                    <div class=""question-area"">
                        <p style=""font-size: 20px; font-weight: bold; margin: 0;"">Was there a person in this image?</p>
                    </div>
                </div>","0","example_question","4","","","","","","","","","","",""
"","","","","","instructions","14","452743","0.0-14.0","ED99A4077C4B479AB6999B4F1660AAE5","019cea6c-8521-70cd-92c3-71faa1863adb","019cea5b-a1d2-7168-a211-b4d8162559a9","[{""page_index"":0,""viewing_time"":15027}]","15027","","","","","","","","","","","","","","",""
"","","","","","html-keyboard-response","15","453747","0.0-15.0","ED99A4077C4B479AB6999B4F1660AAE5","019cea6c-8521-70cd-92c3-71faa1863adb","019cea5b-a1d2-7168-a211-b4d8162559a9","","null","<div style=""background-color: white; width: 100vw; height: 100vh;""></div>","null","","","","","","","","","","","","",""
"","","","","","html-keyboard-response","16","458757","0.0-16.0","ED99A4077C4B479AB6999B4F1660AAE5","019cea6c-8521-70cd-92c3-71faa1863adb","019cea5b-a1d2-7168-a211-b4d8162559a9","","null","
                <div class=""stimulus-container"">
                    <img src=""images/schematic_sequence/dinner_party_scheme/dinner_party_scheme_1.png"" class=""exp-image"">
                    <div class=""question-area""></div> 
                </div>","null","","","","","","","","","","","","",""
"","","","","","html-button-response","17","459946","0.0-17.0","ED99A4077C4B479AB6999B4F1660AAE5","019cea6c-8521-70cd-92c3-71faa1863adb","019cea5b-a1d2-7168-a211-b4d8162559a9","","1188","
                <div class=""stimulus-container"">
                    <img src=""images/schematic_sequence/dinner_party_scheme/dinner_party_scheme_1.png"" class=""exp-image"">
                    <div class=""question-area"">
                        <p style=""font-size: 20px; font-weight: bold; margin: 0;"">Is there a person in this image?</p>
                    </div>
                </div>","0","main_experiment_trial","1","dinner_party_scheme","schematic_sequence","","","","","","","","",""
"","","","","","html-keyboard-response","18","464953","0.0-18.0","ED99A4077C4B479AB6999B4F1660AAE5","019cea6c-8521-70cd-92c3-71faa1863adb","019cea5b-a1d2-7168-a211-b4d8162559a9","","null","
                <div class=""stimulus-container"">
                    <img src=""images/schematic_sequence/dinner_party_scheme/dinner_party_scheme_2.png"" class=""exp-image"">
                    <div class=""question-area""></div> 
                </div>","null","","","","","","","","","","","","",""
"","","","","","html-button-response","19","466461","0.0-19.0","ED99A4077C4B479AB6999B4F1660AAE5","019cea6c-8521-70cd-92c3-71faa1863adb","019cea5b-a1d2-7168-a211-b4d8162559a9","","1506","
                <div class=""stimulus-container"">
                    <img src=""images/schematic_sequence/dinner_party_scheme/dinner_party_scheme_2.png"" class=""exp-image"">
                    <div class=""question-area"">
                        <p style=""font-size: 20px; font-weight: bold; margin: 0;"">Is there a person in this image?</p>
                    </div>
                </div>","0","main_experiment_trial","2","dinner_party_scheme","schematic_sequence","","","","","","","","",""
"","","","","","html-keyboard-response","20","471470","0.0-20.0","ED99A4077C4B479AB6999B4F1660AAE5","019cea6c-8521-70cd-92c3-71faa1863adb","019cea5b-a1d2-7168-a211-b4d8162559a9","","null","
                <div class=""stimulus-container"">
                    <img src=""images/schematic_sequence/dinner_party_scheme/dinner_party_scheme_3.png"" class=""exp-image"">
                    <div class=""question-area""></div> 
                </div>","null","","","","","","","","","","","","",""
"","","","","","html-button-response","21","472365","0.0-21.0","ED99A4077C4B479AB6999B4F1660AAE5","019cea6c-8521-70cd-92c3-71faa1863adb","019cea5b-a1d2-7168-a211-b4d8162559a9","","894","
                <div class=""stimulus-container"">
                    <img src=""images/schematic_sequence/dinner_party_scheme/dinner_party_scheme_3.png"" class=""exp-image"">
                    <div class=""question-area"">
                        <p style=""font-size: 20px; font-weight: bold; margin: 0;"">Is there a person in this image?</p>
                    </div>
                </div>","0","main_experiment_trial","3","dinner_party_scheme","schematic_sequence","","","","","","","","",""
"","","","","","html-keyboard-response","22","477370","0.0-22.0","ED99A4077C4B479AB6999B4F1660AAE5","019cea6c-8521-70cd-92c3-71faa1863adb","019cea5b-a1d2-7168-a211-b4d8162559a9","","null","
                <div class=""stimulus-container"">
                    <img src=""images/schematic_sequence/dinner_party_scheme/dinner_party_scheme_4.png"" class=""exp-image"">
                    <div class=""question-area""></div> 
                </div>","null","","","","","","","","","","","","",""
"","","","","","html-button-response","23","478913","0.0-23.0","ED99A4077C4B479AB6999B4F1660AAE5","019cea6c-8521-70cd-92c3-71faa1863adb","019cea5b-a1d2-7168-a211-b4d8162559a9","","1542","
                <div class=""stimulus-container"">
                    <img src=""images/schematic_sequence/dinner_party_scheme/dinner_party_scheme_4.png"" class=""exp-image"">
                    <div class=""question-area"">
                        <p style=""font-size: 20px; font-weight: bold; margin: 0;"">Is there a person in this image?</p>
                    </div>
                </div>","0","main_experiment_trial","4","dinner_party_scheme","schematic_sequence","","","","","","","","",""
"","","","","","html-keyboard-response","24","483917","0.0-24.0","ED99A4077C4B479AB6999B4F1660AAE5","019cea6c-8521-70cd-92c3-71faa1863adb","019cea5b-a1d2-7168-a211-b4d8162559a9","","null","
                <div class=""stimulus-container"">
                    <img src=""images/schematic_sequence/dinner_party_scheme/dinner_party_scheme_5.png"" class=""exp-image"">
                    <div class=""question-area""></div> 
                </div>","null","","","","","","","","","","","","",""
"","","","","","html-button-response","25","484672","0.0-25.0","ED99A4077C4B479AB6999B4F1660AAE5","019cea6c-8521-70cd-92c3-71faa1863adb","019cea5b-a1d2-7168-a211-b4d8162559a9","","754","
                <div class=""stimulus-container"">
                    <img src=""images/schematic_sequence/dinner_party_scheme/dinner_party_scheme_5.png"" class=""exp-image"">
                    <div class=""question-area"">
                        <p style=""font-size: 20px; font-weight: bold; margin: 0;"">Is there a person in this image?</p>
                    </div>
                </div>","0","main_experiment_trial","5","dinner_party_scheme","schematic_sequence","","","","","","","","",""
"","","","","","html-keyboard-response","26","489677","0.0-26.0","ED99A4077C4B479AB6999B4F1660AAE5","019cea6c-8521-70cd-92c3-71faa1863adb","019cea5b-a1d2-7168-a211-b4d8162559a9","","null","
                <div class=""stimulus-container"">
                    <img src=""images/schematic_sequence/dinner_party_scheme/dinner_party_scheme_6.png"" class=""exp-image"">
                    <div class=""question-area""></div> 
                </div>","null","","","","","","","","","","","","",""
"","","","","","html-button-response","27","490385","0.0-27.0","ED99A4077C4B479AB6999B4F1660AAE5","019cea6c-8521-70cd-92c3-71faa1863adb","019cea5b-a1d2-7168-a211-b4d8162559a9","","708","
                <div class=""stimulus-container"">
                    <img src=""images/schematic_sequence/dinner_party_scheme/dinner_party_scheme_6.png"" class=""exp-image"">
                    <div class=""question-area"">
                        <p style=""font-size: 20px; font-weight: bold; margin: 0;"">Is there a person in this image?</p>
                    </div>
                </div>","0","main_experiment_trial","6","dinner_party_scheme","schematic_sequence","","","","","","","","",""
"","","","","","html-keyboard-response","28","495393","0.0-28.0","ED99A4077C4B479AB6999B4F1660AAE5","019cea6c-8521-70cd-92c3-71faa1863adb","019cea5b-a1d2-7168-a211-b4d8162559a9","","null","
                <div class=""stimulus-container"">
                    <img src=""images/schematic_sequence/dinner_party_scheme/dinner_party_scheme_7.png"" class=""exp-image"">
                    <div class=""question-area""></div> 
                </div>","null","","","","","","","","","","","","",""
"","","","","","html-button-response","29","495997","0.0-29.0","ED99A4077C4B479AB6999B4F1660AAE5","019cea6c-8521-70cd-92c3-71faa1863adb","019cea5b-a1d2-7168-a211-b4d8162559a9","","604","
                <div class=""stimulus-container"">
                    <img src=""images/schematic_sequence/dinner_party_scheme/dinner_party_scheme_7.png"" class=""exp-image"">
                    <div class=""question-area"">
                        <p style=""font-size: 20px; font-weight: bold; margin: 0;"">Is there a person in this image?</p>
                    </div>
                </div>","0","main_experiment_trial","7","dinner_party_scheme","schematic_sequence","","","","","","","","",""
"","","","","","html-keyboard-response","30","501014","0.0-30.0","ED99A4077C4B479AB6999B4F1660AAE5","019cea6c-8521-70cd-92c3-71faa1863adb","019cea5b-a1d2-7168-a211-b4d8162559a9","","null","
                <div class=""stimulus-container"">
                    <img src=""images/schematic_sequence/dinner_party_scheme/dinner_party_scheme_8.png"" class=""exp-image"">
                    <div class=""question-area""></div> 
                </div>","null","","","","","","","","","","","","",""
"","","","","","html-button-response","31","502169","0.0-31.0","ED99A4077C4B479AB6999B4F1660AAE5","019cea6c-8521-70cd-92c3-71faa1863adb","019cea5b-a1d2-7168-a211-b4d8162559a9","","1154","
                <div class=""stimulus-container"">
                    <img src=""images/schematic_sequence/dinner_party_scheme/dinner_party_scheme_8.png"" class=""exp-image"">
                    <div class=""question-area"">
                        <p style=""font-size: 20px; font-weight: bold; margin: 0;"">Is there a person in this image?</p>
                    </div>
                </div>","0","main_experiment_trial","8","dinner_party_scheme","schematic_sequence","","","","","","","","",""
"","","","","","html-keyboard-response","32","507172","0.0-32.0","ED99A4077C4B479AB6999B4F1660AAE5","019cea6c-8521-70cd-92c3-71faa1863adb","019cea5b-a1d2-7168-a211-b4d8162559a9","","null","
                <div class=""stimulus-container"">
                    <img src=""images/schematic_sequence/dinner_party_scheme/dinner_party_scheme_9.png"" class=""exp-image"">
                    <div class=""question-area""></div> 
                </div>","null","","","","","","","","","","","","",""
"","","","","","html-button-response","33","507977","0.0-33.0","ED99A4077C4B479AB6999B4F1660AAE5","019cea6c-8521-70cd-92c3-71faa1863adb","019cea5b-a1d2-7168-a211-b4d8162559a9","","804","
                <div class=""stimulus-container"">
                    <img src=""images/schematic_sequence/dinner_party_scheme/dinner_party_scheme_9.png"" class=""exp-image"">
                    <div class=""question-area"">
                        <p style=""font-size: 20px; font-weight: bold; margin: 0;"">Is there a person in this image?</p>
                    </div>
                </div>","0","main_experiment_trial","9","dinner_party_scheme","schematic_sequence","","","","","","","","",""
"","","","","","html-keyboard-response","34","512982","0.0-34.0","ED99A4077C4B479AB6999B4F1660AAE5","019cea6c-8521-70cd-92c3-71faa1863adb","019cea5b-a1d2-7168-a211-b4d8162559a9","","null","
                <div class=""stimulus-container"">
                    <img src=""images/schematic_sequence/dinner_party_scheme/dinner_party_scheme_ten.png"" class=""exp-image"">
                    <div class=""question-area""></div> 
                </div>","null","","","","","","","","","","","","",""
"","","","","","html-button-response","35","514095","0.0-35.0","ED99A4077C4B479AB6999B4F1660AAE5","019cea6c-8521-70cd-92c3-71faa1863adb","019cea5b-a1d2-7168-a211-b4d8162559a9","","1112","
                <div class=""stimulus-container"">
                    <img src=""images/schematic_sequence/dinner_party_scheme/dinner_party_scheme_ten.png"" class=""exp-image"">
                    <div class=""question-area"">
                        <p style=""font-size: 20px; font-weight: bold; margin: 0;"">Is there a person in this image?</p>
                    </div>
                </div>","0","main_experiment_trial","ten","dinner_party_scheme","schematic_sequence","","","","","","","","",""
"","","","","","html-keyboard-response","36","515107","0.0-36.0","ED99A4077C4B479AB6999B4F1660AAE5","019cea6c-8521-70cd-92c3-71faa1863adb","019cea5b-a1d2-7168-a211-b4d8162559a9","","null","<div style=""background-color: white; width: 100vw; height: 100vh;""></div>","null","","","","","","","","","","","","",""
"","","","","","html-keyboard-response","37","520114","0.0-37.0","ED99A4077C4B479AB6999B4F1660AAE5","019cea6c-8521-70cd-92c3-71faa1863adb","019cea5b-a1d2-7168-a211-b4d8162559a9","","null","
                <div class=""stimulus-container"">
                    <img src=""images/semantic_sequence/housework_semantic/housework_semantic_1.png"" class=""exp-image"">
                    <div class=""question-area""></div> 
                </div>","null","","","","","","","","","","","","",""
"","","","","","html-button-response","38","520949","0.0-38.0","ED99A4077C4B479AB6999B4F1660AAE5","019cea6c-8521-70cd-92c3-71faa1863adb","019cea5b-a1d2-7168-a211-b4d8162559a9","","834","
                <div class=""stimulus-container"">
                    <img src=""images/semantic_sequence/housework_semantic/housework_semantic_1.png"" class=""exp-image"">
                    <div class=""question-area"">
                        <p style=""font-size: 20px; font-weight: bold; margin: 0;"">Is there a person in this image?</p>
                    </div>
                </div>","0","main_experiment_trial","1","housework_semantic","semantic_sequence","","","","","","","","",""
"","","","","","html-keyboard-response","39","525957","0.0-39.0","ED99A4077C4B479AB6999B4F1660AAE5","019cea6c-8521-70cd-92c3-71faa1863adb","019cea5b-a1d2-7168-a211-b4d8162559a9","","null","
                <div class=""stimulus-container"">
                    <img src=""images/semantic_sequence/housework_semantic/housework_semantic_2.png"" class=""exp-image"">
                    <div class=""question-area""></div> 
                </div>","null","","","","","","","","","","","","",""
"","","","","","html-button-response","40","527141","0.0-40.0","ED99A4077C4B479AB6999B4F1660AAE5","019cea6c-8521-70cd-92c3-71faa1863adb","019cea5b-a1d2-7168-a211-b4d8162559a9","","1183","
                <div class=""stimulus-container"">
                    <img src=""images/semantic_sequence/housework_semantic/housework_semantic_2.png"" class=""exp-image"">
                    <div class=""question-area"">
                        <p style=""font-size: 20px; font-weight: bold; margin: 0;"">Is there a person in this image?</p>
                    </div>
                </div>","0","main_experiment_trial","2","housework_semantic","semantic_sequence","","","","","","","","",""
"","","","","","html-keyboard-response","41","532143","0.0-41.0","ED99A4077C4B479AB6999B4F1660AAE5","019cea6c-8521-70cd-92c3-71faa1863adb","019cea5b-a1d2-7168-a211-b4d8162559a9","","null","
                <div class=""stimulus-container"">
                    <img src=""images/semantic_sequence/housework_semantic/housework_semantic_3.png"" class=""exp-image"">
                    <div class=""question-area""></div> 
                </div>","null","","","","","","","","","","","","",""
"","","","","","html-button-response","42","533224","0.0-42.0","ED99A4077C4B479AB6999B4F1660AAE5","019cea6c-8521-70cd-92c3-71faa1863adb","019cea5b-a1d2-7168-a211-b4d8162559a9","","1080","
                <div class=""stimulus-container"">
                    <img src=""images/semantic_sequence/housework_semantic/housework_semantic_3.png"" class=""exp-image"">
                    <div class=""question-area"">
                        <p style=""font-size: 20px; font-weight: bold; margin: 0;"">Is there a person in this image?</p>
                    </div>
                </div>","0","main_experiment_trial","3","housework_semantic","semantic_sequence","","","","","","","","",""
"","","","","","html-keyboard-response","43","538226","0.0-43.0","ED99A4077C4B479AB6999B4F1660AAE5","019cea6c-8521-70cd-92c3-71faa1863adb","019cea5b-a1d2-7168-a211-b4d8162559a9","","null","
                <div class=""stimulus-container"">
                    <img src=""images/semantic_sequence/housework_semantic/housework_semantic_4.png"" class=""exp-image"">
                    <div class=""question-area""></div> 
                </div>","null","","","","","","","","","","","","",""
"","","","","","html-button-response","44","539729","0.0-44.0","ED99A4077C4B479AB6999B4F1660AAE5","019cea6c-8521-70cd-92c3-71faa1863adb","019cea5b-a1d2-7168-a211-b4d8162559a9","","1502","
                <div class=""stimulus-container"">
                    <img src=""images/semantic_sequence/housework_semantic/housework_semantic_4.png"" class=""exp-image"">
                    <div class=""question-area"">
                        <p style=""font-size: 20px; font-weight: bold; margin: 0;"">Is there a person in this image?</p>
                    </div>
                </div>","0","main_experiment_trial","4","housework_semantic","semantic_sequence","","","","","","","","",""
"","","","","","html-keyboard-response","45","544733","0.0-45.0","ED99A4077C4B479AB6999B4F1660AAE5","019cea6c-8521-70cd-92c3-71faa1863adb","019cea5b-a1d2-7168-a211-b4d8162559a9","","null","
                <div class=""stimulus-container"">
                    <img src=""images/semantic_sequence/housework_semantic/housework_semantic_5.png"" class=""exp-image"">
                    <div class=""question-area""></div> 
                </div>","null","","","","","","","","","","","","",""
"","","","","","html-button-response","46","545497","0.0-46.0","ED99A4077C4B479AB6999B4F1660AAE5","019cea6c-8521-70cd-92c3-71faa1863adb","019cea5b-a1d2-7168-a211-b4d8162559a9","","763","
                <div class=""stimulus-container"">
                    <img src=""images/semantic_sequence/housework_semantic/housework_semantic_5.png"" class=""exp-image"">
                    <div class=""question-area"">
                        <p style=""font-size: 20px; font-weight: bold; margin: 0;"">Is there a person in this image?</p>
                    </div>
                </div>","0","main_experiment_trial","5","housework_semantic","semantic_sequence","","","","","","","","",""
"","","","","","html-keyboard-response","47","550509","0.0-47.0","ED99A4077C4B479AB6999B4F1660AAE5","019cea6c-8521-70cd-92c3-71faa1863adb","019cea5b-a1d2-7168-a211-b4d8162559a9","","null","
                <div class=""stimulus-container"">
                    <img src=""images/semantic_sequence/housework_semantic/housework_semantic_6.png"" class=""exp-image"">
                    <div class=""question-area""></div> 
                </div>","null","","","","","","","","","","","","",""
"","","","","","html-button-response","48","551149","0.0-48.0","ED99A4077C4B479AB6999B4F1660AAE5","019cea6c-8521-70cd-92c3-71faa1863adb","019cea5b-a1d2-7168-a211-b4d8162559a9","","639","
                <div class=""stimulus-container"">
                    <img src=""images/semantic_sequence/housework_semantic/housework_semantic_6.png"" class=""exp-image"">
                    <div class=""question-area"">
                        <p style=""font-size: 20px; font-weight: bold; margin: 0;"">Is there a person in this image?</p>
                    </div>
                </div>","0","main_experiment_trial","6","housework_semantic","semantic_sequence","","","","","","","","",""
"","","","","","html-keyboard-response","49","556156","0.0-49.0","ED99A4077C4B479AB6999B4F1660AAE5","019cea6c-8521-70cd-92c3-71faa1863adb","019cea5b-a1d2-7168-a211-b4d8162559a9","","null","
                <div class=""stimulus-container"">
                    <img src=""images/semantic_sequence/housework_semantic/housework_semantic_7.png"" class=""exp-image"">
                    <div class=""question-area""></div> 
                </div>","null","","","","","","","","","","","","",""
"","","","","","html-button-response","50","557179","0.0-50.0","ED99A4077C4B479AB6999B4F1660AAE5","019cea6c-8521-70cd-92c3-71faa1863adb","019cea5b-a1d2-7168-a211-b4d8162559a9","","1022","
                <div class=""stimulus-container"">
                    <img src=""images/semantic_sequence/housework_semantic/housework_semantic_7.png"" class=""exp-image"">
                    <div class=""question-area"">
                        <p style=""font-size: 20px; font-weight: bold; margin: 0;"">Is there a person in this image?</p>
                    </div>
                </div>","0","main_experiment_trial","7","housework_semantic","semantic_sequence","","","","","","","","",""
"","","","","","html-keyboard-response","51","562180","0.0-51.0","ED99A4077C4B479AB6999B4F1660AAE5","019cea6c-8521-70cd-92c3-71faa1863adb","019cea5b-a1d2-7168-a211-b4d8162559a9","","null","
                <div class=""stimulus-container"">
                    <img src=""images/semantic_sequence/housework_semantic/housework_semantic_8.png"" class=""exp-image"">
                    <div class=""question-area""></div> 
                </div>","null","","","","","","","","","","","","",""
"","","","","","html-button-response","52","563247","0.0-52.0","ED99A4077C4B479AB6999B4F1660AAE5","019cea6c-8521-70cd-92c3-71faa1863adb","019cea5b-a1d2-7168-a211-b4d8162559a9","","1066","
                <div class=""stimulus-container"">
                    <img src=""images/semantic_sequence/housework_semantic/housework_semantic_8.png"" class=""exp-image"">
                    <div class=""question-area"">
                        <p style=""font-size: 20px; font-weight: bold; margin: 0;"">Is there a person in this image?</p>
                    </div>
                </div>","0","main_experiment_trial","8","housework_semantic","semantic_sequence","","","","","","","","",""
"","","","","","html-keyboard-response","53","568263","0.0-53.0","ED99A4077C4B479AB6999B4F1660AAE5","019cea6c-8521-70cd-92c3-71faa1863adb","019cea5b-a1d2-7168-a211-b4d8162559a9","","null","
                <div class=""stimulus-container"">
                    <img src=""images/semantic_sequence/housework_semantic/housework_semantic_9.png"" class=""exp-image"">
                    <div class=""question-area""></div> 
                </div>","null","","","","","","","","","","","","",""
"","","","","","html-button-response","54","569125","0.0-54.0","ED99A4077C4B479AB6999B4F1660AAE5","019cea6c-8521-70cd-92c3-71faa1863adb","019cea5b-a1d2-7168-a211-b4d8162559a9","","861","
                <div class=""stimulus-container"">
                    <img src=""images/semantic_sequence/housework_semantic/housework_semantic_9.png"" class=""exp-image"">
                    <div class=""question-area"">
                        <p style=""font-size: 20px; font-weight: bold; margin: 0;"">Is there a person in this image?</p>
                    </div>
                </div>","0","main_experiment_trial","9","housework_semantic","semantic_sequence","","","","","","","","",""
"","","","","","html-keyboard-response","55","574126","0.0-55.0","ED99A4077C4B479AB6999B4F1660AAE5","019cea6c-8521-70cd-92c3-71faa1863adb","019cea5b-a1d2-7168-a211-b4d8162559a9","","null","
                <div class=""stimulus-container"">
                    <img src=""images/semantic_sequence/housework_semantic/housework_semantic_ten.png"" class=""exp-image"">
                    <div class=""question-area""></div> 
                </div>","null","","","","","","","","","","","","",""
"","","","","","html-button-response","56","575042","0.0-56.0","ED99A4077C4B479AB6999B4F1660AAE5","019cea6c-8521-70cd-92c3-71faa1863adb","019cea5b-a1d2-7168-a211-b4d8162559a9","","914","
                <div class=""stimulus-container"">
                    <img src=""images/semantic_sequence/housework_semantic/housework_semantic_ten.png"" class=""exp-image"">
                    <div class=""question-area"">
                        <p style=""font-size: 20px; font-weight: bold; margin: 0;"">Is there a person in this image?</p>
                    </div>
                </div>","0","main_experiment_trial","ten","housework_semantic","semantic_sequence","","","","","","","","",""
"","","","","","html-keyboard-response","57","576046","0.0-57.0","ED99A4077C4B479AB6999B4F1660AAE5","019cea6c-8521-70cd-92c3-71faa1863adb","019cea5b-a1d2-7168-a211-b4d8162559a9","","null","<div style=""background-color: white; width: 100vw; height: 100vh;""></div>","null","","","","","","","","","","","","",""
"","","","","","html-keyboard-response","58","581055","0.0-58.0","ED99A4077C4B479AB6999B4F1660AAE5","019cea6c-8521-70cd-92c3-71faa1863adb","019cea5b-a1d2-7168-a211-b4d8162559a9","","null","
                <div class=""stimulus-container"">
                    <img src=""images/semantic_sequence/physical_activity_semantic/physical_activity_semantic_1.png"" class=""exp-image"">
                    <div class=""question-area""></div> 
                </div>","null","","","","","","","","","","","","",""
"","","","","","html-button-response","59","582061","0.0-59.0","ED99A4077C4B479AB6999B4F1660AAE5","019cea6c-8521-70cd-92c3-71faa1863adb","019cea5b-a1d2-7168-a211-b4d8162559a9","","1005","
                <div class=""stimulus-container"">
                    <img src=""images/semantic_sequence/physical_activity_semantic/physical_activity_semantic_1.png"" class=""exp-image"">
                    <div class=""question-area"">
                        <p style=""font-size: 20px; font-weight: bold; margin: 0;"">Is there a person in this image?</p>
                    </div>
                </div>","0","main_experiment_trial","1","physical_activity_semantic","semantic_sequence","","","","","","","","",""
"","","","","","html-keyboard-response","60","587064","0.0-60.0","ED99A4077C4B479AB6999B4F1660AAE5","019cea6c-8521-70cd-92c3-71faa1863adb","019cea5b-a1d2-7168-a211-b4d8162559a9","","null","
                <div class=""stimulus-container"">
                    <img src=""images/semantic_sequence/physical_activity_semantic/physical_activity_semantic_2.png"" class=""exp-image"">
                    <div class=""question-area""></div> 
                </div>","null","","","","","","","","","","","","",""
"","","","","","html-button-response","61","587550","0.0-61.0","ED99A4077C4B479AB6999B4F1660AAE5","019cea6c-8521-70cd-92c3-71faa1863adb","019cea5b-a1d2-7168-a211-b4d8162559a9","","486","
                <div class=""stimulus-container"">
                    <img src=""images/semantic_sequence/physical_activity_semantic/physical_activity_semantic_2.png"" class=""exp-image"">
                    <div class=""question-area"">
                        <p style=""font-size: 20px; font-weight: bold; margin: 0;"">Is there a person in this image?</p>
                    </div>
                </div>","0","main_experiment_trial","2","physical_activity_semantic","semantic_sequence","","","","","","","","",""
"","","","","","html-keyboard-response","62","592556","0.0-62.0","ED99A4077C4B479AB6999B4F1660AAE5","019cea6c-8521-70cd-92c3-71faa1863adb","019cea5b-a1d2-7168-a211-b4d8162559a9","","null","
                <div class=""stimulus-container"">
                    <img src=""images/semantic_sequence/physical_activity_semantic/physical_activity_semantic_3.png"" class=""exp-image"">
                    <div class=""question-area""></div> 
                </div>","null","","","","","","","","","","","","",""
"","","","","","html-button-response","63","593135","0.0-63.0","ED99A4077C4B479AB6999B4F1660AAE5","019cea6c-8521-70cd-92c3-71faa1863adb","019cea5b-a1d2-7168-a211-b4d8162559a9","","577","
                <div class=""stimulus-container"">
                    <img src=""images/semantic_sequence/physical_activity_semantic/physical_activity_semantic_3.png"" class=""exp-image"">
                    <div class=""question-area"">
                        <p style=""font-size: 20px; font-weight: bold; margin: 0;"">Is there a person in this image?</p>
                    </div>
                </div>","0","main_experiment_trial","3","physical_activity_semantic","semantic_sequence","","","","","","","","",""
"","","","","","html-keyboard-response","64","598140","0.0-64.0","ED99A4077C4B479AB6999B4F1660AAE5","019cea6c-8521-70cd-92c3-71faa1863adb","019cea5b-a1d2-7168-a211-b4d8162559a9","","null","
                <div class=""stimulus-container"">
                    <img src=""images/semantic_sequence/physical_activity_semantic/physical_activity_semantic_4.png"" class=""exp-image"">
                    <div class=""question-area""></div> 
                </div>","null","","","","","","","","","","","","",""
"","","","","","html-button-response","65","598603","0.0-65.0","ED99A4077C4B479AB6999B4F1660AAE5","019cea6c-8521-70cd-92c3-71faa1863adb","019cea5b-a1d2-7168-a211-b4d8162559a9","","461","
                <div class=""stimulus-container"">
                    <img src=""images/semantic_sequence/physical_activity_semantic/physical_activity_semantic_4.png"" class=""exp-image"">
                    <div class=""question-area"">
                        <p style=""font-size: 20px; font-weight: bold; margin: 0;"">Is there a person in this image?</p>
                    </div>
                </div>","0","main_experiment_trial","4","physical_activity_semantic","semantic_sequence","","","","","","","","",""
"","","","","","html-keyboard-response","66","603628","0.0-66.0","ED99A4077C4B479AB6999B4F1660AAE5","019cea6c-8521-70cd-92c3-71faa1863adb","019cea5b-a1d2-7168-a211-b4d8162559a9","","null","
                <div class=""stimulus-container"">
                    <img src=""images/semantic_sequence/physical_activity_semantic/physical_activity_semantic_5.png"" class=""exp-image"">
                    <div class=""question-area""></div> 
                </div>","null","","","","","","","","","","","","",""
"","","","","","html-button-response","67","604173","0.0-67.0","ED99A4077C4B479AB6999B4F1660AAE5","019cea6c-8521-70cd-92c3-71faa1863adb","019cea5b-a1d2-7168-a211-b4d8162559a9","","544","
                <div class=""stimulus-container"">
                    <img src=""images/semantic_sequence/physical_activity_semantic/physical_activity_semantic_5.png"" class=""exp-image"">
                    <div class=""question-area"">
                        <p style=""font-size: 20px; font-weight: bold; margin: 0;"">Is there a person in this image?</p>
                    </div>
                </div>","0","main_experiment_trial","5","physical_activity_semantic","semantic_sequence","","","","","","","","",""
"","","","","","html-keyboard-response","68","609177","0.0-68.0","ED99A4077C4B479AB6999B4F1660AAE5","019cea6c-8521-70cd-92c3-71faa1863adb","019cea5b-a1d2-7168-a211-b4d8162559a9","","null","
                <div class=""stimulus-container"">
                    <img src=""images/semantic_sequence/physical_activity_semantic/physical_activity_semantic_6.png"" class=""exp-image"">
                    <div class=""question-area""></div> 
                </div>","null","","","","","","","","","","","","",""
"","","","","","html-button-response","69","609810","0.0-69.0","ED99A4077C4B479AB6999B4F1660AAE5","019cea6c-8521-70cd-92c3-71faa1863adb","019cea5b-a1d2-7168-a211-b4d8162559a9","","632","
                <div class=""stimulus-container"">
                    <img src=""images/semantic_sequence/physical_activity_semantic/physical_activity_semantic_6.png"" class=""exp-image"">
                    <div class=""question-area"">
                        <p style=""font-size: 20px; font-weight: bold; margin: 0;"">Is there a person in this image?</p>
                    </div>
                </div>","0","main_experiment_trial","6","physical_activity_semantic","semantic_sequence","","","","","","","","",""
"","","","","","html-keyboard-response","70","614825","0.0-70.0","ED99A4077C4B479AB6999B4F1660AAE5","019cea6c-8521-70cd-92c3-71faa1863adb","019cea5b-a1d2-7168-a211-b4d8162559a9","","null","
                <div class=""stimulus-container"">
                    <img src=""images/semantic_sequence/physical_activity_semantic/physical_activity_semantic_7.png"" class=""exp-image"">
                    <div class=""question-area""></div> 
                </div>","null","","","","","","","","","","","","",""
"","","","","","html-button-response","71","615549","0.0-71.0","ED99A4077C4B479AB6999B4F1660AAE5","019cea6c-8521-70cd-92c3-71faa1863adb","019cea5b-a1d2-7168-a211-b4d8162559a9","","723","
                <div class=""stimulus-container"">
                    <img src=""images/semantic_sequence/physical_activity_semantic/physical_activity_semantic_7.png"" class=""exp-image"">
                    <div class=""question-area"">
                        <p style=""font-size: 20px; font-weight: bold; margin: 0;"">Is there a person in this image?</p>
                    </div>
                </div>","0","main_experiment_trial","7","physical_activity_semantic","semantic_sequence","","","","","","","","",""
"","","","","","html-keyboard-response","72","620558","0.0-72.0","ED99A4077C4B479AB6999B4F1660AAE5","019cea6c-8521-70cd-92c3-71faa1863adb","019cea5b-a1d2-7168-a211-b4d8162559a9","","null","
                <div class=""stimulus-container"">
                    <img src=""images/semantic_sequence/physical_activity_semantic/physical_activity_semantic_8.png"" class=""exp-image"">
                    <div class=""question-area""></div> 
                </div>","null","","","","","","","","","","","","",""
"","","","","","html-button-response","73","621276","0.0-73.0","ED99A4077C4B479AB6999B4F1660AAE5","019cea6c-8521-70cd-92c3-71faa1863adb","019cea5b-a1d2-7168-a211-b4d8162559a9","","716","
                <div class=""stimulus-container"">
                    <img src=""images/semantic_sequence/physical_activity_semantic/physical_activity_semantic_8.png"" class=""exp-image"">
                    <div class=""question-area"">
                        <p style=""font-size: 20px; font-weight: bold; margin: 0;"">Is there a person in this image?</p>
                    </div>
                </div>","0","main_experiment_trial","8","physical_activity_semantic","semantic_sequence","","","","","","","","",""
"","","","","","html-keyboard-response","74","626280","0.0-74.0","ED99A4077C4B479AB6999B4F1660AAE5","019cea6c-8521-70cd-92c3-71faa1863adb","019cea5b-a1d2-7168-a211-b4d8162559a9","","null","
                <div class=""stimulus-container"">
                    <img src=""images/semantic_sequence/physical_activity_semantic/physical_activity_semantic_9.png"" class=""exp-image"">
                    <div class=""question-area""></div> 
                </div>","null","","","","","","","","","","","","",""
"","","","","","html-button-response","75","626741","0.0-75.0","ED99A4077C4B479AB6999B4F1660AAE5","019cea6c-8521-70cd-92c3-71faa1863adb","019cea5b-a1d2-7168-a211-b4d8162559a9","","461","
                <div class=""stimulus-container"">
                    <img src=""images/semantic_sequence/physical_activity_semantic/physical_activity_semantic_9.png"" class=""exp-image"">
                    <div class=""question-area"">
                        <p style=""font-size: 20px; font-weight: bold; margin: 0;"">Is there a person in this image?</p>
                    </div>
                </div>","0","main_experiment_trial","9","physical_activity_semantic","semantic_sequence","","","","","","","","",""
"","","","","","html-keyboard-response","76","631757","0.0-76.0","ED99A4077C4B479AB6999B4F1660AAE5","019cea6c-8521-70cd-92c3-71faa1863adb","019cea5b-a1d2-7168-a211-b4d8162559a9","","null","
                <div class=""stimulus-container"">
                    <img src=""images/semantic_sequence/physical_activity_semantic/physical_activity_semantic_ten.png"" class=""exp-image"">
                    <div class=""question-area""></div> 
                </div>","null","","","","","","","","","","","","",""
"","","","","","html-button-response","77","632406","0.0-77.0","ED99A4077C4B479AB6999B4F1660AAE5","019cea6c-8521-70cd-92c3-71faa1863adb","019cea5b-a1d2-7168-a211-b4d8162559a9","","649","
                <div class=""stimulus-container"">
                    <img src=""images/semantic_sequence/physical_activity_semantic/physical_activity_semantic_ten.png"" class=""exp-image"">
                    <div class=""question-area"">
                        <p style=""font-size: 20px; font-weight: bold; margin: 0;"">Is there a person in this image?</p>
                    </div>
                </div>","0","main_experiment_trial","ten","physical_activity_semantic","semantic_sequence","","","","","","","","",""
"","","","","","html-keyboard-response","78","633413","0.0-78.0","ED99A4077C4B479AB6999B4F1660AAE5","019cea6c-8521-70cd-92c3-71faa1863adb","019cea5b-a1d2-7168-a211-b4d8162559a9","","null","<div style=""background-color: white; width: 100vw; height: 100vh;""></div>","null","","","","","","","","","","","","",""
"","","","","","html-keyboard-response","79","638428","0.0-79.0","ED99A4077C4B479AB6999B4F1660AAE5","019cea6c-8521-70cd-92c3-71faa1863adb","019cea5b-a1d2-7168-a211-b4d8162559a9","","null","
                <div class=""stimulus-container"">
                    <img src=""images/semantic_sequence/redecorating_a_house_semantic/redecorating_a_house_semantic_1.png"" class=""exp-image"">
                    <div class=""question-area""></div> 
                </div>","null","","","","","","","","","","","","",""
"","","","","","html-button-response","80","639722","0.0-80.0","ED99A4077C4B479AB6999B4F1660AAE5","019cea6c-8521-70cd-92c3-71faa1863adb","019cea5b-a1d2-7168-a211-b4d8162559a9","","1293","
                <div class=""stimulus-container"">
                    <img src=""images/semantic_sequence/redecorating_a_house_semantic/redecorating_a_house_semantic_1.png"" class=""exp-image"">
                    <div class=""question-area"">
                        <p style=""font-size: 20px; font-weight: bold; margin: 0;"">Is there a person in this image?</p>
                    </div>
                </div>","0","main_experiment_trial","1","redecorating_a_house_semantic","semantic_sequence","","","","","","","","",""
"","","","","","html-keyboard-response","81","644739","0.0-81.0","ED99A4077C4B479AB6999B4F1660AAE5","019cea6c-8521-70cd-92c3-71faa1863adb","019cea5b-a1d2-7168-a211-b4d8162559a9","","null","
                <div class=""stimulus-container"">
                    <img src=""images/semantic_sequence/redecorating_a_house_semantic/redecorating_a_house_semantic_2.png"" class=""exp-image"">
                    <div class=""question-area""></div> 
                </div>","null","","","","","","","","","","","","",""
"","","","","","html-button-response","82","645550","0.0-82.0","ED99A4077C4B479AB6999B4F1660AAE5","019cea6c-8521-70cd-92c3-71faa1863adb","019cea5b-a1d2-7168-a211-b4d8162559a9","","809","
                <div class=""stimulus-container"">
                    <img src=""images/semantic_sequence/redecorating_a_house_semantic/redecorating_a_house_semantic_2.png"" class=""exp-image"">
                    <div class=""question-area"">
                        <p style=""font-size: 20px; font-weight: bold; margin: 0;"">Is there a person in this image?</p>
                    </div>
                </div>","0","main_experiment_trial","2","redecorating_a_house_semantic","semantic_sequence","","","","","","","","",""
"","","","","","html-keyboard-response","83","650563","0.0-83.0","ED99A4077C4B479AB6999B4F1660AAE5","019cea6c-8521-70cd-92c3-71faa1863adb","019cea5b-a1d2-7168-a211-b4d8162559a9","","null","
                <div class=""stimulus-container"">
                    <img src=""images/semantic_sequence/redecorating_a_house_semantic/redecorating_a_house_semantic_3.png"" class=""exp-image"">
                    <div class=""question-area""></div> 
                </div>","null","","","","","","","","","","","","",""
"","","","","","html-button-response","84","651174","0.0-84.0","ED99A4077C4B479AB6999B4F1660AAE5","019cea6c-8521-70cd-92c3-71faa1863adb","019cea5b-a1d2-7168-a211-b4d8162559a9","","609","
                <div class=""stimulus-container"">
                    <img src=""images/semantic_sequence/redecorating_a_house_semantic/redecorating_a_house_semantic_3.png"" class=""exp-image"">
                    <div class=""question-area"">
                        <p style=""font-size: 20px; font-weight: bold; margin: 0;"">Is there a person in this image?</p>
                    </div>
                </div>","0","main_experiment_trial","3","redecorating_a_house_semantic","semantic_sequence","","","","","","","","",""
"","","","","","html-keyboard-response","85","656191","0.0-85.0","ED99A4077C4B479AB6999B4F1660AAE5","019cea6c-8521-70cd-92c3-71faa1863adb","019cea5b-a1d2-7168-a211-b4d8162559a9","","null","
                <div class=""stimulus-container"">
                    <img src=""images/semantic_sequence/redecorating_a_house_semantic/redecorating_a_house_semantic_4.png"" class=""exp-image"">
                    <div class=""question-area""></div> 
                </div>","null","","","","","","","","","","","","",""
"","","","","","html-button-response","86","657104","0.0-86.0","ED99A4077C4B479AB6999B4F1660AAE5","019cea6c-8521-70cd-92c3-71faa1863adb","019cea5b-a1d2-7168-a211-b4d8162559a9","","912","
                <div class=""stimulus-container"">
                    <img src=""images/semantic_sequence/redecorating_a_house_semantic/redecorating_a_house_semantic_4.png"" class=""exp-image"">
                    <div class=""question-area"">
                        <p style=""font-size: 20px; font-weight: bold; margin: 0;"">Is there a person in this image?</p>
                    </div>
                </div>","0","main_experiment_trial","4","redecorating_a_house_semantic","semantic_sequence","","","","","","","","",""
"","","","","","html-keyboard-response","87","662114","0.0-87.0","ED99A4077C4B479AB6999B4F1660AAE5","019cea6c-8521-70cd-92c3-71faa1863adb","019cea5b-a1d2-7168-a211-b4d8162559a9","","null","
                <div class=""stimulus-container"">
                    <img src=""images/semantic_sequence/redecorating_a_house_semantic/redecorating_a_house_semantic_5.png"" class=""exp-image"">
                    <div class=""question-area""></div> 
                </div>","null","","","","","","","","","","","","",""
"","","","","","html-button-response","88","663665","0.0-88.0","ED99A4077C4B479AB6999B4F1660AAE5","019cea6c-8521-70cd-92c3-71faa1863adb","019cea5b-a1d2-7168-a211-b4d8162559a9","","1550","
                <div class=""stimulus-container"">
                    <img src=""images/semantic_sequence/redecorating_a_house_semantic/redecorating_a_house_semantic_5.png"" class=""exp-image"">
                    <div class=""question-area"">
                        <p style=""font-size: 20px; font-weight: bold; margin: 0;"">Is there a person in this image?</p>
                    </div>
                </div>","0","main_experiment_trial","5","redecorating_a_house_semantic","semantic_sequence","","","","","","","","",""
"","","","","","html-keyboard-response","89","668670","0.0-89.0","ED99A4077C4B479AB6999B4F1660AAE5","019cea6c-8521-70cd-92c3-71faa1863adb","019cea5b-a1d2-7168-a211-b4d8162559a9","","null","
                <div class=""stimulus-container"">
                    <img src=""images/semantic_sequence/redecorating_a_house_semantic/redecorating_a_house_semantic_6.png"" class=""exp-image"">
                    <div class=""question-area""></div> 
                </div>","null","","","","","","","","","","","","",""
"","","","","","html-button-response","90","669891","0.0-90.0","ED99A4077C4B479AB6999B4F1660AAE5","019cea6c-8521-70cd-92c3-71faa1863adb","019cea5b-a1d2-7168-a211-b4d8162559a9","","1220","
                <div class=""stimulus-container"">
                    <img src=""images/semantic_sequence/redecorating_a_house_semantic/redecorating_a_house_semantic_6.png"" class=""exp-image"">
                    <div class=""question-area"">
                        <p style=""font-size: 20px; font-weight: bold; margin: 0;"">Is there a person in this image?</p>
                    </div>
                </div>","0","main_experiment_trial","6","redecorating_a_house_semantic","semantic_sequence","","","","","","","","",""
"","","","","","html-keyboard-response","91","674907","0.0-91.0","ED99A4077C4B479AB6999B4F1660AAE5","019cea6c-8521-70cd-92c3-71faa1863adb","019cea5b-a1d2-7168-a211-b4d8162559a9","","null","
                <div class=""stimulus-container"">
                    <img src=""images/semantic_sequence/redecorating_a_house_semantic/redecorating_a_house_semantic_7.png"" class=""exp-image"">
                    <div class=""question-area""></div> 
                </div>","null","","","","","","","","","","","","",""
"","","","","","html-button-response","92","675624","0.0-92.0","ED99A4077C4B479AB6999B4F1660AAE5","019cea6c-8521-70cd-92c3-71faa1863adb","019cea5b-a1d2-7168-a211-b4d8162559a9","","716","
                <div class=""stimulus-container"">
                    <img src=""images/semantic_sequence/redecorating_a_house_semantic/redecorating_a_house_semantic_7.png"" class=""exp-image"">
                    <div class=""question-area"">
                        <p style=""font-size: 20px; font-weight: bold; margin: 0;"">Is there a person in this image?</p>
                    </div>
                </div>","0","main_experiment_trial","7","redecorating_a_house_semantic","semantic_sequence","","","","","","","","",""
"","","","","","html-keyboard-response","93","680636","0.0-93.0","ED99A4077C4B479AB6999B4F1660AAE5","019cea6c-8521-70cd-92c3-71faa1863adb","019cea5b-a1d2-7168-a211-b4d8162559a9","","null","
                <div class=""stimulus-container"">
                    <img src=""images/semantic_sequence/redecorating_a_house_semantic/redecorating_a_house_semantic_8.png"" class=""exp-image"">
                    <div class=""question-area""></div> 
                </div>","null","","","","","","","","","","","","",""
"","","","","","html-button-response","94","681059","0.0-94.0","ED99A4077C4B479AB6999B4F1660AAE5","019cea6c-8521-70cd-92c3-71faa1863adb","019cea5b-a1d2-7168-a211-b4d8162559a9","","422","
                <div class=""stimulus-container"">
                    <img src=""images/semantic_sequence/redecorating_a_house_semantic/redecorating_a_house_semantic_8.png"" class=""exp-image"">
                    <div class=""question-area"">
                        <p style=""font-size: 20px; font-weight: bold; margin: 0;"">Is there a person in this image?</p>
                    </div>
                </div>","0","main_experiment_trial","8","redecorating_a_house_semantic","semantic_sequence","","","","","","","","",""
"","","","","","html-keyboard-response","95","686067","0.0-95.0","ED99A4077C4B479AB6999B4F1660AAE5","019cea6c-8521-70cd-92c3-71faa1863adb","019cea5b-a1d2-7168-a211-b4d8162559a9","","null","
                <div class=""stimulus-container"">
                    <img src=""images/semantic_sequence/redecorating_a_house_semantic/redecorating_a_house_semantic_9.png"" class=""exp-image"">
                    <div class=""question-area""></div> 
                </div>","null","","","","","","","","","","","","",""
"","","","","","html-button-response","96","687223","0.0-96.0","ED99A4077C4B479AB6999B4F1660AAE5","019cea6c-8521-70cd-92c3-71faa1863adb","019cea5b-a1d2-7168-a211-b4d8162559a9","","1155","
                <div class=""stimulus-container"">
                    <img src=""images/semantic_sequence/redecorating_a_house_semantic/redecorating_a_house_semantic_9.png"" class=""exp-image"">
                    <div class=""question-area"">
                        <p style=""font-size: 20px; font-weight: bold; margin: 0;"">Is there a person in this image?</p>
                    </div>
                </div>","0","main_experiment_trial","9","redecorating_a_house_semantic","semantic_sequence","","","","","","","","",""
"","","","","","html-keyboard-response","97","692239","0.0-97.0","ED99A4077C4B479AB6999B4F1660AAE5","019cea6c-8521-70cd-92c3-71faa1863adb","019cea5b-a1d2-7168-a211-b4d8162559a9","","null","
                <div class=""stimulus-container"">
                    <img src=""images/semantic_sequence/redecorating_a_house_semantic/redecorating_a_house_semantic_ten.png"" class=""exp-image"">
                    <div class=""question-area""></div> 
                </div>","null","","","","","","","","","","","","",""
"","","","","","html-button-response","98","693012","0.0-98.0","ED99A4077C4B479AB6999B4F1660AAE5","019cea6c-8521-70cd-92c3-71faa1863adb","019cea5b-a1d2-7168-a211-b4d8162559a9","","772","
                <div class=""stimulus-container"">
                    <img src=""images/semantic_sequence/redecorating_a_house_semantic/redecorating_a_house_semantic_ten.png"" class=""exp-image"">
                    <div class=""question-area"">
                        <p style=""font-size: 20px; font-weight: bold; margin: 0;"">Is there a person in this image?</p>
                    </div>
                </div>","0","main_experiment_trial","ten","redecorating_a_house_semantic","semantic_sequence","","","","","","","","",""
"","","","","","html-keyboard-response","99","694025","0.0-99.0","ED99A4077C4B479AB6999B4F1660AAE5","019cea6c-8521-70cd-92c3-71faa1863adb","019cea5b-a1d2-7168-a211-b4d8162559a9","","null","<div style=""background-color: white; width: 100vw; height: 100vh;""></div>","null","","","","","","","","","","","","",""
"","","","","","html-keyboard-response","100","699035","0.0-100.0","ED99A4077C4B479AB6999B4F1660AAE5","019cea6c-8521-70cd-92c3-71faa1863adb","019cea5b-a1d2-7168-a211-b4d8162559a9","","null","
                <div class=""stimulus-container"">
                    <img src=""images/semantic_sequence/exploring_nature_semantic/exploring_nature_semantic_1.png"" class=""exp-image"">
                    <div class=""question-area""></div> 
                </div>","null","","","","","","","","","","","","",""
"","","","","","html-button-response","101","700052","0.0-101.0","ED99A4077C4B479AB6999B4F1660AAE5","019cea6c-8521-70cd-92c3-71faa1863adb","019cea5b-a1d2-7168-a211-b4d8162559a9","","1016","
                <div class=""stimulus-container"">
                    <img src=""images/semantic_sequence/exploring_nature_semantic/exploring_nature_semantic_1.png"" class=""exp-image"">
                    <div class=""question-area"">
                        <p style=""font-size: 20px; font-weight: bold; margin: 0;"">Is there a person in this image?</p>
                    </div>
                </div>","0","main_experiment_trial","1","exploring_nature_semantic","semantic_sequence","","","","","","","","",""
"","","","","","html-keyboard-response","102","705053","0.0-102.0","ED99A4077C4B479AB6999B4F1660AAE5","019cea6c-8521-70cd-92c3-71faa1863adb","019cea5b-a1d2-7168-a211-b4d8162559a9","","null","
                <div class=""stimulus-container"">
                    <img src=""images/semantic_sequence/exploring_nature_semantic/exploring_nature_semantic_2.png"" class=""exp-image"">
                    <div class=""question-area""></div> 
                </div>","null","","","","","","","","","","","","",""
"","","","","","html-button-response","103","705887","0.0-103.0","ED99A4077C4B479AB6999B4F1660AAE5","019cea6c-8521-70cd-92c3-71faa1863adb","019cea5b-a1d2-7168-a211-b4d8162559a9","","833","
                <div class=""stimulus-container"">
                    <img src=""images/semantic_sequence/exploring_nature_semantic/exploring_nature_semantic_2.png"" class=""exp-image"">
                    <div class=""question-area"">
                        <p style=""font-size: 20px; font-weight: bold; margin: 0;"">Is there a person in this image?</p>
                    </div>
                </div>","0","main_experiment_trial","2","exploring_nature_semantic","semantic_sequence","","","","","","","","",""
"","","","","","html-keyboard-response","104","710898","0.0-104.0","ED99A4077C4B479AB6999B4F1660AAE5","019cea6c-8521-70cd-92c3-71faa1863adb","019cea5b-a1d2-7168-a211-b4d8162559a9","","null","
                <div class=""stimulus-container"">
                    <img src=""images/semantic_sequence/exploring_nature_semantic/exploring_nature_semantic_3.png"" class=""exp-image"">
                    <div class=""question-area""></div> 
                </div>","null","","","","","","","","","","","","",""
"","","","","","html-button-response","105","712552","0.0-105.0","ED99A4077C4B479AB6999B4F1660AAE5","019cea6c-8521-70cd-92c3-71faa1863adb","019cea5b-a1d2-7168-a211-b4d8162559a9","","1652","
                <div class=""stimulus-container"">
                    <img src=""images/semantic_sequence/exploring_nature_semantic/exploring_nature_semantic_3.png"" class=""exp-image"">
                    <div class=""question-area"">
                        <p style=""font-size: 20px; font-weight: bold; margin: 0;"">Is there a person in this image?</p>
                    </div>
                </div>","0","main_experiment_trial","3","exploring_nature_semantic","semantic_sequence","","","","","","","","",""
"","","","","","html-keyboard-response","106","717566","0.0-106.0","ED99A4077C4B479AB6999B4F1660AAE5","019cea6c-8521-70cd-92c3-71faa1863adb","019cea5b-a1d2-7168-a211-b4d8162559a9","","null","
                <div class=""stimulus-container"">
                    <img src=""images/semantic_sequence/exploring_nature_semantic/exploring_nature_semantic_4.png"" class=""exp-image"">
                    <div class=""question-area""></div> 
                </div>","null","","","","","","","","","","","","",""
"","","","","","html-button-response","107","718620","0.0-107.0","ED99A4077C4B479AB6999B4F1660AAE5","019cea6c-8521-70cd-92c3-71faa1863adb","019cea5b-a1d2-7168-a211-b4d8162559a9","","1054","
                <div class=""stimulus-container"">
                    <img src=""images/semantic_sequence/exploring_nature_semantic/exploring_nature_semantic_4.png"" class=""exp-image"">
                    <div class=""question-area"">
                        <p style=""font-size: 20px; font-weight: bold; margin: 0;"">Is there a person in this image?</p>
                    </div>
                </div>","0","main_experiment_trial","4","exploring_nature_semantic","semantic_sequence","","","","","","","","",""
"","","","","","html-keyboard-response","108","723628","0.0-108.0","ED99A4077C4B479AB6999B4F1660AAE5","019cea6c-8521-70cd-92c3-71faa1863adb","019cea5b-a1d2-7168-a211-b4d8162559a9","","null","
                <div class=""stimulus-container"">
                    <img src=""images/semantic_sequence/exploring_nature_semantic/exploring_nature_semantic_5.png"" class=""exp-image"">
                    <div class=""question-area""></div> 
                </div>","null","","","","","","","","","","","","",""
"","","","","","html-button-response","109","724682","0.0-109.0","ED99A4077C4B479AB6999B4F1660AAE5","019cea6c-8521-70cd-92c3-71faa1863adb","019cea5b-a1d2-7168-a211-b4d8162559a9","","1053","
                <div class=""stimulus-container"">
                    <img src=""images/semantic_sequence/exploring_nature_semantic/exploring_nature_semantic_5.png"" class=""exp-image"">
                    <div class=""question-area"">
                        <p style=""font-size: 20px; font-weight: bold; margin: 0;"">Is there a person in this image?</p>
                    </div>
                </div>","0","main_experiment_trial","5","exploring_nature_semantic","semantic_sequence","","","","","","","","",""
"","","","","","html-keyboard-response","110","729691","0.0-110.0","ED99A4077C4B479AB6999B4F1660AAE5","019cea6c-8521-70cd-92c3-71faa1863adb","019cea5b-a1d2-7168-a211-b4d8162559a9","","null","
                <div class=""stimulus-container"">
                    <img src=""images/semantic_sequence/exploring_nature_semantic/exploring_nature_semantic_6.png"" class=""exp-image"">
                    <div class=""question-area""></div> 
                </div>","null","","","","","","","","","","","","",""
"","","","","","html-button-response","111","731271","0.0-111.0","ED99A4077C4B479AB6999B4F1660AAE5","019cea6c-8521-70cd-92c3-71faa1863adb","019cea5b-a1d2-7168-a211-b4d8162559a9","","1579","
                <div class=""stimulus-container"">
                    <img src=""images/semantic_sequence/exploring_nature_semantic/exploring_nature_semantic_6.png"" class=""exp-image"">
                    <div class=""question-area"">
                        <p style=""font-size: 20px; font-weight: bold; margin: 0;"">Is there a person in this image?</p>
                    </div>
                </div>","0","main_experiment_trial","6","exploring_nature_semantic","semantic_sequence","","","","","","","","",""
"","","","","","html-keyboard-response","112","736283","0.0-112.0","ED99A4077C4B479AB6999B4F1660AAE5","019cea6c-8521-70cd-92c3-71faa1863adb","019cea5b-a1d2-7168-a211-b4d8162559a9","","null","
                <div class=""stimulus-container"">
                    <img src=""images/semantic_sequence/exploring_nature_semantic/exploring_nature_semantic_7.png"" class=""exp-image"">
                    <div class=""question-area""></div> 
                </div>","null","","","","","","","","","","","","",""
"","","","","","html-button-response","113","736793","0.0-113.0","ED99A4077C4B479AB6999B4F1660AAE5","019cea6c-8521-70cd-92c3-71faa1863adb","019cea5b-a1d2-7168-a211-b4d8162559a9","","509","
                <div class=""stimulus-container"">
                    <img src=""images/semantic_sequence/exploring_nature_semantic/exploring_nature_semantic_7.png"" class=""exp-image"">
                    <div class=""question-area"">
                        <p style=""font-size: 20px; font-weight: bold; margin: 0;"">Is there a person in this image?</p>
                    </div>
                </div>","0","main_experiment_trial","7","exploring_nature_semantic","semantic_sequence","","","","","","","","",""
"","","","","","html-keyboard-response","114","741806","0.0-114.0","ED99A4077C4B479AB6999B4F1660AAE5","019cea6c-8521-70cd-92c3-71faa1863adb","019cea5b-a1d2-7168-a211-b4d8162559a9","","null","
                <div class=""stimulus-container"">
                    <img src=""images/semantic_sequence/exploring_nature_semantic/exploring_nature_semantic_8.png"" class=""exp-image"">
                    <div class=""question-area""></div> 
                </div>","null","","","","","","","","","","","","",""
"","","","","","html-button-response","115","742712","0.0-115.0","ED99A4077C4B479AB6999B4F1660AAE5","019cea6c-8521-70cd-92c3-71faa1863adb","019cea5b-a1d2-7168-a211-b4d8162559a9","","905","
                <div class=""stimulus-container"">
                    <img src=""images/semantic_sequence/exploring_nature_semantic/exploring_nature_semantic_8.png"" class=""exp-image"">
                    <div class=""question-area"">
                        <p style=""font-size: 20px; font-weight: bold; margin: 0;"">Is there a person in this image?</p>
                    </div>
                </div>","0","main_experiment_trial","8","exploring_nature_semantic","semantic_sequence","","","","","","","","",""
"","","","","","html-keyboard-response","116","747724","0.0-116.0","ED99A4077C4B479AB6999B4F1660AAE5","019cea6c-8521-70cd-92c3-71faa1863adb","019cea5b-a1d2-7168-a211-b4d8162559a9","","null","
                <div class=""stimulus-container"">
                    <img src=""images/semantic_sequence/exploring_nature_semantic/exploring_nature_semantic_9.png"" class=""exp-image"">
                    <div class=""question-area""></div> 
                </div>","null","","","","","","","","","","","","",""
"","","","","","html-button-response","117","748496","0.0-117.0","ED99A4077C4B479AB6999B4F1660AAE5","019cea6c-8521-70cd-92c3-71faa1863adb","019cea5b-a1d2-7168-a211-b4d8162559a9","","771","
                <div class=""stimulus-container"">
                    <img src=""images/semantic_sequence/exploring_nature_semantic/exploring_nature_semantic_9.png"" class=""exp-image"">
                    <div class=""question-area"">
                        <p style=""font-size: 20px; font-weight: bold; margin: 0;"">Is there a person in this image?</p>
                    </div>
                </div>","0","main_experiment_trial","9","exploring_nature_semantic","semantic_sequence","","","","","","","","",""
"","","","","","html-keyboard-response","118","753512","0.0-118.0","ED99A4077C4B479AB6999B4F1660AAE5","019cea6c-8521-70cd-92c3-71faa1863adb","019cea5b-a1d2-7168-a211-b4d8162559a9","","null","
                <div class=""stimulus-container"">
                    <img src=""images/semantic_sequence/exploring_nature_semantic/exploring_nature_semantic_ten.png"" class=""exp-image"">
                    <div class=""question-area""></div> 
                </div>","null","","","","","","","","","","","","",""
"","","","","","html-button-response","119","754374","0.0-119.0","ED99A4077C4B479AB6999B4F1660AAE5","019cea6c-8521-70cd-92c3-71faa1863adb","019cea5b-a1d2-7168-a211-b4d8162559a9","","861","
                <div class=""stimulus-container"">
                    <img src=""images/semantic_sequence/exploring_nature_semantic/exploring_nature_semantic_ten.png"" class=""exp-image"">
                    <div class=""question-area"">
                        <p style=""font-size: 20px; font-weight: bold; margin: 0;"">Is there a person in this image?</p>
                    </div>
                </div>","0","main_experiment_trial","ten","exploring_nature_semantic","semantic_sequence","","","","","","","","",""
"","","","","","html-keyboard-response","120","755385","0.0-120.0","ED99A4077C4B479AB6999B4F1660AAE5","019cea6c-8521-70cd-92c3-71faa1863adb","019cea5b-a1d2-7168-a211-b4d8162559a9","","null","<div style=""background-color: white; width: 100vw; height: 100vh;""></div>","null","","","","","","","","","","","","",""
"","","","","","html-keyboard-response","121","760392","0.0-121.0","ED99A4077C4B479AB6999B4F1660AAE5","019cea6c-8521-70cd-92c3-71faa1863adb","019cea5b-a1d2-7168-a211-b4d8162559a9","","null","
                <div class=""stimulus-container"">
                    <img src=""images/semantic_sequence/using_technology_semantic/using_technology_semantic_1.png"" class=""exp-image"">
                    <div class=""question-area""></div> 
                </div>","null","","","","","","","","","","","","",""
"","","","","","html-button-response","122","762069","0.0-122.0","ED99A4077C4B479AB6999B4F1660AAE5","019cea6c-8521-70cd-92c3-71faa1863adb","019cea5b-a1d2-7168-a211-b4d8162559a9","","1676","
                <div class=""stimulus-container"">
                    <img src=""images/semantic_sequence/using_technology_semantic/using_technology_semantic_1.png"" class=""exp-image"">
                    <div class=""question-area"">
                        <p style=""font-size: 20px; font-weight: bold; margin: 0;"">Is there a person in this image?</p>
                    </div>
                </div>","0","main_experiment_trial","1","using_technology_semantic","semantic_sequence","","","","","","","","",""
"","","","","","html-keyboard-response","123","767080","0.0-123.0","ED99A4077C4B479AB6999B4F1660AAE5","019cea6c-8521-70cd-92c3-71faa1863adb","019cea5b-a1d2-7168-a211-b4d8162559a9","","null","
                <div class=""stimulus-container"">
                    <img src=""images/semantic_sequence/using_technology_semantic/using_technology_semantic_2.png"" class=""exp-image"">
                    <div class=""question-area""></div> 
                </div>","null","","","","","","","","","","","","",""
"","","","","","html-button-response","124","767948","0.0-124.0","ED99A4077C4B479AB6999B4F1660AAE5","019cea6c-8521-70cd-92c3-71faa1863adb","019cea5b-a1d2-7168-a211-b4d8162559a9","","867","
                <div class=""stimulus-container"">
                    <img src=""images/semantic_sequence/using_technology_semantic/using_technology_semantic_2.png"" class=""exp-image"">
                    <div class=""question-area"">
                        <p style=""font-size: 20px; font-weight: bold; margin: 0;"">Is there a person in this image?</p>
                    </div>
                </div>","0","main_experiment_trial","2","using_technology_semantic","semantic_sequence","","","","","","","","",""
"","","","","","html-keyboard-response","125","772960","0.0-125.0","ED99A4077C4B479AB6999B4F1660AAE5","019cea6c-8521-70cd-92c3-71faa1863adb","019cea5b-a1d2-7168-a211-b4d8162559a9","","null","
                <div class=""stimulus-container"">
                    <img src=""images/semantic_sequence/using_technology_semantic/using_technology_semantic_3.png"" class=""exp-image"">
                    <div class=""question-area""></div> 
                </div>","null","","","","","","","","","","","","",""
"","","","","","html-button-response","126","774030","0.0-126.0","ED99A4077C4B479AB6999B4F1660AAE5","019cea6c-8521-70cd-92c3-71faa1863adb","019cea5b-a1d2-7168-a211-b4d8162559a9","","1069","
                <div class=""stimulus-container"">
                    <img src=""images/semantic_sequence/using_technology_semantic/using_technology_semantic_3.png"" class=""exp-image"">
                    <div class=""question-area"">
                        <p style=""font-size: 20px; font-weight: bold; margin: 0;"">Is there a person in this image?</p>
                    </div>
                </div>","0","main_experiment_trial","3","using_technology_semantic","semantic_sequence","","","","","","","","",""
"","","","","","html-keyboard-response","127","779046","0.0-127.0","ED99A4077C4B479AB6999B4F1660AAE5","019cea6c-8521-70cd-92c3-71faa1863adb","019cea5b-a1d2-7168-a211-b4d8162559a9","","null","
                <div class=""stimulus-container"">
                    <img src=""images/semantic_sequence/using_technology_semantic/using_technology_semantic_4.png"" class=""exp-image"">
                    <div class=""question-area""></div> 
                </div>","null","","","","","","","","","","","","",""
"","","","","","html-button-response","128","779936","0.0-128.0","ED99A4077C4B479AB6999B4F1660AAE5","019cea6c-8521-70cd-92c3-71faa1863adb","019cea5b-a1d2-7168-a211-b4d8162559a9","","889","
                <div class=""stimulus-container"">
                    <img src=""images/semantic_sequence/using_technology_semantic/using_technology_semantic_4.png"" class=""exp-image"">
                    <div class=""question-area"">
                        <p style=""font-size: 20px; font-weight: bold; margin: 0;"">Is there a person in this image?</p>
                    </div>
                </div>","0","main_experiment_trial","4","using_technology_semantic","semantic_sequence","","","","","","","","",""
"","","","","","html-keyboard-response","129","784940","0.0-129.0","ED99A4077C4B479AB6999B4F1660AAE5","019cea6c-8521-70cd-92c3-71faa1863adb","019cea5b-a1d2-7168-a211-b4d8162559a9","","null","
                <div class=""stimulus-container"">
                    <img src=""images/semantic_sequence/using_technology_semantic/using_technology_semantic_5.png"" class=""exp-image"">
                    <div class=""question-area""></div> 
                </div>","null","","","","","","","","","","","","",""
"","","","","","html-button-response","130","786837","0.0-130.0","ED99A4077C4B479AB6999B4F1660AAE5","019cea6c-8521-70cd-92c3-71faa1863adb","019cea5b-a1d2-7168-a211-b4d8162559a9","","1897","
                <div class=""stimulus-container"">
                    <img src=""images/semantic_sequence/using_technology_semantic/using_technology_semantic_5.png"" class=""exp-image"">
                    <div class=""question-area"">
                        <p style=""font-size: 20px; font-weight: bold; margin: 0;"">Is there a person in this image?</p>
                    </div>
                </div>","0","main_experiment_trial","5","using_technology_semantic","semantic_sequence","","","","","","","","",""
"","","","","","html-keyboard-response","131","791853","0.0-131.0","ED99A4077C4B479AB6999B4F1660AAE5","019cea6c-8521-70cd-92c3-71faa1863adb","019cea5b-a1d2-7168-a211-b4d8162559a9","","null","
                <div class=""stimulus-container"">
                    <img src=""images/semantic_sequence/using_technology_semantic/using_technology_semantic_6.png"" class=""exp-image"">
                    <div class=""question-area""></div> 
                </div>","null","","","","","","","","","","","","",""
"","","","","","html-button-response","132","792400","0.0-132.0","ED99A4077C4B479AB6999B4F1660AAE5","019cea6c-8521-70cd-92c3-71faa1863adb","019cea5b-a1d2-7168-a211-b4d8162559a9","","546","
                <div class=""stimulus-container"">
                    <img src=""images/semantic_sequence/using_technology_semantic/using_technology_semantic_6.png"" class=""exp-image"">
                    <div class=""question-area"">
                        <p style=""font-size: 20px; font-weight: bold; margin: 0;"">Is there a person in this image?</p>
                    </div>
                </div>","0","main_experiment_trial","6","using_technology_semantic","semantic_sequence","","","","","","","","",""
"","","","","","html-keyboard-response","133","797417","0.0-133.0","ED99A4077C4B479AB6999B4F1660AAE5","019cea6c-8521-70cd-92c3-71faa1863adb","019cea5b-a1d2-7168-a211-b4d8162559a9","","null","
                <div class=""stimulus-container"">
                    <img src=""images/semantic_sequence/using_technology_semantic/using_technology_semantic_7.png"" class=""exp-image"">
                    <div class=""question-area""></div> 
                </div>","null","","","","","","","","","","","","",""
"","","","","","html-button-response","134","798236","0.0-134.0","ED99A4077C4B479AB6999B4F1660AAE5","019cea6c-8521-70cd-92c3-71faa1863adb","019cea5b-a1d2-7168-a211-b4d8162559a9","","818","
                <div class=""stimulus-container"">
                    <img src=""images/semantic_sequence/using_technology_semantic/using_technology_semantic_7.png"" class=""exp-image"">
                    <div class=""question-area"">
                        <p style=""font-size: 20px; font-weight: bold; margin: 0;"">Is there a person in this image?</p>
                    </div>
                </div>","0","main_experiment_trial","7","using_technology_semantic","semantic_sequence","","","","","","","","",""
"","","","","","html-keyboard-response","135","803250","0.0-135.0","ED99A4077C4B479AB6999B4F1660AAE5","019cea6c-8521-70cd-92c3-71faa1863adb","019cea5b-a1d2-7168-a211-b4d8162559a9","","null","
                <div class=""stimulus-container"">
                    <img src=""images/semantic_sequence/using_technology_semantic/using_technology_semantic_8.png"" class=""exp-image"">
                    <div class=""question-area""></div> 
                </div>","null","","","","","","","","","","","","",""
"","","","","","html-button-response","136","803827","0.0-136.0","ED99A4077C4B479AB6999B4F1660AAE5","019cea6c-8521-70cd-92c3-71faa1863adb","019cea5b-a1d2-7168-a211-b4d8162559a9","","575","
                <div class=""stimulus-container"">
                    <img src=""images/semantic_sequence/using_technology_semantic/using_technology_semantic_8.png"" class=""exp-image"">
                    <div class=""question-area"">
                        <p style=""font-size: 20px; font-weight: bold; margin: 0;"">Is there a person in this image?</p>
                    </div>
                </div>","0","main_experiment_trial","8","using_technology_semantic","semantic_sequence","","","","","","","","",""
"","","","","","html-keyboard-response","137","808834","0.0-137.0","ED99A4077C4B479AB6999B4F1660AAE5","019cea6c-8521-70cd-92c3-71faa1863adb","019cea5b-a1d2-7168-a211-b4d8162559a9","","null","
                <div class=""stimulus-container"">
                    <img src=""images/semantic_sequence/using_technology_semantic/using_technology_semantic_9.png"" class=""exp-image"">
                    <div class=""question-area""></div> 
                </div>","null","","","","","","","","","","","","",""
"","","","","","html-button-response","138","809361","0.0-138.0","ED99A4077C4B479AB6999B4F1660AAE5","019cea6c-8521-70cd-92c3-71faa1863adb","019cea5b-a1d2-7168-a211-b4d8162559a9","","526","
                <div class=""stimulus-container"">
                    <img src=""images/semantic_sequence/using_technology_semantic/using_technology_semantic_9.png"" class=""exp-image"">
                    <div class=""question-area"">
                        <p style=""font-size: 20px; font-weight: bold; margin: 0;"">Is there a person in this image?</p>
                    </div>
                </div>","0","main_experiment_trial","9","using_technology_semantic","semantic_sequence","","","","","","","","",""
"","","","","","html-keyboard-response","139","814370","0.0-139.0","ED99A4077C4B479AB6999B4F1660AAE5","019cea6c-8521-70cd-92c3-71faa1863adb","019cea5b-a1d2-7168-a211-b4d8162559a9","","null","
                <div class=""stimulus-container"">
                    <img src=""images/semantic_sequence/using_technology_semantic/using_technology_semantic_ten.png"" class=""exp-image"">
                    <div class=""question-area""></div> 
                </div>","null","","","","","","","","","","","","",""
"","","","","","html-button-response","140","814953","0.0-140.0","ED99A4077C4B479AB6999B4F1660AAE5","019cea6c-8521-70cd-92c3-71faa1863adb","019cea5b-a1d2-7168-a211-b4d8162559a9","","581","
                <div class=""stimulus-container"">
                    <img src=""images/semantic_sequence/using_technology_semantic/using_technology_semantic_ten.png"" class=""exp-image"">
                    <div class=""question-area"">
                        <p style=""font-size: 20px; font-weight: bold; margin: 0;"">Is there a person in this image?</p>
                    </div>
                </div>","0","main_experiment_trial","ten","using_technology_semantic","semantic_sequence","","","","","","","","",""
"","","","","","html-keyboard-response","141","815966","0.0-141.0","ED99A4077C4B479AB6999B4F1660AAE5","019cea6c-8521-70cd-92c3-71faa1863adb","019cea5b-a1d2-7168-a211-b4d8162559a9","","null","<div style=""background-color: white; width: 100vw; height: 100vh;""></div>","null","","","","","","","","","","","","",""
"","","","","","html-keyboard-response","142","820976","0.0-142.0","ED99A4077C4B479AB6999B4F1660AAE5","019cea6c-8521-70cd-92c3-71faa1863adb","019cea5b-a1d2-7168-a211-b4d8162559a9","","null","
                <div class=""stimulus-container"">
                    <img src=""images/schematic_sequence/supermarket_scheme/supermarket_scheme_1.png"" class=""exp-image"">
                    <div class=""question-area""></div> 
                </div>","null","","","","","","","","","","","","",""
"","","","","","html-button-response","143","821938","0.0-143.0","ED99A4077C4B479AB6999B4F1660AAE5","019cea6c-8521-70cd-92c3-71faa1863adb","019cea5b-a1d2-7168-a211-b4d8162559a9","","961","
                <div class=""stimulus-container"">
                    <img src=""images/schematic_sequence/supermarket_scheme/supermarket_scheme_1.png"" class=""exp-image"">
                    <div class=""question-area"">
                        <p style=""font-size: 20px; font-weight: bold; margin: 0;"">Is there a person in this image?</p>
                    </div>
                </div>","1","main_experiment_trial","1","supermarket_scheme","schematic_sequence","","","","","","","","",""
"","","","","","html-keyboard-response","144","826953","0.0-144.0","ED99A4077C4B479AB6999B4F1660AAE5","019cea6c-8521-70cd-92c3-71faa1863adb","019cea5b-a1d2-7168-a211-b4d8162559a9","","null","
                <div class=""stimulus-container"">
                    <img src=""images/schematic_sequence/supermarket_scheme/supermarket_scheme_2.png"" class=""exp-image"">
                    <div class=""question-area""></div> 
                </div>","null","","","","","","","","","","","","",""
"","","","","","html-button-response","145","828009","0.0-145.0","ED99A4077C4B479AB6999B4F1660AAE5","019cea6c-8521-70cd-92c3-71faa1863adb","019cea5b-a1d2-7168-a211-b4d8162559a9","","1054","
                <div class=""stimulus-container"">
                    <img src=""images/schematic_sequence/supermarket_scheme/supermarket_scheme_2.png"" class=""exp-image"">
                    <div class=""question-area"">
                        <p style=""font-size: 20px; font-weight: bold; margin: 0;"">Is there a person in this image?</p>
                    </div>
                </div>","1","main_experiment_trial","2","supermarket_scheme","schematic_sequence","","","","","","","","",""
"","","","","","html-keyboard-response","146","833013","0.0-146.0","ED99A4077C4B479AB6999B4F1660AAE5","019cea6c-8521-70cd-92c3-71faa1863adb","019cea5b-a1d2-7168-a211-b4d8162559a9","","null","
                <div class=""stimulus-container"">
                    <img src=""images/schematic_sequence/supermarket_scheme/supermarket_scheme_3.png"" class=""exp-image"">
                    <div class=""question-area""></div> 
                </div>","null","","","","","","","","","","","","",""
"","","","","","html-button-response","147","833561","0.0-147.0","ED99A4077C4B479AB6999B4F1660AAE5","019cea6c-8521-70cd-92c3-71faa1863adb","019cea5b-a1d2-7168-a211-b4d8162559a9","","547","
                <div class=""stimulus-container"">
                    <img src=""images/schematic_sequence/supermarket_scheme/supermarket_scheme_3.png"" class=""exp-image"">
                    <div class=""question-area"">
                        <p style=""font-size: 20px; font-weight: bold; margin: 0;"">Is there a person in this image?</p>
                    </div>
                </div>","1","main_experiment_trial","3","supermarket_scheme","schematic_sequence","","","","","","","","",""
"","","","","","html-keyboard-response","148","838564","0.0-148.0","ED99A4077C4B479AB6999B4F1660AAE5","019cea6c-8521-70cd-92c3-71faa1863adb","019cea5b-a1d2-7168-a211-b4d8162559a9","","null","
                <div class=""stimulus-container"">
                    <img src=""images/schematic_sequence/supermarket_scheme/supermarket_scheme_4.png"" class=""exp-image"">
                    <div class=""question-area""></div> 
                </div>","null","","","","","","","","","","","","",""
"","","","","","html-button-response","149","839784","0.0-149.0","ED99A4077C4B479AB6999B4F1660AAE5","019cea6c-8521-70cd-92c3-71faa1863adb","019cea5b-a1d2-7168-a211-b4d8162559a9","","1219","
                <div class=""stimulus-container"">
                    <img src=""images/schematic_sequence/supermarket_scheme/supermarket_scheme_4.png"" class=""exp-image"">
                    <div class=""question-area"">
                        <p style=""font-size: 20px; font-weight: bold; margin: 0;"">Is there a person in this image?</p>
                    </div>
                </div>","0","main_experiment_trial","4","supermarket_scheme","schematic_sequence","","","","","","","","",""
"","","","","","html-keyboard-response","150","844791","0.0-150.0","ED99A4077C4B479AB6999B4F1660AAE5","019cea6c-8521-70cd-92c3-71faa1863adb","019cea5b-a1d2-7168-a211-b4d8162559a9","","null","
                <div class=""stimulus-container"">
                    <img src=""images/schematic_sequence/supermarket_scheme/supermarket_scheme_5.png"" class=""exp-image"">
                    <div class=""question-area""></div> 
                </div>","null","","","","","","","","","","","","",""
"","","","","","html-button-response","151","845689","0.0-151.0","ED99A4077C4B479AB6999B4F1660AAE5","019cea6c-8521-70cd-92c3-71faa1863adb","019cea5b-a1d2-7168-a211-b4d8162559a9","","897","
                <div class=""stimulus-container"">
                    <img src=""images/schematic_sequence/supermarket_scheme/supermarket_scheme_5.png"" class=""exp-image"">
                    <div class=""question-area"">
                        <p style=""font-size: 20px; font-weight: bold; margin: 0;"">Is there a person in this image?</p>
                    </div>
                </div>","1","main_experiment_trial","5","supermarket_scheme","schematic_sequence","","","","","","","","",""
"","","","","","html-keyboard-response","152","850691","0.0-152.0","ED99A4077C4B479AB6999B4F1660AAE5","019cea6c-8521-70cd-92c3-71faa1863adb","019cea5b-a1d2-7168-a211-b4d8162559a9","","null","
                <div class=""stimulus-container"">
                    <img src=""images/schematic_sequence/supermarket_scheme/supermarket_scheme_6.png"" class=""exp-image"">
                    <div class=""question-area""></div> 
                </div>","null","","","","","","","","","","","","",""
"","","","","","html-button-response","153","852129","0.0-153.0","ED99A4077C4B479AB6999B4F1660AAE5","019cea6c-8521-70cd-92c3-71faa1863adb","019cea5b-a1d2-7168-a211-b4d8162559a9","","1438","
                <div class=""stimulus-container"">
                    <img src=""images/schematic_sequence/supermarket_scheme/supermarket_scheme_6.png"" class=""exp-image"">
                    <div class=""question-area"">
                        <p style=""font-size: 20px; font-weight: bold; margin: 0;"">Is there a person in this image?</p>
                    </div>
                </div>","0","main_experiment_trial","6","supermarket_scheme","schematic_sequence","","","","","","","","",""
"","","","","","html-keyboard-response","154","857145","0.0-154.0","ED99A4077C4B479AB6999B4F1660AAE5","019cea6c-8521-70cd-92c3-71faa1863adb","019cea5b-a1d2-7168-a211-b4d8162559a9","","null","
                <div class=""stimulus-container"">
                    <img src=""images/schematic_sequence/supermarket_scheme/supermarket_scheme_7.png"" class=""exp-image"">
                    <div class=""question-area""></div> 
                </div>","null","","","","","","","","","","","","",""
"","","","","","html-button-response","155","858342","0.0-155.0","ED99A4077C4B479AB6999B4F1660AAE5","019cea6c-8521-70cd-92c3-71faa1863adb","019cea5b-a1d2-7168-a211-b4d8162559a9","","1197","
                <div class=""stimulus-container"">
                    <img src=""images/schematic_sequence/supermarket_scheme/supermarket_scheme_7.png"" class=""exp-image"">
                    <div class=""question-area"">
                        <p style=""font-size: 20px; font-weight: bold; margin: 0;"">Is there a person in this image?</p>
                    </div>
                </div>","0","main_experiment_trial","7","supermarket_scheme","schematic_sequence","","","","","","","","",""
"","","","","","html-keyboard-response","156","863354","0.0-156.0","ED99A4077C4B479AB6999B4F1660AAE5","019cea6c-8521-70cd-92c3-71faa1863adb","019cea5b-a1d2-7168-a211-b4d8162559a9","","null","
                <div class=""stimulus-container"">
                    <img src=""images/schematic_sequence/supermarket_scheme/supermarket_scheme_8.png"" class=""exp-image"">
                    <div class=""question-area""></div> 
                </div>","null","","","","","","","","","","","","",""
"","","","","","html-button-response","157","864039","0.0-157.0","ED99A4077C4B479AB6999B4F1660AAE5","019cea6c-8521-70cd-92c3-71faa1863adb","019cea5b-a1d2-7168-a211-b4d8162559a9","","684","
                <div class=""stimulus-container"">
                    <img src=""images/schematic_sequence/supermarket_scheme/supermarket_scheme_8.png"" class=""exp-image"">
                    <div class=""question-area"">
                        <p style=""font-size: 20px; font-weight: bold; margin: 0;"">Is there a person in this image?</p>
                    </div>
                </div>","0","main_experiment_trial","8","supermarket_scheme","schematic_sequence","","","","","","","","",""
"","","","","","html-keyboard-response","158","869047","0.0-158.0","ED99A4077C4B479AB6999B4F1660AAE5","019cea6c-8521-70cd-92c3-71faa1863adb","019cea5b-a1d2-7168-a211-b4d8162559a9","","null","
                <div class=""stimulus-container"">
                    <img src=""images/schematic_sequence/supermarket_scheme/supermarket_scheme_9.png"" class=""exp-image"">
                    <div class=""question-area""></div> 
                </div>","null","","","","","","","","","","","","",""
"","","","","","html-button-response","159","869864","0.0-159.0","ED99A4077C4B479AB6999B4F1660AAE5","019cea6c-8521-70cd-92c3-71faa1863adb","019cea5b-a1d2-7168-a211-b4d8162559a9","","817","
                <div class=""stimulus-container"">
                    <img src=""images/schematic_sequence/supermarket_scheme/supermarket_scheme_9.png"" class=""exp-image"">
                    <div class=""question-area"">
                        <p style=""font-size: 20px; font-weight: bold; margin: 0;"">Is there a person in this image?</p>
                    </div>
                </div>","0","main_experiment_trial","9","supermarket_scheme","schematic_sequence","","","","","","","","",""
"","","","","","html-keyboard-response","160","874866","0.0-160.0","ED99A4077C4B479AB6999B4F1660AAE5","019cea6c-8521-70cd-92c3-71faa1863adb","019cea5b-a1d2-7168-a211-b4d8162559a9","","null","
                <div class=""stimulus-container"">
                    <img src=""images/schematic_sequence/supermarket_scheme/supermarket_scheme_ten.png"" class=""exp-image"">
                    <div class=""question-area""></div> 
                </div>","null","","","","","","","","","","","","",""
"","","","","","html-button-response","161","875573","0.0-161.0","ED99A4077C4B479AB6999B4F1660AAE5","019cea6c-8521-70cd-92c3-71faa1863adb","019cea5b-a1d2-7168-a211-b4d8162559a9","","705","
                <div class=""stimulus-container"">
                    <img src=""images/schematic_sequence/supermarket_scheme/supermarket_scheme_ten.png"" class=""exp-image"">
                    <div class=""question-area"">
                        <p style=""font-size: 20px; font-weight: bold; margin: 0;"">Is there a person in this image?</p>
                    </div>
                </div>","1","main_experiment_trial","ten","supermarket_scheme","schematic_sequence","","","","","","","","",""
"","","","","","html-keyboard-response","162","876581","0.0-162.0","ED99A4077C4B479AB6999B4F1660AAE5","019cea6c-8521-70cd-92c3-71faa1863adb","019cea5b-a1d2-7168-a211-b4d8162559a9","","null","<div style=""background-color: white; width: 100vw; height: 100vh;""></div>","null","","","","","","","","","","","","",""
"","","","","","html-keyboard-response","163","881592","0.0-163.0","ED99A4077C4B479AB6999B4F1660AAE5","019cea6c-8521-70cd-92c3-71faa1863adb","019cea5b-a1d2-7168-a211-b4d8162559a9","","null","
                <div class=""stimulus-container"">
                    <img src=""images/semantic_sequence/maintaining_a_car_semantic/maintaining_a_car_semantic_1.png"" class=""exp-image"">
                    <div class=""question-area""></div> 
                </div>","null","","","","","","","","","","","","",""
"","","","","","html-button-response","164","882450","0.0-164.0","ED99A4077C4B479AB6999B4F1660AAE5","019cea6c-8521-70cd-92c3-71faa1863adb","019cea5b-a1d2-7168-a211-b4d8162559a9","","857","
                <div class=""stimulus-container"">
                    <img src=""images/semantic_sequence/maintaining_a_car_semantic/maintaining_a_car_semantic_1.png"" class=""exp-image"">
                    <div class=""question-area"">
                        <p style=""font-size: 20px; font-weight: bold; margin: 0;"">Is there a person in this image?</p>
                    </div>
                </div>","0","main_experiment_trial","1","maintaining_a_car_semantic","semantic_sequence","","","","","","","","",""
"","","","","","html-keyboard-response","165","887456","0.0-165.0","ED99A4077C4B479AB6999B4F1660AAE5","019cea6c-8521-70cd-92c3-71faa1863adb","019cea5b-a1d2-7168-a211-b4d8162559a9","","null","
                <div class=""stimulus-container"">
                    <img src=""images/semantic_sequence/maintaining_a_car_semantic/maintaining_a_car_semantic_2.png"" class=""exp-image"">
                    <div class=""question-area""></div> 
                </div>","null","","","","","","","","","","","","",""
"","","","","","html-button-response","166","888302","0.0-166.0","ED99A4077C4B479AB6999B4F1660AAE5","019cea6c-8521-70cd-92c3-71faa1863adb","019cea5b-a1d2-7168-a211-b4d8162559a9","","845","
                <div class=""stimulus-container"">
                    <img src=""images/semantic_sequence/maintaining_a_car_semantic/maintaining_a_car_semantic_2.png"" class=""exp-image"">
                    <div class=""question-area"">
                        <p style=""font-size: 20px; font-weight: bold; margin: 0;"">Is there a person in this image?</p>
                    </div>
                </div>","0","main_experiment_trial","2","maintaining_a_car_semantic","semantic_sequence","","","","","","","","",""
"","","","","","html-keyboard-response","167","893306","0.0-167.0","ED99A4077C4B479AB6999B4F1660AAE5","019cea6c-8521-70cd-92c3-71faa1863adb","019cea5b-a1d2-7168-a211-b4d8162559a9","","null","
                <div class=""stimulus-container"">
                    <img src=""images/semantic_sequence/maintaining_a_car_semantic/maintaining_a_car_semantic_3.png"" class=""exp-image"">
                    <div class=""question-area""></div> 
                </div>","null","","","","","","","","","","","","",""
"","","","","","html-button-response","168","894441","0.0-168.0","ED99A4077C4B479AB6999B4F1660AAE5","019cea6c-8521-70cd-92c3-71faa1863adb","019cea5b-a1d2-7168-a211-b4d8162559a9","","1135","
                <div class=""stimulus-container"">
                    <img src=""images/semantic_sequence/maintaining_a_car_semantic/maintaining_a_car_semantic_3.png"" class=""exp-image"">
                    <div class=""question-area"">
                        <p style=""font-size: 20px; font-weight: bold; margin: 0;"">Is there a person in this image?</p>
                    </div>
                </div>","0","main_experiment_trial","3","maintaining_a_car_semantic","semantic_sequence","","","","","","","","",""
"","","","","","html-keyboard-response","169","899446","0.0-169.0","ED99A4077C4B479AB6999B4F1660AAE5","019cea6c-8521-70cd-92c3-71faa1863adb","019cea5b-a1d2-7168-a211-b4d8162559a9","","null","
                <div class=""stimulus-container"">
                    <img src=""images/semantic_sequence/maintaining_a_car_semantic/maintaining_a_car_semantic_4.png"" class=""exp-image"">
                    <div class=""question-area""></div> 
                </div>","null","","","","","","","","","","","","",""
"","","","","","html-button-response","170","900675","0.0-170.0","ED99A4077C4B479AB6999B4F1660AAE5","019cea6c-8521-70cd-92c3-71faa1863adb","019cea5b-a1d2-7168-a211-b4d8162559a9","","1228","
                <div class=""stimulus-container"">
                    <img src=""images/semantic_sequence/maintaining_a_car_semantic/maintaining_a_car_semantic_4.png"" class=""exp-image"">
                    <div class=""question-area"">
                        <p style=""font-size: 20px; font-weight: bold; margin: 0;"">Is there a person in this image?</p>
                    </div>
                </div>","0","main_experiment_trial","4","maintaining_a_car_semantic","semantic_sequence","","","","","","","","",""
"","","","","","html-keyboard-response","171","905686","0.0-171.0","ED99A4077C4B479AB6999B4F1660AAE5","019cea6c-8521-70cd-92c3-71faa1863adb","019cea5b-a1d2-7168-a211-b4d8162559a9","","null","
                <div class=""stimulus-container"">
                    <img src=""images/semantic_sequence/maintaining_a_car_semantic/maintaining_a_car_semantic_5.png"" class=""exp-image"">
                    <div class=""question-area""></div> 
                </div>","null","","","","","","","","","","","","",""
"","","","","","html-button-response","172","906676","0.0-172.0","ED99A4077C4B479AB6999B4F1660AAE5","019cea6c-8521-70cd-92c3-71faa1863adb","019cea5b-a1d2-7168-a211-b4d8162559a9","","989","
                <div class=""stimulus-container"">
                    <img src=""images/semantic_sequence/maintaining_a_car_semantic/maintaining_a_car_semantic_5.png"" class=""exp-image"">
                    <div class=""question-area"">
                        <p style=""font-size: 20px; font-weight: bold; margin: 0;"">Is there a person in this image?</p>
                    </div>
                </div>","0","main_experiment_trial","5","maintaining_a_car_semantic","semantic_sequence","","","","","","","","",""
"","","","","","html-keyboard-response","173","911692","0.0-173.0","ED99A4077C4B479AB6999B4F1660AAE5","019cea6c-8521-70cd-92c3-71faa1863adb","019cea5b-a1d2-7168-a211-b4d8162559a9","","null","
                <div class=""stimulus-container"">
                    <img src=""images/semantic_sequence/maintaining_a_car_semantic/maintaining_a_car_semantic_6.png"" class=""exp-image"">
                    <div class=""question-area""></div> 
                </div>","null","","","","","","","","","","","","",""
