"success","timeout","failed_images","failed_audio","failed_video","trial_type","trial_index","time_elapsed","internal_node_id","subject_id","study_id","session_id","view_history","rt","stimulus","response","task","image_index","folder","sequence_type","presentation_order","valuable_image_index","reward_type","distance_from_x","target_X","chosen_image_index","is_x_plus_dist","correct_choice"
"true","false","[]","[]","[]","preload","0","5398","0.0-0.0","1D44DC911D8D42ED849C10186679ACB6","019d0653-b8b4-7b10-b26a-8c4fcceca7e6","019d0640-0a2d-7740-a972-9c73365b2dcb","","","","","","","","","","","","","","","",""
"","","","","","instructions","1","7015","0.0-1.0","1D44DC911D8D42ED849C10186679ACB6","019d0653-b8b4-7b10-b26a-8c4fcceca7e6","019d0640-0a2d-7740-a972-9c73365b2dcb","[{""page_index"":0,""viewing_time"":1615}]","1615","","","","","","","","","","","","","",""
"","","","","","instructions","2","16618","0.0-2.0","1D44DC911D8D42ED849C10186679ACB6","019d0653-b8b4-7b10-b26a-8c4fcceca7e6","019d0640-0a2d-7740-a972-9c73365b2dcb","[{""page_index"":0,""viewing_time"":9594}]","9595","","","","","","","","","","","","","",""
"true","","","","","fullscreen","3","19015","0.0-3.0","1D44DC911D8D42ED849C10186679ACB6","019d0653-b8b4-7b10-b26a-8c4fcceca7e6","019d0640-0a2d-7740-a972-9c73365b2dcb","","1379","","","","","","","","","","","","","",""
"","","","","","instructions","4","21649","0.0-4.0","1D44DC911D8D42ED849C10186679ACB6","019d0653-b8b4-7b10-b26a-8c4fcceca7e6","019d0640-0a2d-7740-a972-9c73365b2dcb","[{""page_index"":0,""viewing_time"":2633}]","2633","","","","","","","","","","","","","",""
"","","","","","instructions","5","41677","0.0-5.0","1D44DC911D8D42ED849C10186679ACB6","019d0653-b8b4-7b10-b26a-8c4fcceca7e6","019d0640-0a2d-7740-a972-9c73365b2dcb","[{""page_index"":0,""viewing_time"":20027}]","20027","","","","","","","","","","","","","",""
"","","","","","html-keyboard-response","6","45681","0.0-6.0","1D44DC911D8D42ED849C10186679ACB6","019d0653-b8b4-7b10-b26a-8c4fcceca7e6","019d0640-0a2d-7740-a972-9c73365b2dcb","","null","
                <div class=""stimulus-container"">
                    <img src=""images/instructions/movie_1.png"" class=""exp-image"">
                    <div class=""question-area""></div> 
                </div>","null","","","","","","","","","","","",""
"","","","","","html-button-response","7","48684","0.0-7.0","1D44DC911D8D42ED849C10186679ACB6","019d0653-b8b4-7b10-b26a-8c4fcceca7e6","019d0640-0a2d-7740-a972-9c73365b2dcb","","null","
                <div class=""stimulus-container"">
                    <img src=""images/instructions/movie_1.png"" class=""exp-image"">
                    <div class=""question-area"">
                        <p style=""font-size: 20px; font-weight: bold; margin: 0;"">Was there a person in this image?</p>
                    </div>
                </div>","null","example_question","1","","","","","","","","","",""
"","","","","","html-keyboard-response","8","52701","0.0-8.0","1D44DC911D8D42ED849C10186679ACB6","019d0653-b8b4-7b10-b26a-8c4fcceca7e6","019d0640-0a2d-7740-a972-9c73365b2dcb","","null","
                <div class=""stimulus-container"">
                    <img src=""images/instructions/movie_2.png"" class=""exp-image"">
                    <div class=""question-area""></div> 
                </div>","null","","","","","","","","","","","",""
"","","","","","html-button-response","9","53907","0.0-9.0","1D44DC911D8D42ED849C10186679ACB6","019d0653-b8b4-7b10-b26a-8c4fcceca7e6","019d0640-0a2d-7740-a972-9c73365b2dcb","","1204","
                <div class=""stimulus-container"">
                    <img src=""images/instructions/movie_2.png"" class=""exp-image"">
                    <div class=""question-area"">
                        <p style=""font-size: 20px; font-weight: bold; margin: 0;"">Was there a person in this image?</p>
                    </div>
                </div>","1","example_question","2","","","","","","","","","",""
"","","","","","html-keyboard-response","10","57909","0.0-10.0","1D44DC911D8D42ED849C10186679ACB6","019d0653-b8b4-7b10-b26a-8c4fcceca7e6","019d0640-0a2d-7740-a972-9c73365b2dcb","","null","
                <div class=""stimulus-container"">
                    <img src=""images/instructions/movie_3.png"" class=""exp-image"">
                    <div class=""question-area""></div> 
                </div>","null","","","","","","","","","","","",""
"","","","","","html-button-response","11","59337","0.0-11.0","1D44DC911D8D42ED849C10186679ACB6","019d0653-b8b4-7b10-b26a-8c4fcceca7e6","019d0640-0a2d-7740-a972-9c73365b2dcb","","1426","
                <div class=""stimulus-container"">
                    <img src=""images/instructions/movie_3.png"" class=""exp-image"">
                    <div class=""question-area"">
                        <p style=""font-size: 20px; font-weight: bold; margin: 0;"">Was there a person in this image?</p>
                    </div>
                </div>","0","example_question","3","","","","","","","","","",""
"","","","","","html-keyboard-response","12","63339","0.0-12.0","1D44DC911D8D42ED849C10186679ACB6","019d0653-b8b4-7b10-b26a-8c4fcceca7e6","019d0640-0a2d-7740-a972-9c73365b2dcb","","null","
                <div class=""stimulus-container"">
                    <img src=""images/instructions/movie_4.png"" class=""exp-image"">
                    <div class=""question-area""></div> 
                </div>","null","","","","","","","","","","","",""
"","","","","","html-button-response","13","64956","0.0-13.0","1D44DC911D8D42ED849C10186679ACB6","019d0653-b8b4-7b10-b26a-8c4fcceca7e6","019d0640-0a2d-7740-a972-9c73365b2dcb","","1616","
                <div class=""stimulus-container"">
                    <img src=""images/instructions/movie_4.png"" class=""exp-image"">
                    <div class=""question-area"">
                        <p style=""font-size: 20px; font-weight: bold; margin: 0;"">Was there a person in this image?</p>
                    </div>
                </div>","0","example_question","4","","","","","","","","","",""
"","","","","","instructions","14","67533","0.0-14.0","1D44DC911D8D42ED849C10186679ACB6","019d0653-b8b4-7b10-b26a-8c4fcceca7e6","019d0640-0a2d-7740-a972-9c73365b2dcb","[{""page_index"":0,""viewing_time"":2576}]","2576","","","","","","","","","","","","","",""
"","","","","","instructions","15","73673","0.0-15.0","1D44DC911D8D42ED849C10186679ACB6","019d0653-b8b4-7b10-b26a-8c4fcceca7e6","019d0640-0a2d-7740-a972-9c73365b2dcb","[{""page_index"":0,""viewing_time"":6140}]","6140","","","","","","","","","","","","","",""
"","","","","","html-keyboard-response","16","78686","0.0-16.0","1D44DC911D8D42ED849C10186679ACB6","019d0653-b8b4-7b10-b26a-8c4fcceca7e6","019d0640-0a2d-7740-a972-9c73365b2dcb","","null","<div style=""background-color: white; width: 100vw; height: 100vh;""></div>","null","","","","","","","","","","","",""
"","","","","","html-keyboard-response","17","83689","0.0-17.0","1D44DC911D8D42ED849C10186679ACB6","019d0653-b8b4-7b10-b26a-8c4fcceca7e6","019d0640-0a2d-7740-a972-9c73365b2dcb","","null","
                <div class=""stimulus-container"">
                    <img src=""images/schematic_sequence/hotel_scheme/hotel_scheme_1.png"" class=""exp-image"">
                    <div class=""question-area""></div> 
                </div>","null","","","","","","","","","","","",""
"","","","","","html-button-response","18","84649","0.0-18.0","1D44DC911D8D42ED849C10186679ACB6","019d0653-b8b4-7b10-b26a-8c4fcceca7e6","019d0640-0a2d-7740-a972-9c73365b2dcb","","959","
                <div class=""stimulus-container"">
                    <img src=""images/schematic_sequence/hotel_scheme/hotel_scheme_1.png"" class=""exp-image"">
                    <div class=""question-area"">
                        <p style=""font-size: 20px; font-weight: bold; margin: 0;"">Is there a person in this image?</p>
                    </div>
                </div>","1","main_experiment_trial","1","hotel_scheme","schematic_sequence","chronological","","","","","","",""
"","","","","","html-keyboard-response","19","89655","0.0-19.0","1D44DC911D8D42ED849C10186679ACB6","019d0653-b8b4-7b10-b26a-8c4fcceca7e6","019d0640-0a2d-7740-a972-9c73365b2dcb","","null","
                <div class=""stimulus-container"">
                    <img src=""images/schematic_sequence/hotel_scheme/hotel_scheme_2.png"" class=""exp-image"">
                    <div class=""question-area""></div> 
                </div>","null","","","","","","","","","","","",""
"","","","","","html-button-response","20","91189","0.0-20.0","1D44DC911D8D42ED849C10186679ACB6","019d0653-b8b4-7b10-b26a-8c4fcceca7e6","019d0640-0a2d-7740-a972-9c73365b2dcb","","1532","
                <div class=""stimulus-container"">
                    <img src=""images/schematic_sequence/hotel_scheme/hotel_scheme_2.png"" class=""exp-image"">
                    <div class=""question-area"">
                        <p style=""font-size: 20px; font-weight: bold; margin: 0;"">Is there a person in this image?</p>
                    </div>
                </div>","0","main_experiment_trial","2","hotel_scheme","schematic_sequence","chronological","","","","","","",""
"","","","","","html-keyboard-response","21","96204","0.0-21.0","1D44DC911D8D42ED849C10186679ACB6","019d0653-b8b4-7b10-b26a-8c4fcceca7e6","019d0640-0a2d-7740-a972-9c73365b2dcb","","null","
                <div class=""stimulus-container"">
                    <img src=""images/schematic_sequence/hotel_scheme/hotel_scheme_3.png"" class=""exp-image"">
                    <div class=""question-area""></div> 
                </div>","null","","","","","","","","","","","",""
"","","","","","html-button-response","22","97200","0.0-22.0","1D44DC911D8D42ED849C10186679ACB6","019d0653-b8b4-7b10-b26a-8c4fcceca7e6","019d0640-0a2d-7740-a972-9c73365b2dcb","","995","
                <div class=""stimulus-container"">
                    <img src=""images/schematic_sequence/hotel_scheme/hotel_scheme_3.png"" class=""exp-image"">
                    <div class=""question-area"">
                        <p style=""font-size: 20px; font-weight: bold; margin: 0;"">Is there a person in this image?</p>
                    </div>
                </div>","0","main_experiment_trial","3","hotel_scheme","schematic_sequence","chronological","","","","","","",""
"","","","","","html-keyboard-response","23","102215","0.0-23.0","1D44DC911D8D42ED849C10186679ACB6","019d0653-b8b4-7b10-b26a-8c4fcceca7e6","019d0640-0a2d-7740-a972-9c73365b2dcb","","null","
                <div class=""stimulus-container"">
                    <img src=""images/schematic_sequence/hotel_scheme/hotel_scheme_4.png"" class=""exp-image"">
                    <div class=""question-area""></div> 
                </div>","null","","","","","","","","","","","",""
"","","","","","html-button-response","24","103366","0.0-24.0","1D44DC911D8D42ED849C10186679ACB6","019d0653-b8b4-7b10-b26a-8c4fcceca7e6","019d0640-0a2d-7740-a972-9c73365b2dcb","","1149","
                <div class=""stimulus-container"">
                    <img src=""images/schematic_sequence/hotel_scheme/hotel_scheme_4.png"" class=""exp-image"">
                    <div class=""question-area"">
                        <p style=""font-size: 20px; font-weight: bold; margin: 0;"">Is there a person in this image?</p>
                    </div>
                </div>","1","main_experiment_trial","4","hotel_scheme","schematic_sequence","chronological","","","","","","",""
"","","","","","html-keyboard-response","25","108371","0.0-25.0","1D44DC911D8D42ED849C10186679ACB6","019d0653-b8b4-7b10-b26a-8c4fcceca7e6","019d0640-0a2d-7740-a972-9c73365b2dcb","","null","
                <div class=""stimulus-container"">
                    <img src=""images/schematic_sequence/hotel_scheme/hotel_scheme_5.png"" class=""exp-image"">
                    <div class=""question-area""></div> 
                </div>","null","","","","","","","","","","","",""
"","","","","","html-button-response","26","109411","0.0-26.0","1D44DC911D8D42ED849C10186679ACB6","019d0653-b8b4-7b10-b26a-8c4fcceca7e6","019d0640-0a2d-7740-a972-9c73365b2dcb","","1039","
                <div class=""stimulus-container"">
                    <img src=""images/schematic_sequence/hotel_scheme/hotel_scheme_5.png"" class=""exp-image"">
                    <div class=""question-area"">
                        <p style=""font-size: 20px; font-weight: bold; margin: 0;"">Is there a person in this image?</p>
                    </div>
                </div>","0","main_experiment_trial","5","hotel_scheme","schematic_sequence","chronological","","","","","","",""
"","","","","","html-keyboard-response","27","114415","0.0-27.0","1D44DC911D8D42ED849C10186679ACB6","019d0653-b8b4-7b10-b26a-8c4fcceca7e6","019d0640-0a2d-7740-a972-9c73365b2dcb","","null","
                <div class=""stimulus-container"">
                    <img src=""images/schematic_sequence/hotel_scheme/hotel_scheme_6.png"" class=""exp-image"">
                    <div class=""question-area""></div> 
                </div>","null","","","","","","","","","","","",""
"","","","","","html-button-response","28","115195","0.0-28.0","1D44DC911D8D42ED849C10186679ACB6","019d0653-b8b4-7b10-b26a-8c4fcceca7e6","019d0640-0a2d-7740-a972-9c73365b2dcb","","780","
                <div class=""stimulus-container"">
                    <img src=""images/schematic_sequence/hotel_scheme/hotel_scheme_6.png"" class=""exp-image"">
                    <div class=""question-area"">
                        <p style=""font-size: 20px; font-weight: bold; margin: 0;"">Is there a person in this image?</p>
                    </div>
                </div>","0","main_experiment_trial","6","hotel_scheme","schematic_sequence","chronological","","","","","","",""
"","","","","","html-keyboard-response","29","120199","0.0-29.0","1D44DC911D8D42ED849C10186679ACB6","019d0653-b8b4-7b10-b26a-8c4fcceca7e6","019d0640-0a2d-7740-a972-9c73365b2dcb","","null","
                <div class=""stimulus-container"">
                    <img src=""images/schematic_sequence/hotel_scheme/hotel_scheme_7.png"" class=""exp-image"">
                    <div class=""question-area""></div> 
                </div>","null","","","","","","","","","","","",""
"","","","","","html-button-response","30","121160","0.0-30.0","1D44DC911D8D42ED849C10186679ACB6","019d0653-b8b4-7b10-b26a-8c4fcceca7e6","019d0640-0a2d-7740-a972-9c73365b2dcb","","960","
                <div class=""stimulus-container"">
                    <img src=""images/schematic_sequence/hotel_scheme/hotel_scheme_7.png"" class=""exp-image"">
                    <div class=""question-area"">
                        <p style=""font-size: 20px; font-weight: bold; margin: 0;"">Is there a person in this image?</p>
                    </div>
                </div>","0","main_experiment_trial","7","hotel_scheme","schematic_sequence","chronological","","","","","","",""
"","","","","","html-keyboard-response","31","126167","0.0-31.0","1D44DC911D8D42ED849C10186679ACB6","019d0653-b8b4-7b10-b26a-8c4fcceca7e6","019d0640-0a2d-7740-a972-9c73365b2dcb","","null","
                <div class=""stimulus-container"">
                    <img src=""images/schematic_sequence/hotel_scheme/hotel_scheme_8.png"" class=""exp-image"">
                    <div class=""question-area""></div> 
                </div>","null","","","","","","","","","","","",""
"","","","","","html-button-response","32","126744","0.0-32.0","1D44DC911D8D42ED849C10186679ACB6","019d0653-b8b4-7b10-b26a-8c4fcceca7e6","019d0640-0a2d-7740-a972-9c73365b2dcb","","576","
                <div class=""stimulus-container"">
                    <img src=""images/schematic_sequence/hotel_scheme/hotel_scheme_8.png"" class=""exp-image"">
                    <div class=""question-area"">
                        <p style=""font-size: 20px; font-weight: bold; margin: 0;"">Is there a person in this image?</p>
                    </div>
                </div>","0","main_experiment_trial","8","hotel_scheme","schematic_sequence","chronological","","","","","","",""
"","","","","","html-keyboard-response","33","131761","0.0-33.0","1D44DC911D8D42ED849C10186679ACB6","019d0653-b8b4-7b10-b26a-8c4fcceca7e6","019d0640-0a2d-7740-a972-9c73365b2dcb","","null","
                <div class=""stimulus-container"">
                    <img src=""images/schematic_sequence/hotel_scheme/hotel_scheme_9.png"" class=""exp-image"">
                    <div class=""question-area""></div> 
                </div>","null","","","","","","","","","","","",""
"","","","","","html-button-response","34","132306","0.0-34.0","1D44DC911D8D42ED849C10186679ACB6","019d0653-b8b4-7b10-b26a-8c4fcceca7e6","019d0640-0a2d-7740-a972-9c73365b2dcb","","544","
                <div class=""stimulus-container"">
                    <img src=""images/schematic_sequence/hotel_scheme/hotel_scheme_9.png"" class=""exp-image"">
                    <div class=""question-area"">
                        <p style=""font-size: 20px; font-weight: bold; margin: 0;"">Is there a person in this image?</p>
                    </div>
                </div>","0","main_experiment_trial","9","hotel_scheme","schematic_sequence","chronological","","","","","","",""
"","","","","","html-keyboard-response","35","137320","0.0-35.0","1D44DC911D8D42ED849C10186679ACB6","019d0653-b8b4-7b10-b26a-8c4fcceca7e6","019d0640-0a2d-7740-a972-9c73365b2dcb","","null","
                <div class=""stimulus-container"">
                    <img src=""images/schematic_sequence/hotel_scheme/hotel_scheme_ten.png"" class=""exp-image"">
                    <div class=""question-area""></div> 
                </div>","null","","","","","","","","","","","",""
"","","","","","html-button-response","36","137826","0.0-36.0","1D44DC911D8D42ED849C10186679ACB6","019d0653-b8b4-7b10-b26a-8c4fcceca7e6","019d0640-0a2d-7740-a972-9c73365b2dcb","","505","
                <div class=""stimulus-container"">
                    <img src=""images/schematic_sequence/hotel_scheme/hotel_scheme_ten.png"" class=""exp-image"">
                    <div class=""question-area"">
                        <p style=""font-size: 20px; font-weight: bold; margin: 0;"">Is there a person in this image?</p>
                    </div>
                </div>","0","main_experiment_trial","ten","hotel_scheme","schematic_sequence","chronological","","","","","","",""
"","","","","","html-keyboard-response","37","142842","0.0-37.0","1D44DC911D8D42ED849C10186679ACB6","019d0653-b8b4-7b10-b26a-8c4fcceca7e6","019d0640-0a2d-7740-a972-9c73365b2dcb","","null","<div style=""background-color: white; width: 100vw; height: 100vh;""></div>","null","","","","","","","","","","","",""
"","","","","","html-keyboard-response","38","147845","0.0-38.0","1D44DC911D8D42ED849C10186679ACB6","019d0653-b8b4-7b10-b26a-8c4fcceca7e6","019d0640-0a2d-7740-a972-9c73365b2dcb","","null","
                <div class=""stimulus-container"">
                    <img src=""images/schematic_sequence/supermarket_scheme/supermarket_scheme_1.png"" class=""exp-image"">
                    <div class=""question-area""></div> 
                </div>","null","","","","","","","","","","","",""
"","","","","","html-button-response","39","148765","0.0-39.0","1D44DC911D8D42ED849C10186679ACB6","019d0653-b8b4-7b10-b26a-8c4fcceca7e6","019d0640-0a2d-7740-a972-9c73365b2dcb","","919","
                <div class=""stimulus-container"">
                    <img src=""images/schematic_sequence/supermarket_scheme/supermarket_scheme_1.png"" class=""exp-image"">
                    <div class=""question-area"">
                        <p style=""font-size: 20px; font-weight: bold; margin: 0;"">Is there a person in this image?</p>
                    </div>
                </div>","1","main_experiment_trial","1","supermarket_scheme","schematic_sequence","chronological","","","","","","",""
"","","","","","html-keyboard-response","40","153779","0.0-40.0","1D44DC911D8D42ED849C10186679ACB6","019d0653-b8b4-7b10-b26a-8c4fcceca7e6","019d0640-0a2d-7740-a972-9c73365b2dcb","","null","
                <div class=""stimulus-container"">
                    <img src=""images/schematic_sequence/supermarket_scheme/supermarket_scheme_2.png"" class=""exp-image"">
                    <div class=""question-area""></div> 
                </div>","null","","","","","","","","","","","",""
"","","","","","html-button-response","41","154341","0.0-41.0","1D44DC911D8D42ED849C10186679ACB6","019d0653-b8b4-7b10-b26a-8c4fcceca7e6","019d0640-0a2d-7740-a972-9c73365b2dcb","","561","
                <div class=""stimulus-container"">
                    <img src=""images/schematic_sequence/supermarket_scheme/supermarket_scheme_2.png"" class=""exp-image"">
                    <div class=""question-area"">
                        <p style=""font-size: 20px; font-weight: bold; margin: 0;"">Is there a person in this image?</p>
                    </div>
                </div>","1","main_experiment_trial","2","supermarket_scheme","schematic_sequence","chronological","","","","","","",""
"","","","","","html-keyboard-response","42","159343","0.0-42.0","1D44DC911D8D42ED849C10186679ACB6","019d0653-b8b4-7b10-b26a-8c4fcceca7e6","019d0640-0a2d-7740-a972-9c73365b2dcb","","null","
                <div class=""stimulus-container"">
                    <img src=""images/schematic_sequence/supermarket_scheme/supermarket_scheme_3.png"" class=""exp-image"">
                    <div class=""question-area""></div> 
                </div>","null","","","","","","","","","","","",""
"","","","","","html-button-response","43","159969","0.0-43.0","1D44DC911D8D42ED849C10186679ACB6","019d0653-b8b4-7b10-b26a-8c4fcceca7e6","019d0640-0a2d-7740-a972-9c73365b2dcb","","625","
                <div class=""stimulus-container"">
                    <img src=""images/schematic_sequence/supermarket_scheme/supermarket_scheme_3.png"" class=""exp-image"">
                    <div class=""question-area"">
                        <p style=""font-size: 20px; font-weight: bold; margin: 0;"">Is there a person in this image?</p>
                    </div>
                </div>","1","main_experiment_trial","3","supermarket_scheme","schematic_sequence","chronological","","","","","","",""
"","","","","","html-keyboard-response","44","164986","0.0-44.0","1D44DC911D8D42ED849C10186679ACB6","019d0653-b8b4-7b10-b26a-8c4fcceca7e6","019d0640-0a2d-7740-a972-9c73365b2dcb","","null","
                <div class=""stimulus-container"">
                    <img src=""images/schematic_sequence/supermarket_scheme/supermarket_scheme_4.png"" class=""exp-image"">
                    <div class=""question-area""></div> 
                </div>","null","","","","","","","","","","","",""
"","","","","","html-button-response","45","166158","0.0-45.0","1D44DC911D8D42ED849C10186679ACB6","019d0653-b8b4-7b10-b26a-8c4fcceca7e6","019d0640-0a2d-7740-a972-9c73365b2dcb","","1171","
                <div class=""stimulus-container"">
                    <img src=""images/schematic_sequence/supermarket_scheme/supermarket_scheme_4.png"" class=""exp-image"">
                    <div class=""question-area"">
                        <p style=""font-size: 20px; font-weight: bold; margin: 0;"">Is there a person in this image?</p>
                    </div>
                </div>","0","main_experiment_trial","4","supermarket_scheme","schematic_sequence","chronological","","","","","","",""
"","","","","","html-keyboard-response","46","171171","0.0-46.0","1D44DC911D8D42ED849C10186679ACB6","019d0653-b8b4-7b10-b26a-8c4fcceca7e6","019d0640-0a2d-7740-a972-9c73365b2dcb","","null","
                <div class=""stimulus-container"">
                    <img src=""images/schematic_sequence/supermarket_scheme/supermarket_scheme_5.png"" class=""exp-image"">
                    <div class=""question-area""></div> 
                </div>","null","","","","","","","","","","","",""
"","","","","","html-button-response","47","173165","0.0-47.0","1D44DC911D8D42ED849C10186679ACB6","019d0653-b8b4-7b10-b26a-8c4fcceca7e6","019d0640-0a2d-7740-a972-9c73365b2dcb","","1993","
                <div class=""stimulus-container"">
                    <img src=""images/schematic_sequence/supermarket_scheme/supermarket_scheme_5.png"" class=""exp-image"">
                    <div class=""question-area"">
                        <p style=""font-size: 20px; font-weight: bold; margin: 0;"">Is there a person in this image?</p>
                    </div>
                </div>","1","main_experiment_trial","5","supermarket_scheme","schematic_sequence","chronological","","","","","","",""
"","","","","","html-keyboard-response","48","178173","0.0-48.0","1D44DC911D8D42ED849C10186679ACB6","019d0653-b8b4-7b10-b26a-8c4fcceca7e6","019d0640-0a2d-7740-a972-9c73365b2dcb","","null","
                <div class=""stimulus-container"">
                    <img src=""images/schematic_sequence/supermarket_scheme/supermarket_scheme_6.png"" class=""exp-image"">
                    <div class=""question-area""></div> 
                </div>","null","","","","","","","","","","","",""
"","","","","","html-button-response","49","179093","0.0-49.0","1D44DC911D8D42ED849C10186679ACB6","019d0653-b8b4-7b10-b26a-8c4fcceca7e6","019d0640-0a2d-7740-a972-9c73365b2dcb","","918","
                <div class=""stimulus-container"">
                    <img src=""images/schematic_sequence/supermarket_scheme/supermarket_scheme_6.png"" class=""exp-image"">
                    <div class=""question-area"">
                        <p style=""font-size: 20px; font-weight: bold; margin: 0;"">Is there a person in this image?</p>
                    </div>
                </div>","0","main_experiment_trial","6","supermarket_scheme","schematic_sequence","chronological","","","","","","",""
"","","","","","html-keyboard-response","50","184095","0.0-50.0","1D44DC911D8D42ED849C10186679ACB6","019d0653-b8b4-7b10-b26a-8c4fcceca7e6","019d0640-0a2d-7740-a972-9c73365b2dcb","","null","
                <div class=""stimulus-container"">
                    <img src=""images/schematic_sequence/supermarket_scheme/supermarket_scheme_7.png"" class=""exp-image"">
                    <div class=""question-area""></div> 
                </div>","null","","","","","","","","","","","",""
"","","","","","html-button-response","51","186570","0.0-51.0","1D44DC911D8D42ED849C10186679ACB6","019d0653-b8b4-7b10-b26a-8c4fcceca7e6","019d0640-0a2d-7740-a972-9c73365b2dcb","","2473","
                <div class=""stimulus-container"">
                    <img src=""images/schematic_sequence/supermarket_scheme/supermarket_scheme_7.png"" class=""exp-image"">
                    <div class=""question-area"">
                        <p style=""font-size: 20px; font-weight: bold; margin: 0;"">Is there a person in this image?</p>
                    </div>
                </div>","0","main_experiment_trial","7","supermarket_scheme","schematic_sequence","chronological","","","","","","",""
"","","","","","html-keyboard-response","52","191584","0.0-52.0","1D44DC911D8D42ED849C10186679ACB6","019d0653-b8b4-7b10-b26a-8c4fcceca7e6","019d0640-0a2d-7740-a972-9c73365b2dcb","","null","
                <div class=""stimulus-container"">
                    <img src=""images/schematic_sequence/supermarket_scheme/supermarket_scheme_8.png"" class=""exp-image"">
                    <div class=""question-area""></div> 
                </div>","null","","","","","","","","","","","",""
"","","","","","html-button-response","53","194597","0.0-53.0","1D44DC911D8D42ED849C10186679ACB6","019d0653-b8b4-7b10-b26a-8c4fcceca7e6","019d0640-0a2d-7740-a972-9c73365b2dcb","","null","
                <div class=""stimulus-container"">
                    <img src=""images/schematic_sequence/supermarket_scheme/supermarket_scheme_8.png"" class=""exp-image"">
                    <div class=""question-area"">
                        <p style=""font-size: 20px; font-weight: bold; margin: 0;"">Is there a person in this image?</p>
                    </div>
                </div>","null","main_experiment_trial","8","supermarket_scheme","schematic_sequence","chronological","","","","","","",""
"","","","","","html-keyboard-response","54","199613","0.0-54.0","1D44DC911D8D42ED849C10186679ACB6","019d0653-b8b4-7b10-b26a-8c4fcceca7e6","019d0640-0a2d-7740-a972-9c73365b2dcb","","null","
                <div class=""stimulus-container"">
                    <img src=""images/schematic_sequence/supermarket_scheme/supermarket_scheme_9.png"" class=""exp-image"">
                    <div class=""question-area""></div> 
                </div>","null","","","","","","","","","","","",""
"","","","","","html-button-response","55","200561","0.0-55.0","1D44DC911D8D42ED849C10186679ACB6","019d0653-b8b4-7b10-b26a-8c4fcceca7e6","019d0640-0a2d-7740-a972-9c73365b2dcb","","947","
                <div class=""stimulus-container"">
                    <img src=""images/schematic_sequence/supermarket_scheme/supermarket_scheme_9.png"" class=""exp-image"">
                    <div class=""question-area"">
                        <p style=""font-size: 20px; font-weight: bold; margin: 0;"">Is there a person in this image?</p>
                    </div>
                </div>","0","main_experiment_trial","9","supermarket_scheme","schematic_sequence","chronological","","","","","","",""
"","","","","","html-keyboard-response","56","205569","0.0-56.0","1D44DC911D8D42ED849C10186679ACB6","019d0653-b8b4-7b10-b26a-8c4fcceca7e6","019d0640-0a2d-7740-a972-9c73365b2dcb","","null","
                <div class=""stimulus-container"">
                    <img src=""images/schematic_sequence/supermarket_scheme/supermarket_scheme_ten.png"" class=""exp-image"">
                    <div class=""question-area""></div> 
                </div>","null","","","","","","","","","","","",""
"","","","","","html-button-response","57","206267","0.0-57.0","1D44DC911D8D42ED849C10186679ACB6","019d0653-b8b4-7b10-b26a-8c4fcceca7e6","019d0640-0a2d-7740-a972-9c73365b2dcb","","697","
                <div class=""stimulus-container"">
                    <img src=""images/schematic_sequence/supermarket_scheme/supermarket_scheme_ten.png"" class=""exp-image"">
                    <div class=""question-area"">
                        <p style=""font-size: 20px; font-weight: bold; margin: 0;"">Is there a person in this image?</p>
                    </div>
                </div>","1","main_experiment_trial","ten","supermarket_scheme","schematic_sequence","chronological","","","","","","",""
"","","","","","html-keyboard-response","58","211271","0.0-58.0","1D44DC911D8D42ED849C10186679ACB6","019d0653-b8b4-7b10-b26a-8c4fcceca7e6","019d0640-0a2d-7740-a972-9c73365b2dcb","","null","<div style=""background-color: white; width: 100vw; height: 100vh;""></div>","null","","","","","","","","","","","",""
"","","","","","html-keyboard-response","59","216285","0.0-59.0","1D44DC911D8D42ED849C10186679ACB6","019d0653-b8b4-7b10-b26a-8c4fcceca7e6","019d0640-0a2d-7740-a972-9c73365b2dcb","","null","
                <div class=""stimulus-container"">
                    <img src=""images/semantic_sequence/housework_semantic/housework_semantic_1.png"" class=""exp-image"">
                    <div class=""question-area""></div> 
                </div>","null","","","","","","","","","","","",""
"","","","","","html-button-response","60","217957","0.0-60.0","1D44DC911D8D42ED849C10186679ACB6","019d0653-b8b4-7b10-b26a-8c4fcceca7e6","019d0640-0a2d-7740-a972-9c73365b2dcb","","1671","
                <div class=""stimulus-container"">
                    <img src=""images/semantic_sequence/housework_semantic/housework_semantic_1.png"" class=""exp-image"">
                    <div class=""question-area"">
                        <p style=""font-size: 20px; font-weight: bold; margin: 0;"">Is there a person in this image?</p>
                    </div>
                </div>","1","main_experiment_trial","1","housework_semantic","semantic_sequence","chronological","","","","","","",""
"","","","","","html-keyboard-response","61","222972","0.0-61.0","1D44DC911D8D42ED849C10186679ACB6","019d0653-b8b4-7b10-b26a-8c4fcceca7e6","019d0640-0a2d-7740-a972-9c73365b2dcb","","null","
                <div class=""stimulus-container"">
                    <img src=""images/semantic_sequence/housework_semantic/housework_semantic_2.png"" class=""exp-image"">
                    <div class=""question-area""></div> 
                </div>","null","","","","","","","","","","","",""
"","","","","","html-button-response","62","225278","0.0-62.0","1D44DC911D8D42ED849C10186679ACB6","019d0653-b8b4-7b10-b26a-8c4fcceca7e6","019d0640-0a2d-7740-a972-9c73365b2dcb","","2305","
                <div class=""stimulus-container"">
                    <img src=""images/semantic_sequence/housework_semantic/housework_semantic_2.png"" class=""exp-image"">
                    <div class=""question-area"">
                        <p style=""font-size: 20px; font-weight: bold; margin: 0;"">Is there a person in this image?</p>
                    </div>
                </div>","0","main_experiment_trial","2","housework_semantic","semantic_sequence","chronological","","","","","","",""
"","","","","","html-keyboard-response","63","230281","0.0-63.0","1D44DC911D8D42ED849C10186679ACB6","019d0653-b8b4-7b10-b26a-8c4fcceca7e6","019d0640-0a2d-7740-a972-9c73365b2dcb","","null","
                <div class=""stimulus-container"">
                    <img src=""images/semantic_sequence/housework_semantic/housework_semantic_3.png"" class=""exp-image"">
                    <div class=""question-area""></div> 
                </div>","null","","","","","","","","","","","",""
"","","","","","html-button-response","64","231373","0.0-64.0","1D44DC911D8D42ED849C10186679ACB6","019d0653-b8b4-7b10-b26a-8c4fcceca7e6","019d0640-0a2d-7740-a972-9c73365b2dcb","","1091","
                <div class=""stimulus-container"">
                    <img src=""images/semantic_sequence/housework_semantic/housework_semantic_3.png"" class=""exp-image"">
                    <div class=""question-area"">
                        <p style=""font-size: 20px; font-weight: bold; margin: 0;"">Is there a person in this image?</p>
                    </div>
                </div>","0","main_experiment_trial","3","housework_semantic","semantic_sequence","chronological","","","","","","",""
"","","","","","html-keyboard-response","65","236389","0.0-65.0","1D44DC911D8D42ED849C10186679ACB6","019d0653-b8b4-7b10-b26a-8c4fcceca7e6","019d0640-0a2d-7740-a972-9c73365b2dcb","","null","
                <div class=""stimulus-container"">
                    <img src=""images/semantic_sequence/housework_semantic/housework_semantic_4.png"" class=""exp-image"">
                    <div class=""question-area""></div> 
                </div>","null","","","","","","","","","","","",""
"","","","","","html-button-response","66","238637","0.0-66.0","1D44DC911D8D42ED849C10186679ACB6","019d0653-b8b4-7b10-b26a-8c4fcceca7e6","019d0640-0a2d-7740-a972-9c73365b2dcb","","2247","
                <div class=""stimulus-container"">
                    <img src=""images/semantic_sequence/housework_semantic/housework_semantic_4.png"" class=""exp-image"">
                    <div class=""question-area"">
                        <p style=""font-size: 20px; font-weight: bold; margin: 0;"">Is there a person in this image?</p>
                    </div>
                </div>","0","main_experiment_trial","4","housework_semantic","semantic_sequence","chronological","","","","","","",""
"","","","","","html-keyboard-response","67","243649","0.0-67.0","1D44DC911D8D42ED849C10186679ACB6","019d0653-b8b4-7b10-b26a-8c4fcceca7e6","019d0640-0a2d-7740-a972-9c73365b2dcb","","null","
                <div class=""stimulus-container"">
                    <img src=""images/semantic_sequence/housework_semantic/housework_semantic_5.png"" class=""exp-image"">
                    <div class=""question-area""></div> 
                </div>","null","","","","","","","","","","","",""
"","","","","","html-button-response","68","244822","0.0-68.0","1D44DC911D8D42ED849C10186679ACB6","019d0653-b8b4-7b10-b26a-8c4fcceca7e6","019d0640-0a2d-7740-a972-9c73365b2dcb","","1172","
                <div class=""stimulus-container"">
                    <img src=""images/semantic_sequence/housework_semantic/housework_semantic_5.png"" class=""exp-image"">
                    <div class=""question-area"">
                        <p style=""font-size: 20px; font-weight: bold; margin: 0;"">Is there a person in this image?</p>
                    </div>
                </div>","0","main_experiment_trial","5","housework_semantic","semantic_sequence","chronological","","","","","","",""
"","","","","","html-keyboard-response","69","249836","0.0-69.0","1D44DC911D8D42ED849C10186679ACB6","019d0653-b8b4-7b10-b26a-8c4fcceca7e6","019d0640-0a2d-7740-a972-9c73365b2dcb","","null","
                <div class=""stimulus-container"">
                    <img src=""images/semantic_sequence/housework_semantic/housework_semantic_6.png"" class=""exp-image"">
                    <div class=""question-area""></div> 
                </div>","null","","","","","","","","","","","",""
"","","","","","html-button-response","70","250918","0.0-70.0","1D44DC911D8D42ED849C10186679ACB6","019d0653-b8b4-7b10-b26a-8c4fcceca7e6","019d0640-0a2d-7740-a972-9c73365b2dcb","","1081","
                <div class=""stimulus-container"">
                    <img src=""images/semantic_sequence/housework_semantic/housework_semantic_6.png"" class=""exp-image"">
                    <div class=""question-area"">
                        <p style=""font-size: 20px; font-weight: bold; margin: 0;"">Is there a person in this image?</p>
                    </div>
                </div>","0","main_experiment_trial","6","housework_semantic","semantic_sequence","chronological","","","","","","",""
"","","","","","html-keyboard-response","71","255921","0.0-71.0","1D44DC911D8D42ED849C10186679ACB6","019d0653-b8b4-7b10-b26a-8c4fcceca7e6","019d0640-0a2d-7740-a972-9c73365b2dcb","","null","
                <div class=""stimulus-container"">
                    <img src=""images/semantic_sequence/housework_semantic/housework_semantic_7.png"" class=""exp-image"">
                    <div class=""question-area""></div> 
                </div>","null","","","","","","","","","","","",""
"","","","","","html-button-response","72","258936","0.0-72.0","1D44DC911D8D42ED849C10186679ACB6","019d0653-b8b4-7b10-b26a-8c4fcceca7e6","019d0640-0a2d-7740-a972-9c73365b2dcb","","null","
                <div class=""stimulus-container"">
                    <img src=""images/semantic_sequence/housework_semantic/housework_semantic_7.png"" class=""exp-image"">
                    <div class=""question-area"">
                        <p style=""font-size: 20px; font-weight: bold; margin: 0;"">Is there a person in this image?</p>
                    </div>
                </div>","null","main_experiment_trial","7","housework_semantic","semantic_sequence","chronological","","","","","","",""
"","","","","","html-keyboard-response","73","263941","0.0-73.0","1D44DC911D8D42ED849C10186679ACB6","019d0653-b8b4-7b10-b26a-8c4fcceca7e6","019d0640-0a2d-7740-a972-9c73365b2dcb","","null","
                <div class=""stimulus-container"">
                    <img src=""images/semantic_sequence/housework_semantic/housework_semantic_8.png"" class=""exp-image"">
                    <div class=""question-area""></div> 
                </div>","null","","","","","","","","","","","",""
"","","","","","html-button-response","74","264866","0.0-74.0","1D44DC911D8D42ED849C10186679ACB6","019d0653-b8b4-7b10-b26a-8c4fcceca7e6","019d0640-0a2d-7740-a972-9c73365b2dcb","","924","
                <div class=""stimulus-container"">
                    <img src=""images/semantic_sequence/housework_semantic/housework_semantic_8.png"" class=""exp-image"">
                    <div class=""question-area"">
                        <p style=""font-size: 20px; font-weight: bold; margin: 0;"">Is there a person in this image?</p>
                    </div>
                </div>","0","main_experiment_trial","8","housework_semantic","semantic_sequence","chronological","","","","","","",""
"","","","","","html-keyboard-response","75","269877","0.0-75.0","1D44DC911D8D42ED849C10186679ACB6","019d0653-b8b4-7b10-b26a-8c4fcceca7e6","019d0640-0a2d-7740-a972-9c73365b2dcb","","null","
                <div class=""stimulus-container"">
                    <img src=""images/semantic_sequence/housework_semantic/housework_semantic_9.png"" class=""exp-image"">
                    <div class=""question-area""></div> 
                </div>","null","","","","","","","","","","","",""
"","","","","","html-button-response","76","271159","0.0-76.0","1D44DC911D8D42ED849C10186679ACB6","019d0653-b8b4-7b10-b26a-8c4fcceca7e6","019d0640-0a2d-7740-a972-9c73365b2dcb","","1280","
                <div class=""stimulus-container"">
                    <img src=""images/semantic_sequence/housework_semantic/housework_semantic_9.png"" class=""exp-image"">
                    <div class=""question-area"">
                        <p style=""font-size: 20px; font-weight: bold; margin: 0;"">Is there a person in this image?</p>
                    </div>
                </div>","0","main_experiment_trial","9","housework_semantic","semantic_sequence","chronological","","","","","","",""
"","","","","","html-keyboard-response","77","276172","0.0-77.0","1D44DC911D8D42ED849C10186679ACB6","019d0653-b8b4-7b10-b26a-8c4fcceca7e6","019d0640-0a2d-7740-a972-9c73365b2dcb","","null","
                <div class=""stimulus-container"">
                    <img src=""images/semantic_sequence/housework_semantic/housework_semantic_ten.png"" class=""exp-image"">
                    <div class=""question-area""></div> 
                </div>","null","","","","","","","","","","","",""
"","","","","","html-button-response","78","277396","0.0-78.0","1D44DC911D8D42ED849C10186679ACB6","019d0653-b8b4-7b10-b26a-8c4fcceca7e6","019d0640-0a2d-7740-a972-9c73365b2dcb","","1222","
                <div class=""stimulus-container"">
                    <img src=""images/semantic_sequence/housework_semantic/housework_semantic_ten.png"" class=""exp-image"">
                    <div class=""question-area"">
                        <p style=""font-size: 20px; font-weight: bold; margin: 0;"">Is there a person in this image?</p>
                    </div>
                </div>","0","main_experiment_trial","ten","housework_semantic","semantic_sequence","chronological","","","","","","",""
"","","","","","html-keyboard-response","79","282407","0.0-79.0","1D44DC911D8D42ED849C10186679ACB6","019d0653-b8b4-7b10-b26a-8c4fcceca7e6","019d0640-0a2d-7740-a972-9c73365b2dcb","","null","<div style=""background-color: white; width: 100vw; height: 100vh;""></div>","null","","","","","","","","","","","",""
"","","","","","html-keyboard-response","80","287410","0.0-80.0","1D44DC911D8D42ED849C10186679ACB6","019d0653-b8b4-7b10-b26a-8c4fcceca7e6","019d0640-0a2d-7740-a972-9c73365b2dcb","","null","
                <div class=""stimulus-container"">
                    <img src=""images/semantic_sequence/kitchen_operations_semantic/kitchen_operations_semantic_1.png"" class=""exp-image"">
                    <div class=""question-area""></div> 
                </div>","null","","","","","","","","","","","",""
"","","","","","html-button-response","81","288843","0.0-81.0","1D44DC911D8D42ED849C10186679ACB6","019d0653-b8b4-7b10-b26a-8c4fcceca7e6","019d0640-0a2d-7740-a972-9c73365b2dcb","","1432","
                <div class=""stimulus-container"">
                    <img src=""images/semantic_sequence/kitchen_operations_semantic/kitchen_operations_semantic_1.png"" class=""exp-image"">
                    <div class=""question-area"">
                        <p style=""font-size: 20px; font-weight: bold; margin: 0;"">Is there a person in this image?</p>
                    </div>
                </div>","0","main_experiment_trial","1","kitchen_operations_semantic","semantic_sequence","chronological","","","","","","",""
"","","","","","html-keyboard-response","82","293851","0.0-82.0","1D44DC911D8D42ED849C10186679ACB6","019d0653-b8b4-7b10-b26a-8c4fcceca7e6","019d0640-0a2d-7740-a972-9c73365b2dcb","","null","
                <div class=""stimulus-container"">
                    <img src=""images/semantic_sequence/kitchen_operations_semantic/kitchen_operations_semantic_2.png"" class=""exp-image"">
                    <div class=""question-area""></div> 
                </div>","null","","","","","","","","","","","",""
"","","","","","html-button-response","83","294439","0.0-83.0","1D44DC911D8D42ED849C10186679ACB6","019d0653-b8b4-7b10-b26a-8c4fcceca7e6","019d0640-0a2d-7740-a972-9c73365b2dcb","","587","
                <div class=""stimulus-container"">
                    <img src=""images/semantic_sequence/kitchen_operations_semantic/kitchen_operations_semantic_2.png"" class=""exp-image"">
                    <div class=""question-area"">
                        <p style=""font-size: 20px; font-weight: bold; margin: 0;"">Is there a person in this image?</p>
                    </div>
                </div>","0","main_experiment_trial","2","kitchen_operations_semantic","semantic_sequence","chronological","","","","","","",""
"","","","","","html-keyboard-response","84","299441","0.0-84.0","1D44DC911D8D42ED849C10186679ACB6","019d0653-b8b4-7b10-b26a-8c4fcceca7e6","019d0640-0a2d-7740-a972-9c73365b2dcb","","null","
                <div class=""stimulus-container"">
                    <img src=""images/semantic_sequence/kitchen_operations_semantic/kitchen_operations_semantic_3.png"" class=""exp-image"">
                    <div class=""question-area""></div> 
                </div>","null","","","","","","","","","","","",""
"","","","","","html-button-response","85","300273","0.0-85.0","1D44DC911D8D42ED849C10186679ACB6","019d0653-b8b4-7b10-b26a-8c4fcceca7e6","019d0640-0a2d-7740-a972-9c73365b2dcb","","831","
                <div class=""stimulus-container"">
                    <img src=""images/semantic_sequence/kitchen_operations_semantic/kitchen_operations_semantic_3.png"" class=""exp-image"">
                    <div class=""question-area"">
                        <p style=""font-size: 20px; font-weight: bold; margin: 0;"">Is there a person in this image?</p>
                    </div>
                </div>","0","main_experiment_trial","3","kitchen_operations_semantic","semantic_sequence","chronological","","","","","","",""
"","","","","","html-keyboard-response","86","305282","0.0-86.0","1D44DC911D8D42ED849C10186679ACB6","019d0653-b8b4-7b10-b26a-8c4fcceca7e6","019d0640-0a2d-7740-a972-9c73365b2dcb","","null","
                <div class=""stimulus-container"">
                    <img src=""images/semantic_sequence/kitchen_operations_semantic/kitchen_operations_semantic_4.png"" class=""exp-image"">
                    <div class=""question-area""></div> 
                </div>","null","","","","","","","","","","","",""
"","","","","","html-button-response","87","306411","0.0-87.0","1D44DC911D8D42ED849C10186679ACB6","019d0653-b8b4-7b10-b26a-8c4fcceca7e6","019d0640-0a2d-7740-a972-9c73365b2dcb","","1128","
                <div class=""stimulus-container"">
                    <img src=""images/semantic_sequence/kitchen_operations_semantic/kitchen_operations_semantic_4.png"" class=""exp-image"">
                    <div class=""question-area"">
                        <p style=""font-size: 20px; font-weight: bold; margin: 0;"">Is there a person in this image?</p>
                    </div>
                </div>","0","main_experiment_trial","4","kitchen_operations_semantic","semantic_sequence","chronological","","","","","","",""
"","","","","","html-keyboard-response","88","311422","0.0-88.0","1D44DC911D8D42ED849C10186679ACB6","019d0653-b8b4-7b10-b26a-8c4fcceca7e6","019d0640-0a2d-7740-a972-9c73365b2dcb","","null","
                <div class=""stimulus-container"">
                    <img src=""images/semantic_sequence/kitchen_operations_semantic/kitchen_operations_semantic_5.png"" class=""exp-image"">
                    <div class=""question-area""></div> 
                </div>","null","","","","","","","","","","","",""
"","","","","","html-button-response","89","313064","0.0-89.0","1D44DC911D8D42ED849C10186679ACB6","019d0653-b8b4-7b10-b26a-8c4fcceca7e6","019d0640-0a2d-7740-a972-9c73365b2dcb","","1640","
                <div class=""stimulus-container"">
                    <img src=""images/semantic_sequence/kitchen_operations_semantic/kitchen_operations_semantic_5.png"" class=""exp-image"">
                    <div class=""question-area"">
                        <p style=""font-size: 20px; font-weight: bold; margin: 0;"">Is there a person in this image?</p>
                    </div>
                </div>","0","main_experiment_trial","5","kitchen_operations_semantic","semantic_sequence","chronological","","","","","","",""
"","","","","","html-keyboard-response","90","318078","0.0-90.0","1D44DC911D8D42ED849C10186679ACB6","019d0653-b8b4-7b10-b26a-8c4fcceca7e6","019d0640-0a2d-7740-a972-9c73365b2dcb","","null","
                <div class=""stimulus-container"">
                    <img src=""images/semantic_sequence/kitchen_operations_semantic/kitchen_operations_semantic_6.png"" class=""exp-image"">
                    <div class=""question-area""></div> 
                </div>","null","","","","","","","","","","","",""
"","","","","","html-button-response","91","318920","0.0-91.0","1D44DC911D8D42ED849C10186679ACB6","019d0653-b8b4-7b10-b26a-8c4fcceca7e6","019d0640-0a2d-7740-a972-9c73365b2dcb","","841","
                <div class=""stimulus-container"">
                    <img src=""images/semantic_sequence/kitchen_operations_semantic/kitchen_operations_semantic_6.png"" class=""exp-image"">
                    <div class=""question-area"">
                        <p style=""font-size: 20px; font-weight: bold; margin: 0;"">Is there a person in this image?</p>
                    </div>
                </div>","0","main_experiment_trial","6","kitchen_operations_semantic","semantic_sequence","chronological","","","","","","",""
"","","","","","html-keyboard-response","92","323924","0.0-92.0","1D44DC911D8D42ED849C10186679ACB6","019d0653-b8b4-7b10-b26a-8c4fcceca7e6","019d0640-0a2d-7740-a972-9c73365b2dcb","","null","
                <div class=""stimulus-container"">
                    <img src=""images/semantic_sequence/kitchen_operations_semantic/kitchen_operations_semantic_7.png"" class=""exp-image"">
                    <div class=""question-area""></div> 
                </div>","null","","","","","","","","","","","",""
"","","","","","html-button-response","93","324537","0.0-93.0","1D44DC911D8D42ED849C10186679ACB6","019d0653-b8b4-7b10-b26a-8c4fcceca7e6","019d0640-0a2d-7740-a972-9c73365b2dcb","","612","
                <div class=""stimulus-container"">
                    <img src=""images/semantic_sequence/kitchen_operations_semantic/kitchen_operations_semantic_7.png"" class=""exp-image"">
                    <div class=""question-area"">
                        <p style=""font-size: 20px; font-weight: bold; margin: 0;"">Is there a person in this image?</p>
                    </div>
                </div>","0","main_experiment_trial","7","kitchen_operations_semantic","semantic_sequence","chronological","","","","","","",""
"","","","","","html-keyboard-response","94","329544","0.0-94.0","1D44DC911D8D42ED849C10186679ACB6","019d0653-b8b4-7b10-b26a-8c4fcceca7e6","019d0640-0a2d-7740-a972-9c73365b2dcb","","null","
                <div class=""stimulus-container"">
                    <img src=""images/semantic_sequence/kitchen_operations_semantic/kitchen_operations_semantic_8.png"" class=""exp-image"">
                    <div class=""question-area""></div> 
                </div>","null","","","","","","","","","","","",""
"","","","","","html-button-response","95","332560","0.0-95.0","1D44DC911D8D42ED849C10186679ACB6","019d0653-b8b4-7b10-b26a-8c4fcceca7e6","019d0640-0a2d-7740-a972-9c73365b2dcb","","null","
                <div class=""stimulus-container"">
                    <img src=""images/semantic_sequence/kitchen_operations_semantic/kitchen_operations_semantic_8.png"" class=""exp-image"">
                    <div class=""question-area"">
                        <p style=""font-size: 20px; font-weight: bold; margin: 0;"">Is there a person in this image?</p>
                    </div>
                </div>","null","main_experiment_trial","8","kitchen_operations_semantic","semantic_sequence","chronological","","","","","","",""
"","","","","","html-keyboard-response","96","337566","0.0-96.0","1D44DC911D8D42ED849C10186679ACB6","019d0653-b8b4-7b10-b26a-8c4fcceca7e6","019d0640-0a2d-7740-a972-9c73365b2dcb","","null","
                <div class=""stimulus-container"">
                    <img src=""images/semantic_sequence/kitchen_operations_semantic/kitchen_operations_semantic_9.png"" class=""exp-image"">
                    <div class=""question-area""></div> 
                </div>","null","","","","","","","","","","","",""
"","","","","","html-button-response","97","338496","0.0-97.0","1D44DC911D8D42ED849C10186679ACB6","019d0653-b8b4-7b10-b26a-8c4fcceca7e6","019d0640-0a2d-7740-a972-9c73365b2dcb","","929","
                <div class=""stimulus-container"">
                    <img src=""images/semantic_sequence/kitchen_operations_semantic/kitchen_operations_semantic_9.png"" class=""exp-image"">
                    <div class=""question-area"">
                        <p style=""font-size: 20px; font-weight: bold; margin: 0;"">Is there a person in this image?</p>
                    </div>
                </div>","0","main_experiment_trial","9","kitchen_operations_semantic","semantic_sequence","chronological","","","","","","",""
"","","","","","html-keyboard-response","98","343511","0.0-98.0","1D44DC911D8D42ED849C10186679ACB6","019d0653-b8b4-7b10-b26a-8c4fcceca7e6","019d0640-0a2d-7740-a972-9c73365b2dcb","","null","
                <div class=""stimulus-container"">
                    <img src=""images/semantic_sequence/kitchen_operations_semantic/kitchen_operations_semantic_ten.png"" class=""exp-image"">
                    <div class=""question-area""></div> 
                </div>","null","","","","","","","","","","","",""
"","","","","","html-button-response","99","346524","0.0-99.0","1D44DC911D8D42ED849C10186679ACB6","019d0653-b8b4-7b10-b26a-8c4fcceca7e6","019d0640-0a2d-7740-a972-9c73365b2dcb","","null","
                <div class=""stimulus-container"">
                    <img src=""images/semantic_sequence/kitchen_operations_semantic/kitchen_operations_semantic_ten.png"" class=""exp-image"">
                    <div class=""question-area"">
                        <p style=""font-size: 20px; font-weight: bold; margin: 0;"">Is there a person in this image?</p>
                    </div>
                </div>","null","main_experiment_trial","ten","kitchen_operations_semantic","semantic_sequence","chronological","","","","","","",""
"","","","","","html-keyboard-response","100","351525","0.0-100.0","1D44DC911D8D42ED849C10186679ACB6","019d0653-b8b4-7b10-b26a-8c4fcceca7e6","019d0640-0a2d-7740-a972-9c73365b2dcb","","null","<div style=""background-color: white; width: 100vw; height: 100vh;""></div>","null","","","","","","","","","","","",""
"","","","","","html-keyboard-response","101","356540","0.0-101.0","1D44DC911D8D42ED849C10186679ACB6","019d0653-b8b4-7b10-b26a-8c4fcceca7e6","019d0640-0a2d-7740-a972-9c73365b2dcb","","null","
                <div class=""stimulus-container"">
                    <img src=""images/semantic_sequence/maintaining_a_car_semantic/maintaining_a_car_semantic_1.png"" class=""exp-image"">
                    <div class=""question-area""></div> 
                </div>","null","","","","","","","","","","","",""
"","","","","","html-button-response","102","357709","0.0-102.0","1D44DC911D8D42ED849C10186679ACB6","019d0653-b8b4-7b10-b26a-8c4fcceca7e6","019d0640-0a2d-7740-a972-9c73365b2dcb","","1168","
                <div class=""stimulus-container"">
                    <img src=""images/semantic_sequence/maintaining_a_car_semantic/maintaining_a_car_semantic_1.png"" class=""exp-image"">
                    <div class=""question-area"">
                        <p style=""font-size: 20px; font-weight: bold; margin: 0;"">Is there a person in this image?</p>
                    </div>
                </div>","0","main_experiment_trial","1","maintaining_a_car_semantic","semantic_sequence","chronological","","","","","","",""
"","","","","","html-keyboard-response","103","362722","0.0-103.0","1D44DC911D8D42ED849C10186679ACB6","019d0653-b8b4-7b10-b26a-8c4fcceca7e6","019d0640-0a2d-7740-a972-9c73365b2dcb","","null","
                <div class=""stimulus-container"">
                    <img src=""images/semantic_sequence/maintaining_a_car_semantic/maintaining_a_car_semantic_2.png"" class=""exp-image"">
                    <div class=""question-area""></div> 
                </div>","null","","","","","","","","","","","",""
"","","","","","html-button-response","104","365723","0.0-104.0","1D44DC911D8D42ED849C10186679ACB6","019d0653-b8b4-7b10-b26a-8c4fcceca7e6","019d0640-0a2d-7740-a972-9c73365b2dcb","","null","
                <div class=""stimulus-container"">
                    <img src=""images/semantic_sequence/maintaining_a_car_semantic/maintaining_a_car_semantic_2.png"" class=""exp-image"">
                    <div class=""question-area"">
                        <p style=""font-size: 20px; font-weight: bold; margin: 0;"">Is there a person in this image?</p>
                    </div>
                </div>","null","main_experiment_trial","2","maintaining_a_car_semantic","semantic_sequence","chronological","","","","","","",""
"","","","","","html-keyboard-response","105","370737","0.0-105.0","1D44DC911D8D42ED849C10186679ACB6","019d0653-b8b4-7b10-b26a-8c4fcceca7e6","019d0640-0a2d-7740-a972-9c73365b2dcb","","null","
                <div class=""stimulus-container"">
                    <img src=""images/semantic_sequence/maintaining_a_car_semantic/maintaining_a_car_semantic_3.png"" class=""exp-image"">
                    <div class=""question-area""></div> 
                </div>","null","","","","","","","","","","","",""
"","","","","","html-button-response","106","372995","0.0-106.0","1D44DC911D8D42ED849C10186679ACB6","019d0653-b8b4-7b10-b26a-8c4fcceca7e6","019d0640-0a2d-7740-a972-9c73365b2dcb","","2256","
                <div class=""stimulus-container"">
                    <img src=""images/semantic_sequence/maintaining_a_car_semantic/maintaining_a_car_semantic_3.png"" class=""exp-image"">
                    <div class=""question-area"">
                        <p style=""font-size: 20px; font-weight: bold; margin: 0;"">Is there a person in this image?</p>
                    </div>
                </div>","0","main_experiment_trial","3","maintaining_a_car_semantic","semantic_sequence","chronological","","","","","","",""
"","","","","","html-keyboard-response","107","377998","0.0-107.0","1D44DC911D8D42ED849C10186679ACB6","019d0653-b8b4-7b10-b26a-8c4fcceca7e6","019d0640-0a2d-7740-a972-9c73365b2dcb","","null","
                <div class=""stimulus-container"">
                    <img src=""images/semantic_sequence/maintaining_a_car_semantic/maintaining_a_car_semantic_4.png"" class=""exp-image"">
                    <div class=""question-area""></div> 
                </div>","null","","","","","","","","","","","",""
"","","","","","html-button-response","108","378948","0.0-108.0","1D44DC911D8D42ED849C10186679ACB6","019d0653-b8b4-7b10-b26a-8c4fcceca7e6","019d0640-0a2d-7740-a972-9c73365b2dcb","","949","
                <div class=""stimulus-container"">
                    <img src=""images/semantic_sequence/maintaining_a_car_semantic/maintaining_a_car_semantic_4.png"" class=""exp-image"">
                    <div class=""question-area"">
                        <p style=""font-size: 20px; font-weight: bold; margin: 0;"">Is there a person in this image?</p>
                    </div>
                </div>","0","main_experiment_trial","4","maintaining_a_car_semantic","semantic_sequence","chronological","","","","","","",""
"","","","","","html-keyboard-response","109","383955","0.0-109.0","1D44DC911D8D42ED849C10186679ACB6","019d0653-b8b4-7b10-b26a-8c4fcceca7e6","019d0640-0a2d-7740-a972-9c73365b2dcb","","null","
                <div class=""stimulus-container"">
                    <img src=""images/semantic_sequence/maintaining_a_car_semantic/maintaining_a_car_semantic_5.png"" class=""exp-image"">
                    <div class=""question-area""></div> 
                </div>","null","","","","","","","","","","","",""
"","","","","","html-button-response","110","384842","0.0-110.0","1D44DC911D8D42ED849C10186679ACB6","019d0653-b8b4-7b10-b26a-8c4fcceca7e6","019d0640-0a2d-7740-a972-9c73365b2dcb","","887","
                <div class=""stimulus-container"">
                    <img src=""images/semantic_sequence/maintaining_a_car_semantic/maintaining_a_car_semantic_5.png"" class=""exp-image"">
                    <div class=""question-area"">
                        <p style=""font-size: 20px; font-weight: bold; margin: 0;"">Is there a person in this image?</p>
                    </div>
                </div>","0","main_experiment_trial","5","maintaining_a_car_semantic","semantic_sequence","chronological","","","","","","",""
"","","","","","html-keyboard-response","111","389856","0.0-111.0","1D44DC911D8D42ED849C10186679ACB6","019d0653-b8b4-7b10-b26a-8c4fcceca7e6","019d0640-0a2d-7740-a972-9c73365b2dcb","","null","
                <div class=""stimulus-container"">
                    <img src=""images/semantic_sequence/maintaining_a_car_semantic/maintaining_a_car_semantic_6.png"" class=""exp-image"">
                    <div class=""question-area""></div> 
                </div>","null","","","","","","","","","","","",""
"","","","","","html-button-response","112","390978","0.0-112.0","1D44DC911D8D42ED849C10186679ACB6","019d0653-b8b4-7b10-b26a-8c4fcceca7e6","019d0640-0a2d-7740-a972-9c73365b2dcb","","1120","
                <div class=""stimulus-container"">
                    <img src=""images/semantic_sequence/maintaining_a_car_semantic/maintaining_a_car_semantic_6.png"" class=""exp-image"">
                    <div class=""question-area"">
                        <p style=""font-size: 20px; font-weight: bold; margin: 0;"">Is there a person in this image?</p>
                    </div>
                </div>","0","main_experiment_trial","6","maintaining_a_car_semantic","semantic_sequence","chronological","","","","","","",""
"","","","","","html-keyboard-response","113","395994","0.0-113.0","1D44DC911D8D42ED849C10186679ACB6","019d0653-b8b4-7b10-b26a-8c4fcceca7e6","019d0640-0a2d-7740-a972-9c73365b2dcb","","null","
                <div class=""stimulus-container"">
                    <img src=""images/semantic_sequence/maintaining_a_car_semantic/maintaining_a_car_semantic_7.png"" class=""exp-image"">
                    <div class=""question-area""></div> 
                </div>","null","","","","","","","","","","","",""
"","","","","","html-button-response","114","398010","0.0-114.0","1D44DC911D8D42ED849C10186679ACB6","019d0653-b8b4-7b10-b26a-8c4fcceca7e6","019d0640-0a2d-7740-a972-9c73365b2dcb","","2015","
                <div class=""stimulus-container"">
                    <img src=""images/semantic_sequence/maintaining_a_car_semantic/maintaining_a_car_semantic_7.png"" class=""exp-image"">
                    <div class=""question-area"">
                        <p style=""font-size: 20px; font-weight: bold; margin: 0;"">Is there a person in this image?</p>
                    </div>
                </div>","0","main_experiment_trial","7","maintaining_a_car_semantic","semantic_sequence","chronological","","","","","","",""
"","","","","","html-keyboard-response","115","403024","0.0-115.0","1D44DC911D8D42ED849C10186679ACB6","019d0653-b8b4-7b10-b26a-8c4fcceca7e6","019d0640-0a2d-7740-a972-9c73365b2dcb","","null","
                <div class=""stimulus-container"">
                    <img src=""images/semantic_sequence/maintaining_a_car_semantic/maintaining_a_car_semantic_8.png"" class=""exp-image"">
                    <div class=""question-area""></div> 
                </div>","null","","","","","","","","","","","",""
"","","","","","html-button-response","116","404115","0.0-116.0","1D44DC911D8D42ED849C10186679ACB6","019d0653-b8b4-7b10-b26a-8c4fcceca7e6","019d0640-0a2d-7740-a972-9c73365b2dcb","","1090","
                <div class=""stimulus-container"">
                    <img src=""images/semantic_sequence/maintaining_a_car_semantic/maintaining_a_car_semantic_8.png"" class=""exp-image"">
                    <div class=""question-area"">
                        <p style=""font-size: 20px; font-weight: bold; margin: 0;"">Is there a person in this image?</p>
                    </div>
                </div>","0","main_experiment_trial","8","maintaining_a_car_semantic","semantic_sequence","chronological","","","","","","",""
"","","","","","html-keyboard-response","117","409118","0.0-117.0","1D44DC911D8D42ED849C10186679ACB6","019d0653-b8b4-7b10-b26a-8c4fcceca7e6","019d0640-0a2d-7740-a972-9c73365b2dcb","","null","
                <div class=""stimulus-container"">
                    <img src=""images/semantic_sequence/maintaining_a_car_semantic/maintaining_a_car_semantic_9.png"" class=""exp-image"">
                    <div class=""question-area""></div> 
                </div>","null","","","","","","","","","","","",""
"","","","","","html-button-response","118","412124","0.0-118.0","1D44DC911D8D42ED849C10186679ACB6","019d0653-b8b4-7b10-b26a-8c4fcceca7e6","019d0640-0a2d-7740-a972-9c73365b2dcb","","null","
                <div class=""stimulus-container"">
                    <img src=""images/semantic_sequence/maintaining_a_car_semantic/maintaining_a_car_semantic_9.png"" class=""exp-image"">
                    <div class=""question-area"">
                        <p style=""font-size: 20px; font-weight: bold; margin: 0;"">Is there a person in this image?</p>
                    </div>
                </div>","null","main_experiment_trial","9","maintaining_a_car_semantic","semantic_sequence","chronological","","","","","","",""
"","","","","","html-keyboard-response","119","417130","0.0-119.0","1D44DC911D8D42ED849C10186679ACB6","019d0653-b8b4-7b10-b26a-8c4fcceca7e6","019d0640-0a2d-7740-a972-9c73365b2dcb","","null","
                <div class=""stimulus-container"">
                    <img src=""images/semantic_sequence/maintaining_a_car_semantic/maintaining_a_car_semantic_ten.png"" class=""exp-image"">
                    <div class=""question-area""></div> 
                </div>","null","","","","","","","","","","","",""
"","","","","","html-button-response","120","418534","0.0-120.0","1D44DC911D8D42ED849C10186679ACB6","019d0653-b8b4-7b10-b26a-8c4fcceca7e6","019d0640-0a2d-7740-a972-9c73365b2dcb","","1403","
                <div class=""stimulus-container"">
                    <img src=""images/semantic_sequence/maintaining_a_car_semantic/maintaining_a_car_semantic_ten.png"" class=""exp-image"">
                    <div class=""question-area"">
                        <p style=""font-size: 20px; font-weight: bold; margin: 0;"">Is there a person in this image?</p>
                    </div>
                </div>","0","main_experiment_trial","ten","maintaining_a_car_semantic","semantic_sequence","chronological","","","","","","",""
"","","","","","html-keyboard-response","121","423549","0.0-121.0","1D44DC911D8D42ED849C10186679ACB6","019d0653-b8b4-7b10-b26a-8c4fcceca7e6","019d0640-0a2d-7740-a972-9c73365b2dcb","","null","<div style=""background-color: white; width: 100vw; height: 100vh;""></div>","null","","","","","","","","","","","",""
"","","","","","html-keyboard-response","122","428551","0.0-122.0","1D44DC911D8D42ED849C10186679ACB6","019d0653-b8b4-7b10-b26a-8c4fcceca7e6","019d0640-0a2d-7740-a972-9c73365b2dcb","","null","
                <div class=""stimulus-container"">
                    <img src=""images/semantic_sequence/physical_activity_semantic/physical_activity_semantic_1.png"" class=""exp-image"">
                    <div class=""question-area""></div> 
                </div>","null","","","","","","","","","","","",""
"","","","","","html-button-response","123","431557","0.0-123.0","1D44DC911D8D42ED849C10186679ACB6","019d0653-b8b4-7b10-b26a-8c4fcceca7e6","019d0640-0a2d-7740-a972-9c73365b2dcb","","null","
                <div class=""stimulus-container"">
                    <img src=""images/semantic_sequence/physical_activity_semantic/physical_activity_semantic_1.png"" class=""exp-image"">
                    <div class=""question-area"">
                        <p style=""font-size: 20px; font-weight: bold; margin: 0;"">Is there a person in this image?</p>
                    </div>
                </div>","null","main_experiment_trial","1","physical_activity_semantic","semantic_sequence","chronological","","","","","","",""
"","","","","","html-keyboard-response","124","436572","0.0-124.0","1D44DC911D8D42ED849C10186679ACB6","019d0653-b8b4-7b10-b26a-8c4fcceca7e6","019d0640-0a2d-7740-a972-9c73365b2dcb","","null","
                <div class=""stimulus-container"">
                    <img src=""images/semantic_sequence/physical_activity_semantic/physical_activity_semantic_2.png"" class=""exp-image"">
                    <div class=""question-area""></div> 
                </div>","null","","","","","","","","","","","",""
"","","","","","html-button-response","125","437529","0.0-125.0","1D44DC911D8D42ED849C10186679ACB6","019d0653-b8b4-7b10-b26a-8c4fcceca7e6","019d0640-0a2d-7740-a972-9c73365b2dcb","","955","
                <div class=""stimulus-container"">
                    <img src=""images/semantic_sequence/physical_activity_semantic/physical_activity_semantic_2.png"" class=""exp-image"">
                    <div class=""question-area"">
                        <p style=""font-size: 20px; font-weight: bold; margin: 0;"">Is there a person in this image?</p>
                    </div>
                </div>","0","main_experiment_trial","2","physical_activity_semantic","semantic_sequence","chronological","","","","","","",""
"","","","","","html-keyboard-response","126","442543","0.0-126.0","1D44DC911D8D42ED849C10186679ACB6","019d0653-b8b4-7b10-b26a-8c4fcceca7e6","019d0640-0a2d-7740-a972-9c73365b2dcb","","null","
                <div class=""stimulus-container"">
                    <img src=""images/semantic_sequence/physical_activity_semantic/physical_activity_semantic_3.png"" class=""exp-image"">
                    <div class=""question-area""></div> 
                </div>","null","","","","","","","","","","","",""
"","","","","","html-button-response","127","445128","0.0-127.0","1D44DC911D8D42ED849C10186679ACB6","019d0653-b8b4-7b10-b26a-8c4fcceca7e6","019d0640-0a2d-7740-a972-9c73365b2dcb","","2583","
                <div class=""stimulus-container"">
                    <img src=""images/semantic_sequence/physical_activity_semantic/physical_activity_semantic_3.png"" class=""exp-image"">
                    <div class=""question-area"">
                        <p style=""font-size: 20px; font-weight: bold; margin: 0;"">Is there a person in this image?</p>
                    </div>
                </div>","0","main_experiment_trial","3","physical_activity_semantic","semantic_sequence","chronological","","","","","","",""
"","","","","","html-keyboard-response","128","450130","0.0-128.0","1D44DC911D8D42ED849C10186679ACB6","019d0653-b8b4-7b10-b26a-8c4fcceca7e6","019d0640-0a2d-7740-a972-9c73365b2dcb","","null","
                <div class=""stimulus-container"">
                    <img src=""images/semantic_sequence/physical_activity_semantic/physical_activity_semantic_4.png"" class=""exp-image"">
                    <div class=""question-area""></div> 
                </div>","null","","","","","","","","","","","",""
"","","","","","html-button-response","129","453132","0.0-129.0","1D44DC911D8D42ED849C10186679ACB6","019d0653-b8b4-7b10-b26a-8c4fcceca7e6","019d0640-0a2d-7740-a972-9c73365b2dcb","","null","
                <div class=""stimulus-container"">
                    <img src=""images/semantic_sequence/physical_activity_semantic/physical_activity_semantic_4.png"" class=""exp-image"">
                    <div class=""question-area"">
                        <p style=""font-size: 20px; font-weight: bold; margin: 0;"">Is there a person in this image?</p>
                    </div>
                </div>","null","main_experiment_trial","4","physical_activity_semantic","semantic_sequence","chronological","","","","","","",""
"","","","","","html-keyboard-response","130","458142","0.0-130.0","1D44DC911D8D42ED849C10186679ACB6","019d0653-b8b4-7b10-b26a-8c4fcceca7e6","019d0640-0a2d-7740-a972-9c73365b2dcb","","null","
                <div class=""stimulus-container"">
                    <img src=""images/semantic_sequence/physical_activity_semantic/physical_activity_semantic_5.png"" class=""exp-image"">
                    <div class=""question-area""></div> 
                </div>","null","","","","","","","","","","","",""
"","","","","","html-button-response","131","459300","0.0-131.0","1D44DC911D8D42ED849C10186679ACB6","019d0653-b8b4-7b10-b26a-8c4fcceca7e6","019d0640-0a2d-7740-a972-9c73365b2dcb","","1157","
                <div class=""stimulus-container"">
                    <img src=""images/semantic_sequence/physical_activity_semantic/physical_activity_semantic_5.png"" class=""exp-image"">
                    <div class=""question-area"">
                        <p style=""font-size: 20px; font-weight: bold; margin: 0;"">Is there a person in this image?</p>
                    </div>
                </div>","0","main_experiment_trial","5","physical_activity_semantic","semantic_sequence","chronological","","","","","","",""
"","","","","","html-keyboard-response","132","464316","0.0-132.0","1D44DC911D8D42ED849C10186679ACB6","019d0653-b8b4-7b10-b26a-8c4fcceca7e6","019d0640-0a2d-7740-a972-9c73365b2dcb","","null","
                <div class=""stimulus-container"">
                    <img src=""images/semantic_sequence/physical_activity_semantic/physical_activity_semantic_6.png"" class=""exp-image"">
                    <div class=""question-area""></div> 
                </div>","null","","","","","","","","","","","",""
"","","","","","html-button-response","133","466763","0.0-133.0","1D44DC911D8D42ED849C10186679ACB6","019d0653-b8b4-7b10-b26a-8c4fcceca7e6","019d0640-0a2d-7740-a972-9c73365b2dcb","","2446","
                <div class=""stimulus-container"">
                    <img src=""images/semantic_sequence/physical_activity_semantic/physical_activity_semantic_6.png"" class=""exp-image"">
                    <div class=""question-area"">
                        <p style=""font-size: 20px; font-weight: bold; margin: 0;"">Is there a person in this image?</p>
                    </div>
                </div>","0","main_experiment_trial","6","physical_activity_semantic","semantic_sequence","chronological","","","","","","",""
"","","","","","html-keyboard-response","134","471779","0.0-134.0","1D44DC911D8D42ED849C10186679ACB6","019d0653-b8b4-7b10-b26a-8c4fcceca7e6","019d0640-0a2d-7740-a972-9c73365b2dcb","","null","
                <div class=""stimulus-container"">
                    <img src=""images/semantic_sequence/physical_activity_semantic/physical_activity_semantic_7.png"" class=""exp-image"">
                    <div class=""question-area""></div> 
                </div>","null","","","","","","","","","","","",""
"","","","","","html-button-response","135","472390","0.0-135.0","1D44DC911D8D42ED849C10186679ACB6","019d0653-b8b4-7b10-b26a-8c4fcceca7e6","019d0640-0a2d-7740-a972-9c73365b2dcb","","610","
                <div class=""stimulus-container"">
                    <img src=""images/semantic_sequence/physical_activity_semantic/physical_activity_semantic_7.png"" class=""exp-image"">
                    <div class=""question-area"">
                        <p style=""font-size: 20px; font-weight: bold; margin: 0;"">Is there a person in this image?</p>
                    </div>
                </div>","0","main_experiment_trial","7","physical_activity_semantic","semantic_sequence","chronological","","","","","","",""
"","","","","","html-keyboard-response","136","477394","0.0-136.0","1D44DC911D8D42ED849C10186679ACB6","019d0653-b8b4-7b10-b26a-8c4fcceca7e6","019d0640-0a2d-7740-a972-9c73365b2dcb","","null","
                <div class=""stimulus-container"">
                    <img src=""images/semantic_sequence/physical_activity_semantic/physical_activity_semantic_8.png"" class=""exp-image"">
                    <div class=""question-area""></div> 
                </div>","null","","","","","","","","","","","",""
"","","","","","html-button-response","137","478140","0.0-137.0","1D44DC911D8D42ED849C10186679ACB6","019d0653-b8b4-7b10-b26a-8c4fcceca7e6","019d0640-0a2d-7740-a972-9c73365b2dcb","","744","
                <div class=""stimulus-container"">
                    <img src=""images/semantic_sequence/physical_activity_semantic/physical_activity_semantic_8.png"" class=""exp-image"">
                    <div class=""question-area"">
                        <p style=""font-size: 20px; font-weight: bold; margin: 0;"">Is there a person in this image?</p>
                    </div>
                </div>","0","main_experiment_trial","8","physical_activity_semantic","semantic_sequence","chronological","","","","","","",""
"","","","","","html-keyboard-response","138","483155","0.0-138.0","1D44DC911D8D42ED849C10186679ACB6","019d0653-b8b4-7b10-b26a-8c4fcceca7e6","019d0640-0a2d-7740-a972-9c73365b2dcb","","null","
                <div class=""stimulus-container"">
                    <img src=""images/semantic_sequence/physical_activity_semantic/physical_activity_semantic_9.png"" class=""exp-image"">
                    <div class=""question-area""></div> 
                </div>","null","","","","","","","","","","","",""
"","","","","","html-button-response","139","484609","0.0-139.0","1D44DC911D8D42ED849C10186679ACB6","019d0653-b8b4-7b10-b26a-8c4fcceca7e6","019d0640-0a2d-7740-a972-9c73365b2dcb","","1453","
                <div class=""stimulus-container"">
                    <img src=""images/semantic_sequence/physical_activity_semantic/physical_activity_semantic_9.png"" class=""exp-image"">
                    <div class=""question-area"">
                        <p style=""font-size: 20px; font-weight: bold; margin: 0;"">Is there a person in this image?</p>
                    </div>
                </div>","0","main_experiment_trial","9","physical_activity_semantic","semantic_sequence","chronological","","","","","","",""
"","","","","","html-keyboard-response","140","489623","0.0-140.0","1D44DC911D8D42ED849C10186679ACB6","019d0653-b8b4-7b10-b26a-8c4fcceca7e6","019d0640-0a2d-7740-a972-9c73365b2dcb","","null","
                <div class=""stimulus-container"">
                    <img src=""images/semantic_sequence/physical_activity_semantic/physical_activity_semantic_ten.png"" class=""exp-image"">
                    <div class=""question-area""></div> 
                </div>","null","","","","","","","","","","","",""
"","","","","","html-button-response","141","491449","0.0-141.0","1D44DC911D8D42ED849C10186679ACB6","019d0653-b8b4-7b10-b26a-8c4fcceca7e6","019d0640-0a2d-7740-a972-9c73365b2dcb","","1825","
                <div class=""stimulus-container"">
                    <img src=""images/semantic_sequence/physical_activity_semantic/physical_activity_semantic_ten.png"" class=""exp-image"">
                    <div class=""question-area"">
                        <p style=""font-size: 20px; font-weight: bold; margin: 0;"">Is there a person in this image?</p>
                    </div>
                </div>","0","main_experiment_trial","ten","physical_activity_semantic","semantic_sequence","chronological","","","","","","",""
"","","","","","html-keyboard-response","142","496464","0.0-142.0","1D44DC911D8D42ED849C10186679ACB6","019d0653-b8b4-7b10-b26a-8c4fcceca7e6","019d0640-0a2d-7740-a972-9c73365b2dcb","","null","<div style=""background-color: white; width: 100vw; height: 100vh;""></div>","null","","","","","","","","","","","",""
"","","","","","html-keyboard-response","143","501478","0.0-143.0","1D44DC911D8D42ED849C10186679ACB6","019d0653-b8b4-7b10-b26a-8c4fcceca7e6","019d0640-0a2d-7740-a972-9c73365b2dcb","","null","
                <div class=""stimulus-container"">
                    <img src=""images/semantic_sequence/self_care_activities_semantic/self_care_activities_semantic_1.png"" class=""exp-image"">
                    <div class=""question-area""></div> 
                </div>","null","","","","","","","","","","","",""
"","","","","","html-button-response","144","504493","0.0-144.0","1D44DC911D8D42ED849C10186679ACB6","019d0653-b8b4-7b10-b26a-8c4fcceca7e6","019d0640-0a2d-7740-a972-9c73365b2dcb","","null","
                <div class=""stimulus-container"">
                    <img src=""images/semantic_sequence/self_care_activities_semantic/self_care_activities_semantic_1.png"" class=""exp-image"">
                    <div class=""question-area"">
                        <p style=""font-size: 20px; font-weight: bold; margin: 0;"">Is there a person in this image?</p>
                    </div>
                </div>","null","main_experiment_trial","1","self_care_activities_semantic","semantic_sequence","chronological","","","","","","",""
"","","","","","html-keyboard-response","145","509504","0.0-145.0","1D44DC911D8D42ED849C10186679ACB6","019d0653-b8b4-7b10-b26a-8c4fcceca7e6","019d0640-0a2d-7740-a972-9c73365b2dcb","","null","
                <div class=""stimulus-container"">
                    <img src=""images/semantic_sequence/self_care_activities_semantic/self_care_activities_semantic_2.png"" class=""exp-image"">
                    <div class=""question-area""></div> 
                </div>","null","","","","","","","","","","","",""
"","","","","","html-button-response","146","510769","0.0-146.0","1D44DC911D8D42ED849C10186679ACB6","019d0653-b8b4-7b10-b26a-8c4fcceca7e6","019d0640-0a2d-7740-a972-9c73365b2dcb","","1265","
                <div class=""stimulus-container"">
                    <img src=""images/semantic_sequence/self_care_activities_semantic/self_care_activities_semantic_2.png"" class=""exp-image"">
                    <div class=""question-area"">
                        <p style=""font-size: 20px; font-weight: bold; margin: 0;"">Is there a person in this image?</p>
                    </div>
                </div>","0","main_experiment_trial","2","self_care_activities_semantic","semantic_sequence","chronological","","","","","","",""
"","","","","","html-keyboard-response","147","515785","0.0-147.0","1D44DC911D8D42ED849C10186679ACB6","019d0653-b8b4-7b10-b26a-8c4fcceca7e6","019d0640-0a2d-7740-a972-9c73365b2dcb","","null","
                <div class=""stimulus-container"">
                    <img src=""images/semantic_sequence/self_care_activities_semantic/self_care_activities_semantic_3.png"" class=""exp-image"">
                    <div class=""question-area""></div> 
                </div>","null","","","","","","","","","","","",""
"","","","","","html-button-response","148","517238","0.0-148.0","1D44DC911D8D42ED849C10186679ACB6","019d0653-b8b4-7b10-b26a-8c4fcceca7e6","019d0640-0a2d-7740-a972-9c73365b2dcb","","1451","
                <div class=""stimulus-container"">
                    <img src=""images/semantic_sequence/self_care_activities_semantic/self_care_activities_semantic_3.png"" class=""exp-image"">
                    <div class=""question-area"">
                        <p style=""font-size: 20px; font-weight: bold; margin: 0;"">Is there a person in this image?</p>
                    </div>
                </div>","0","main_experiment_trial","3","self_care_activities_semantic","semantic_sequence","chronological","","","","","","",""
"","","","","","html-keyboard-response","149","522254","0.0-149.0","1D44DC911D8D42ED849C10186679ACB6","019d0653-b8b4-7b10-b26a-8c4fcceca7e6","019d0640-0a2d-7740-a972-9c73365b2dcb","","null","
                <div class=""stimulus-container"">
                    <img src=""images/semantic_sequence/self_care_activities_semantic/self_care_activities_semantic_4.png"" class=""exp-image"">
                    <div class=""question-area""></div> 
                </div>","null","","","","","","","","","","","",""
"","","","","","html-button-response","150","524047","0.0-150.0","1D44DC911D8D42ED849C10186679ACB6","019d0653-b8b4-7b10-b26a-8c4fcceca7e6","019d0640-0a2d-7740-a972-9c73365b2dcb","","1792","
                <div class=""stimulus-container"">
                    <img src=""images/semantic_sequence/self_care_activities_semantic/self_care_activities_semantic_4.png"" class=""exp-image"">
                    <div class=""question-area"">
                        <p style=""font-size: 20px; font-weight: bold; margin: 0;"">Is there a person in this image?</p>
                    </div>
                </div>","0","main_experiment_trial","4","self_care_activities_semantic","semantic_sequence","chronological","","","","","","",""
"","","","","","html-keyboard-response","151","529049","0.0-151.0","1D44DC911D8D42ED849C10186679ACB6","019d0653-b8b4-7b10-b26a-8c4fcceca7e6","019d0640-0a2d-7740-a972-9c73365b2dcb","","null","
                <div class=""stimulus-container"">
                    <img src=""images/semantic_sequence/self_care_activities_semantic/self_care_activities_semantic_5.png"" class=""exp-image"">
                    <div class=""question-area""></div> 
                </div>","null","","","","","","","","","","","",""
"","","","","","html-button-response","152","529924","0.0-152.0","1D44DC911D8D42ED849C10186679ACB6","019d0653-b8b4-7b10-b26a-8c4fcceca7e6","019d0640-0a2d-7740-a972-9c73365b2dcb","","874","
                <div class=""stimulus-container"">
                    <img src=""images/semantic_sequence/self_care_activities_semantic/self_care_activities_semantic_5.png"" class=""exp-image"">
                    <div class=""question-area"">
                        <p style=""font-size: 20px; font-weight: bold; margin: 0;"">Is there a person in this image?</p>
                    </div>
                </div>","0","main_experiment_trial","5","self_care_activities_semantic","semantic_sequence","chronological","","","","","","",""
"","","","","","html-keyboard-response","153","534940","0.0-153.0","1D44DC911D8D42ED849C10186679ACB6","019d0653-b8b4-7b10-b26a-8c4fcceca7e6","019d0640-0a2d-7740-a972-9c73365b2dcb","","null","
                <div class=""stimulus-container"">
                    <img src=""images/semantic_sequence/self_care_activities_semantic/self_care_activities_semantic_6.png"" class=""exp-image"">
                    <div class=""question-area""></div> 
                </div>","null","","","","","","","","","","","",""
"","","","","","html-button-response","154","535488","0.0-154.0","1D44DC911D8D42ED849C10186679ACB6","019d0653-b8b4-7b10-b26a-8c4fcceca7e6","019d0640-0a2d-7740-a972-9c73365b2dcb","","547","
                <div class=""stimulus-container"">
                    <img src=""images/semantic_sequence/self_care_activities_semantic/self_care_activities_semantic_6.png"" class=""exp-image"">
                    <div class=""question-area"">
                        <p style=""font-size: 20px; font-weight: bold; margin: 0;"">Is there a person in this image?</p>
                    </div>
                </div>","1","main_experiment_trial","6","self_care_activities_semantic","semantic_sequence","chronological","","","","","","",""
"","","","","","html-keyboard-response","155","540504","0.0-155.0","1D44DC911D8D42ED849C10186679ACB6","019d0653-b8b4-7b10-b26a-8c4fcceca7e6","019d0640-0a2d-7740-a972-9c73365b2dcb","","null","
                <div class=""stimulus-container"">
                    <img src=""images/semantic_sequence/self_care_activities_semantic/self_care_activities_semantic_7.png"" class=""exp-image"">
                    <div class=""question-area""></div> 
                </div>","null","","","","","","","","","","","",""
"","","","","","html-button-response","156","540947","0.0-156.0","1D44DC911D8D42ED849C10186679ACB6","019d0653-b8b4-7b10-b26a-8c4fcceca7e6","019d0640-0a2d-7740-a972-9c73365b2dcb","","442","
                <div class=""stimulus-container"">
                    <img src=""images/semantic_sequence/self_care_activities_semantic/self_care_activities_semantic_7.png"" class=""exp-image"">
                    <div class=""question-area"">
                        <p style=""font-size: 20px; font-weight: bold; margin: 0;"">Is there a person in this image?</p>
                    </div>
                </div>","0","main_experiment_trial","7","self_care_activities_semantic","semantic_sequence","chronological","","","","","","",""
"","","","","","html-keyboard-response","157","545959","0.0-157.0","1D44DC911D8D42ED849C10186679ACB6","019d0653-b8b4-7b10-b26a-8c4fcceca7e6","019d0640-0a2d-7740-a972-9c73365b2dcb","","null","
                <div class=""stimulus-container"">
                    <img src=""images/semantic_sequence/self_care_activities_semantic/self_care_activities_semantic_8.png"" class=""exp-image"">
                    <div class=""question-area""></div> 
                </div>","null","","","","","","","","","","","",""
"","","","","","html-button-response","158","546778","0.0-158.0","1D44DC911D8D42ED849C10186679ACB6","019d0653-b8b4-7b10-b26a-8c4fcceca7e6","019d0640-0a2d-7740-a972-9c73365b2dcb","","818","
                <div class=""stimulus-container"">
                    <img src=""images/semantic_sequence/self_care_activities_semantic/self_care_activities_semantic_8.png"" class=""exp-image"">
                    <div class=""question-area"">
                        <p style=""font-size: 20px; font-weight: bold; margin: 0;"">Is there a person in this image?</p>
                    </div>
                </div>","0","main_experiment_trial","8","self_care_activities_semantic","semantic_sequence","chronological","","","","","","",""
"","","","","","html-keyboard-response","159","551788","0.0-159.0","1D44DC911D8D42ED849C10186679ACB6","019d0653-b8b4-7b10-b26a-8c4fcceca7e6","019d0640-0a2d-7740-a972-9c73365b2dcb","","null","
                <div class=""stimulus-container"">
                    <img src=""images/semantic_sequence/self_care_activities_semantic/self_care_activities_semantic_9.png"" class=""exp-image"">
                    <div class=""question-area""></div> 
                </div>","null","","","","","","","","","","","",""
"","","","","","html-button-response","160","554792","0.0-160.0","1D44DC911D8D42ED849C10186679ACB6","019d0653-b8b4-7b10-b26a-8c4fcceca7e6","019d0640-0a2d-7740-a972-9c73365b2dcb","","null","
                <div class=""stimulus-container"">
                    <img src=""images/semantic_sequence/self_care_activities_semantic/self_care_activities_semantic_9.png"" class=""exp-image"">
                    <div class=""question-area"">
                        <p style=""font-size: 20px; font-weight: bold; margin: 0;"">Is there a person in this image?</p>
                    </div>
                </div>","null","main_experiment_trial","9","self_care_activities_semantic","semantic_sequence","chronological","","","","","","",""
"","","","","","html-keyboard-response","161","559795","0.0-161.0","1D44DC911D8D42ED849C10186679ACB6","019d0653-b8b4-7b10-b26a-8c4fcceca7e6","019d0640-0a2d-7740-a972-9c73365b2dcb","","null","
                <div class=""stimulus-container"">
                    <img src=""images/semantic_sequence/self_care_activities_semantic/self_care_activities_semantic_ten.png"" class=""exp-image"">
                    <div class=""question-area""></div> 
                </div>","null","","","","","","","","","","","",""
"","","","","","html-button-response","162","561328","0.0-162.0","1D44DC911D8D42ED849C10186679ACB6","019d0653-b8b4-7b10-b26a-8c4fcceca7e6","019d0640-0a2d-7740-a972-9c73365b2dcb","","1532","
                <div class=""stimulus-container"">
                    <img src=""images/semantic_sequence/self_care_activities_semantic/self_care_activities_semantic_ten.png"" class=""exp-image"">
                    <div class=""question-area"">
                        <p style=""font-size: 20px; font-weight: bold; margin: 0;"">Is there a person in this image?</p>
                    </div>
                </div>","0","main_experiment_trial","ten","self_care_activities_semantic","semantic_sequence","chronological","","","","","","",""
"","","","","","html-keyboard-response","163","566342","0.0-163.0","1D44DC911D8D42ED849C10186679ACB6","019d0653-b8b4-7b10-b26a-8c4fcceca7e6","019d0640-0a2d-7740-a972-9c73365b2dcb","","null","<div style=""background-color: white; width: 100vw; height: 100vh;""></div>","null","","","","","","","","","","","",""
"","","","","","html-keyboard-response","164","571343","0.0-164.0","1D44DC911D8D42ED849C10186679ACB6","019d0653-b8b4-7b10-b26a-8c4fcceca7e6","019d0640-0a2d-7740-a972-9c73365b2dcb","","null","
                <div class=""stimulus-container"">
                    <img src=""images/causal_sequence/saving_a_cat_causal/saving_a_cat_causal_1.png"" class=""exp-image"">
                    <div class=""question-area""></div> 
                </div>","null","","","","","","","","","","","",""
"","","","","","html-button-response","165","571936","0.0-165.0","1D44DC911D8D42ED849C10186679ACB6","019d0653-b8b4-7b10-b26a-8c4fcceca7e6","019d0640-0a2d-7740-a972-9c73365b2dcb","","592","
                <div class=""stimulus-container"">
                    <img src=""images/causal_sequence/saving_a_cat_causal/saving_a_cat_causal_1.png"" class=""exp-image"">
                    <div class=""question-area"">
                        <p style=""font-size: 20px; font-weight: bold; margin: 0;"">Is there a person in this image?</p>
                    </div>
                </div>","0","main_experiment_trial","1","saving_a_cat_causal","causal_sequence","chronological","","","","","","",""
"","","","","","html-keyboard-response","166","576951","0.0-166.0","1D44DC911D8D42ED849C10186679ACB6","019d0653-b8b4-7b10-b26a-8c4fcceca7e6","019d0640-0a2d-7740-a972-9c73365b2dcb","","null","
                <div class=""stimulus-container"">
                    <img src=""images/causal_sequence/saving_a_cat_causal/saving_a_cat_causal_2.png"" class=""exp-image"">
                    <div class=""question-area""></div> 
                </div>","null","","","","","","","","","","","",""
"","","","","","html-button-response","167","577580","0.0-167.0","1D44DC911D8D42ED849C10186679ACB6","019d0653-b8b4-7b10-b26a-8c4fcceca7e6","019d0640-0a2d-7740-a972-9c73365b2dcb","","627","
                <div class=""stimulus-container"">
                    <img src=""images/causal_sequence/saving_a_cat_causal/saving_a_cat_causal_2.png"" class=""exp-image"">
                    <div class=""question-area"">
                        <p style=""font-size: 20px; font-weight: bold; margin: 0;"">Is there a person in this image?</p>
                    </div>
                </div>","1","main_experiment_trial","2","saving_a_cat_causal","causal_sequence","chronological","","","","","","",""
"","","","","","html-keyboard-response","168","582596","0.0-168.0","1D44DC911D8D42ED849C10186679ACB6","019d0653-b8b4-7b10-b26a-8c4fcceca7e6","019d0640-0a2d-7740-a972-9c73365b2dcb","","null","
                <div class=""stimulus-container"">
                    <img src=""images/causal_sequence/saving_a_cat_causal/saving_a_cat_causal_3.png"" class=""exp-image"">
                    <div class=""question-area""></div> 
                </div>","null","","","","","","","","","","","",""
"","","","","","html-button-response","169","583047","0.0-169.0","1D44DC911D8D42ED849C10186679ACB6","019d0653-b8b4-7b10-b26a-8c4fcceca7e6","019d0640-0a2d-7740-a972-9c73365b2dcb","","450","
                <div class=""stimulus-container"">
                    <img src=""images/causal_sequence/saving_a_cat_causal/saving_a_cat_causal_3.png"" class=""exp-image"">
                    <div class=""question-area"">
                        <p style=""font-size: 20px; font-weight: bold; margin: 0;"">Is there a person in this image?</p>
                    </div>
                </div>","1","main_experiment_trial","3","saving_a_cat_causal","causal_sequence","chronological","","","","","","",""
"","","","","","html-keyboard-response","170","588051","0.0-170.0","1D44DC911D8D42ED849C10186679ACB6","019d0653-b8b4-7b10-b26a-8c4fcceca7e6","019d0640-0a2d-7740-a972-9c73365b2dcb","","null","
                <div class=""stimulus-container"">
                    <img src=""images/causal_sequence/saving_a_cat_causal/saving_a_cat_causal_4.png"" class=""exp-image"">
                    <div class=""question-area""></div> 
                </div>","null","","","","","","","","","","","",""
"","","","","","html-button-response","171","588806","0.0-171.0","1D44DC911D8D42ED849C10186679ACB6","019d0653-b8b4-7b10-b26a-8c4fcceca7e6","019d0640-0a2d-7740-a972-9c73365b2dcb","","754","
                <div class=""stimulus-container"">
                    <img src=""images/causal_sequence/saving_a_cat_causal/saving_a_cat_causal_4.png"" class=""exp-image"">
                    <div class=""question-area"">
                        <p style=""font-size: 20px; font-weight: bold; margin: 0;"">Is there a person in this image?</p>
                    </div>
                </div>","0","main_experiment_trial","4","saving_a_cat_causal","causal_sequence","chronological","","","","","","",""
"","","","","","html-keyboard-response","172","593810","0.0-172.0","1D44DC911D8D42ED849C10186679ACB6","019d0653-b8b4-7b10-b26a-8c4fcceca7e6","019d0640-0a2d-7740-a972-9c73365b2dcb","","null","
                <div class=""stimulus-container"">
                    <img src=""images/causal_sequence/saving_a_cat_causal/saving_a_cat_causal_5.png"" class=""exp-image"">
                    <div class=""question-area""></div> 
                </div>","null","","","","","","","","","","","",""
"","","","","","html-button-response","173","594332","0.0-173.0","1D44DC911D8D42ED849C10186679ACB6","019d0653-b8b4-7b10-b26a-8c4fcceca7e6","019d0640-0a2d-7740-a972-9c73365b2dcb","","520","
                <div class=""stimulus-container"">
                    <img src=""images/causal_sequence/saving_a_cat_causal/saving_a_cat_causal_5.png"" class=""exp-image"">
                    <div class=""question-area"">
                        <p style=""font-size: 20px; font-weight: bold; margin: 0;"">Is there a person in this image?</p>
                    </div>
                </div>","0","main_experiment_trial","5","saving_a_cat_causal","causal_sequence","chronological","","","","","","",""
"","","","","","html-keyboard-response","174","599338","0.0-174.0","1D44DC911D8D42ED849C10186679ACB6","019d0653-b8b4-7b10-b26a-8c4fcceca7e6","019d0640-0a2d-7740-a972-9c73365b2dcb","","null","
                <div class=""stimulus-container"">
