"success","timeout","failed_images","failed_audio","failed_video","trial_type","trial_index","time_elapsed","internal_node_id","subject_id","study_id","session_id","view_history","rt","stimulus","response","task","image_index","folder","sequence_type","valuable_image_index","reward_type","chosen_image_index","target_X","correct_choice"
"true","false","[]","[]","[]","preload","0","9806","0.0-0.0","BE3906B26BB84198891AE3E9257E9E9E","019cf813-fde6-78b7-8a80-1f2ded4eb690","019cf80d-4266-7117-8a51-54e13c84aca4","","","","","","","","","","","","",""
"","","","","","instructions","1","11950","0.0-1.0","BE3906B26BB84198891AE3E9257E9E9E","019cf813-fde6-78b7-8a80-1f2ded4eb690","019cf80d-4266-7117-8a51-54e13c84aca4","[{""page_index"":0,""viewing_time"":2142}]","2142","","","","","","","","","","",""
"","","","","","instructions","2","14258","0.0-2.0","BE3906B26BB84198891AE3E9257E9E9E","019cf813-fde6-78b7-8a80-1f2ded4eb690","019cf80d-4266-7117-8a51-54e13c84aca4","[{""page_index"":0,""viewing_time"":2306}]","2306","","","","","","","","","","",""
"true","","","","","fullscreen","3","16415","0.0-3.0","BE3906B26BB84198891AE3E9257E9E9E","019cf813-fde6-78b7-8a80-1f2ded4eb690","019cf80d-4266-7117-8a51-54e13c84aca4","","1146","","","","","","","","","","",""
"","","","","","instructions","4","20088","0.0-4.0","BE3906B26BB84198891AE3E9257E9E9E","019cf813-fde6-78b7-8a80-1f2ded4eb690","019cf80d-4266-7117-8a51-54e13c84aca4","[{""page_index"":0,""viewing_time"":3671}]","3672","","","","","","","","","","",""
"","","","","","instructions","5","25618","0.0-5.0","BE3906B26BB84198891AE3E9257E9E9E","019cf813-fde6-78b7-8a80-1f2ded4eb690","019cf80d-4266-7117-8a51-54e13c84aca4","[{""page_index"":0,""viewing_time"":5529}]","5529","","","","","","","","","","",""
"","","","","","html-keyboard-response","6","29635","0.0-6.0","BE3906B26BB84198891AE3E9257E9E9E","019cf813-fde6-78b7-8a80-1f2ded4eb690","019cf80d-4266-7117-8a51-54e13c84aca4","","null","
                <div class=""stimulus-container"">
                    <img src=""images/instructions/movie_1.png"" class=""exp-image"">
                    <div class=""question-area""></div> 
                </div>","null","","","","","","","","",""
"","","","","","html-button-response","7","31147","0.0-7.0","BE3906B26BB84198891AE3E9257E9E9E","019cf813-fde6-78b7-8a80-1f2ded4eb690","019cf80d-4266-7117-8a51-54e13c84aca4","","1509","
                <div class=""stimulus-container"">
                    <img src=""images/instructions/movie_1.png"" class=""exp-image"">
                    <div class=""question-area"">
                        <p style=""font-size: 20px; font-weight: bold; margin: 0;"">Was there a person in this image?</p>
                    </div>
                </div>","0","example_question","1","","","","","","",""
"","","","","","html-keyboard-response","8","35151","0.0-8.0","BE3906B26BB84198891AE3E9257E9E9E","019cf813-fde6-78b7-8a80-1f2ded4eb690","019cf80d-4266-7117-8a51-54e13c84aca4","","null","
                <div class=""stimulus-container"">
                    <img src=""images/instructions/movie_2.png"" class=""exp-image"">
                    <div class=""question-area""></div> 
                </div>","null","","","","","","","","",""
"","","","","","html-button-response","9","36254","0.0-9.0","BE3906B26BB84198891AE3E9257E9E9E","019cf813-fde6-78b7-8a80-1f2ded4eb690","019cf80d-4266-7117-8a51-54e13c84aca4","","1100","
                <div class=""stimulus-container"">
                    <img src=""images/instructions/movie_2.png"" class=""exp-image"">
                    <div class=""question-area"">
                        <p style=""font-size: 20px; font-weight: bold; margin: 0;"">Was there a person in this image?</p>
                    </div>
                </div>","1","example_question","2","","","","","","",""
"","","","","","html-keyboard-response","10","40264","0.0-10.0","BE3906B26BB84198891AE3E9257E9E9E","019cf813-fde6-78b7-8a80-1f2ded4eb690","019cf80d-4266-7117-8a51-54e13c84aca4","","null","
                <div class=""stimulus-container"">
                    <img src=""images/instructions/movie_3.png"" class=""exp-image"">
                    <div class=""question-area""></div> 
                </div>","null","","","","","","","","",""
"","","","","","html-button-response","11","41046","0.0-11.0","BE3906B26BB84198891AE3E9257E9E9E","019cf813-fde6-78b7-8a80-1f2ded4eb690","019cf80d-4266-7117-8a51-54e13c84aca4","","781","
                <div class=""stimulus-container"">
                    <img src=""images/instructions/movie_3.png"" class=""exp-image"">
                    <div class=""question-area"">
                        <p style=""font-size: 20px; font-weight: bold; margin: 0;"">Was there a person in this image?</p>
                    </div>
                </div>","0","example_question","3","","","","","","",""
"","","","","","html-keyboard-response","12","45057","0.0-12.0","BE3906B26BB84198891AE3E9257E9E9E","019cf813-fde6-78b7-8a80-1f2ded4eb690","019cf80d-4266-7117-8a51-54e13c84aca4","","null","
                <div class=""stimulus-container"">
                    <img src=""images/instructions/movie_4.png"" class=""exp-image"">
                    <div class=""question-area""></div> 
                </div>","null","","","","","","","","",""
"","","","","","html-button-response","13","48064","0.0-13.0","BE3906B26BB84198891AE3E9257E9E9E","019cf813-fde6-78b7-8a80-1f2ded4eb690","019cf80d-4266-7117-8a51-54e13c84aca4","","null","
                <div class=""stimulus-container"">
                    <img src=""images/instructions/movie_4.png"" class=""exp-image"">
                    <div class=""question-area"">
                        <p style=""font-size: 20px; font-weight: bold; margin: 0;"">Was there a person in this image?</p>
                    </div>
                </div>","null","example_question","4","","","","","","",""
"","","","","","instructions","14","50468","0.0-14.0","BE3906B26BB84198891AE3E9257E9E9E","019cf813-fde6-78b7-8a80-1f2ded4eb690","019cf80d-4266-7117-8a51-54e13c84aca4","[{""page_index"":0,""viewing_time"":2403}]","2404","","","","","","","","","","",""
"","","","","","instructions","15","59059","0.0-15.0","BE3906B26BB84198891AE3E9257E9E9E","019cf813-fde6-78b7-8a80-1f2ded4eb690","019cf80d-4266-7117-8a51-54e13c84aca4","[{""page_index"":0,""viewing_time"":8589}]","8590","","","","","","","","","","",""
"","","","","","html-keyboard-response","16","60066","0.0-16.0","BE3906B26BB84198891AE3E9257E9E9E","019cf813-fde6-78b7-8a80-1f2ded4eb690","019cf80d-4266-7117-8a51-54e13c84aca4","","null","<div style=""background-color: white; width: 100vw; height: 100vh;""></div>","null","","","","","","","","",""
"","","","","","html-keyboard-response","17","65075","0.0-17.0","BE3906B26BB84198891AE3E9257E9E9E","019cf813-fde6-78b7-8a80-1f2ded4eb690","019cf80d-4266-7117-8a51-54e13c84aca4","","null","
                <div class=""stimulus-container"">
                    <img src=""images/semantic_sequence/redecorating_a_house_semantic/redecorating_a_house_semantic_1.png"" class=""exp-image"">
                    <div class=""question-area""></div> 
                </div>","null","","","","","","","","",""
"","","","","","html-button-response","18","65901","0.0-18.0","BE3906B26BB84198891AE3E9257E9E9E","019cf813-fde6-78b7-8a80-1f2ded4eb690","019cf80d-4266-7117-8a51-54e13c84aca4","","823","
                <div class=""stimulus-container"">
                    <img src=""images/semantic_sequence/redecorating_a_house_semantic/redecorating_a_house_semantic_1.png"" class=""exp-image"">
                    <div class=""question-area"">
                        <p style=""font-size: 20px; font-weight: bold; margin: 0;"">Is there a person in this image?</p>
                    </div>
                </div>","0","main_experiment_trial","1","redecorating_a_house_semantic","semantic_sequence","","","","",""
"","","","","","html-keyboard-response","19","70915","0.0-19.0","BE3906B26BB84198891AE3E9257E9E9E","019cf813-fde6-78b7-8a80-1f2ded4eb690","019cf80d-4266-7117-8a51-54e13c84aca4","","null","
                <div class=""stimulus-container"">
                    <img src=""images/semantic_sequence/redecorating_a_house_semantic/redecorating_a_house_semantic_2.png"" class=""exp-image"">
                    <div class=""question-area""></div> 
                </div>","null","","","","","","","","",""
"","","","","","html-button-response","20","71664","0.0-20.0","BE3906B26BB84198891AE3E9257E9E9E","019cf813-fde6-78b7-8a80-1f2ded4eb690","019cf80d-4266-7117-8a51-54e13c84aca4","","748","
                <div class=""stimulus-container"">
                    <img src=""images/semantic_sequence/redecorating_a_house_semantic/redecorating_a_house_semantic_2.png"" class=""exp-image"">
                    <div class=""question-area"">
                        <p style=""font-size: 20px; font-weight: bold; margin: 0;"">Is there a person in this image?</p>
                    </div>
                </div>","0","main_experiment_trial","2","redecorating_a_house_semantic","semantic_sequence","","","","",""
"","","","","","html-keyboard-response","21","76677","0.0-21.0","BE3906B26BB84198891AE3E9257E9E9E","019cf813-fde6-78b7-8a80-1f2ded4eb690","019cf80d-4266-7117-8a51-54e13c84aca4","","null","
                <div class=""stimulus-container"">
                    <img src=""images/semantic_sequence/redecorating_a_house_semantic/redecorating_a_house_semantic_3.png"" class=""exp-image"">
                    <div class=""question-area""></div> 
                </div>","null","","","","","","","","",""
"","","","","","html-button-response","22","77226","0.0-22.0","BE3906B26BB84198891AE3E9257E9E9E","019cf813-fde6-78b7-8a80-1f2ded4eb690","019cf80d-4266-7117-8a51-54e13c84aca4","","548","
                <div class=""stimulus-container"">
                    <img src=""images/semantic_sequence/redecorating_a_house_semantic/redecorating_a_house_semantic_3.png"" class=""exp-image"">
                    <div class=""question-area"">
                        <p style=""font-size: 20px; font-weight: bold; margin: 0;"">Is there a person in this image?</p>
                    </div>
                </div>","0","main_experiment_trial","3","redecorating_a_house_semantic","semantic_sequence","","","","",""
"","","","","","html-keyboard-response","23","82237","0.0-23.0","BE3906B26BB84198891AE3E9257E9E9E","019cf813-fde6-78b7-8a80-1f2ded4eb690","019cf80d-4266-7117-8a51-54e13c84aca4","","null","
                <div class=""stimulus-container"">
                    <img src=""images/semantic_sequence/redecorating_a_house_semantic/redecorating_a_house_semantic_4.png"" class=""exp-image"">
                    <div class=""question-area""></div> 
                </div>","null","","","","","","","","",""
"","","","","","html-button-response","24","82700","0.0-24.0","BE3906B26BB84198891AE3E9257E9E9E","019cf813-fde6-78b7-8a80-1f2ded4eb690","019cf80d-4266-7117-8a51-54e13c84aca4","","461","
                <div class=""stimulus-container"">
                    <img src=""images/semantic_sequence/redecorating_a_house_semantic/redecorating_a_house_semantic_4.png"" class=""exp-image"">
                    <div class=""question-area"">
                        <p style=""font-size: 20px; font-weight: bold; margin: 0;"">Is there a person in this image?</p>
                    </div>
                </div>","0","main_experiment_trial","4","redecorating_a_house_semantic","semantic_sequence","","","","",""
"","","","","","html-keyboard-response","25","87714","0.0-25.0","BE3906B26BB84198891AE3E9257E9E9E","019cf813-fde6-78b7-8a80-1f2ded4eb690","019cf80d-4266-7117-8a51-54e13c84aca4","","null","
                <div class=""stimulus-container"">
                    <img src=""images/semantic_sequence/redecorating_a_house_semantic/redecorating_a_house_semantic_5.png"" class=""exp-image"">
                    <div class=""question-area""></div> 
                </div>","null","","","","","","","","",""
"","","","","","html-button-response","26","88394","0.0-26.0","BE3906B26BB84198891AE3E9257E9E9E","019cf813-fde6-78b7-8a80-1f2ded4eb690","019cf80d-4266-7117-8a51-54e13c84aca4","","679","
                <div class=""stimulus-container"">
                    <img src=""images/semantic_sequence/redecorating_a_house_semantic/redecorating_a_house_semantic_5.png"" class=""exp-image"">
                    <div class=""question-area"">
                        <p style=""font-size: 20px; font-weight: bold; margin: 0;"">Is there a person in this image?</p>
                    </div>
                </div>","0","main_experiment_trial","5","redecorating_a_house_semantic","semantic_sequence","","","","",""
"","","","","","html-keyboard-response","27","93405","0.0-27.0","BE3906B26BB84198891AE3E9257E9E9E","019cf813-fde6-78b7-8a80-1f2ded4eb690","019cf80d-4266-7117-8a51-54e13c84aca4","","null","
                <div class=""stimulus-container"">
                    <img src=""images/semantic_sequence/redecorating_a_house_semantic/redecorating_a_house_semantic_6.png"" class=""exp-image"">
                    <div class=""question-area""></div> 
                </div>","null","","","","","","","","",""
"","","","","","html-button-response","28","93831","0.0-28.0","BE3906B26BB84198891AE3E9257E9E9E","019cf813-fde6-78b7-8a80-1f2ded4eb690","019cf80d-4266-7117-8a51-54e13c84aca4","","425","
                <div class=""stimulus-container"">
                    <img src=""images/semantic_sequence/redecorating_a_house_semantic/redecorating_a_house_semantic_6.png"" class=""exp-image"">
                    <div class=""question-area"">
                        <p style=""font-size: 20px; font-weight: bold; margin: 0;"">Is there a person in this image?</p>
                    </div>
                </div>","0","main_experiment_trial","6","redecorating_a_house_semantic","semantic_sequence","","","","",""
"","","","","","html-keyboard-response","29","98843","0.0-29.0","BE3906B26BB84198891AE3E9257E9E9E","019cf813-fde6-78b7-8a80-1f2ded4eb690","019cf80d-4266-7117-8a51-54e13c84aca4","","null","
                <div class=""stimulus-container"">
                    <img src=""images/semantic_sequence/redecorating_a_house_semantic/redecorating_a_house_semantic_7.png"" class=""exp-image"">
                    <div class=""question-area""></div> 
                </div>","null","","","","","","","","",""
"","","","","","html-button-response","30","99289","0.0-30.0","BE3906B26BB84198891AE3E9257E9E9E","019cf813-fde6-78b7-8a80-1f2ded4eb690","019cf80d-4266-7117-8a51-54e13c84aca4","","444","
                <div class=""stimulus-container"">
                    <img src=""images/semantic_sequence/redecorating_a_house_semantic/redecorating_a_house_semantic_7.png"" class=""exp-image"">
                    <div class=""question-area"">
                        <p style=""font-size: 20px; font-weight: bold; margin: 0;"">Is there a person in this image?</p>
                    </div>
                </div>","0","main_experiment_trial","7","redecorating_a_house_semantic","semantic_sequence","","","","",""
"","","","","","html-keyboard-response","31","104301","0.0-31.0","BE3906B26BB84198891AE3E9257E9E9E","019cf813-fde6-78b7-8a80-1f2ded4eb690","019cf80d-4266-7117-8a51-54e13c84aca4","","null","
                <div class=""stimulus-container"">
                    <img src=""images/semantic_sequence/redecorating_a_house_semantic/redecorating_a_house_semantic_8.png"" class=""exp-image"">
                    <div class=""question-area""></div> 
                </div>","null","","","","","","","","",""
"","","","","","html-button-response","32","104714","0.0-32.0","BE3906B26BB84198891AE3E9257E9E9E","019cf813-fde6-78b7-8a80-1f2ded4eb690","019cf80d-4266-7117-8a51-54e13c84aca4","","412","
                <div class=""stimulus-container"">
                    <img src=""images/semantic_sequence/redecorating_a_house_semantic/redecorating_a_house_semantic_8.png"" class=""exp-image"">
                    <div class=""question-area"">
                        <p style=""font-size: 20px; font-weight: bold; margin: 0;"">Is there a person in this image?</p>
                    </div>
                </div>","0","main_experiment_trial","8","redecorating_a_house_semantic","semantic_sequence","","","","",""
"","","","","","html-keyboard-response","33","109721","0.0-33.0","BE3906B26BB84198891AE3E9257E9E9E","019cf813-fde6-78b7-8a80-1f2ded4eb690","019cf80d-4266-7117-8a51-54e13c84aca4","","null","
                <div class=""stimulus-container"">
                    <img src=""images/semantic_sequence/redecorating_a_house_semantic/redecorating_a_house_semantic_9.png"" class=""exp-image"">
                    <div class=""question-area""></div> 
                </div>","null","","","","","","","","",""
"","","","","","html-button-response","34","110139","0.0-34.0","BE3906B26BB84198891AE3E9257E9E9E","019cf813-fde6-78b7-8a80-1f2ded4eb690","019cf80d-4266-7117-8a51-54e13c84aca4","","417","
                <div class=""stimulus-container"">
                    <img src=""images/semantic_sequence/redecorating_a_house_semantic/redecorating_a_house_semantic_9.png"" class=""exp-image"">
                    <div class=""question-area"">
                        <p style=""font-size: 20px; font-weight: bold; margin: 0;"">Is there a person in this image?</p>
                    </div>
                </div>","0","main_experiment_trial","9","redecorating_a_house_semantic","semantic_sequence","","","","",""
"","","","","","html-keyboard-response","35","115149","0.0-35.0","BE3906B26BB84198891AE3E9257E9E9E","019cf813-fde6-78b7-8a80-1f2ded4eb690","019cf80d-4266-7117-8a51-54e13c84aca4","","null","
                <div class=""stimulus-container"">
                    <img src=""images/semantic_sequence/redecorating_a_house_semantic/redecorating_a_house_semantic_ten.png"" class=""exp-image"">
                    <div class=""question-area""></div> 
                </div>","null","","","","","","","","",""
"","","","","","html-button-response","36","115509","0.0-36.0","BE3906B26BB84198891AE3E9257E9E9E","019cf813-fde6-78b7-8a80-1f2ded4eb690","019cf80d-4266-7117-8a51-54e13c84aca4","","359","
                <div class=""stimulus-container"">
                    <img src=""images/semantic_sequence/redecorating_a_house_semantic/redecorating_a_house_semantic_ten.png"" class=""exp-image"">
                    <div class=""question-area"">
                        <p style=""font-size: 20px; font-weight: bold; margin: 0;"">Is there a person in this image?</p>
                    </div>
                </div>","0","main_experiment_trial","ten","redecorating_a_house_semantic","semantic_sequence","","","","",""
"","","","","","html-keyboard-response","37","116517","0.0-37.0","BE3906B26BB84198891AE3E9257E9E9E","019cf813-fde6-78b7-8a80-1f2ded4eb690","019cf80d-4266-7117-8a51-54e13c84aca4","","null","<div style=""background-color: white; width: 100vw; height: 100vh;""></div>","null","","","","","","","","",""
"","","","","","html-keyboard-response","38","121526","0.0-38.0","BE3906B26BB84198891AE3E9257E9E9E","019cf813-fde6-78b7-8a80-1f2ded4eb690","019cf80d-4266-7117-8a51-54e13c84aca4","","null","
                <div class=""stimulus-container"">
                    <img src=""images/schematic_sequence/dinner_party_scheme/dinner_party_scheme_1.png"" class=""exp-image"">
                    <div class=""question-area""></div> 
                </div>","null","","","","","","","","",""
"","","","","","html-button-response","39","121965","0.0-39.0","BE3906B26BB84198891AE3E9257E9E9E","019cf813-fde6-78b7-8a80-1f2ded4eb690","019cf80d-4266-7117-8a51-54e13c84aca4","","437","
                <div class=""stimulus-container"">
                    <img src=""images/schematic_sequence/dinner_party_scheme/dinner_party_scheme_1.png"" class=""exp-image"">
                    <div class=""question-area"">
                        <p style=""font-size: 20px; font-weight: bold; margin: 0;"">Is there a person in this image?</p>
                    </div>
                </div>","0","main_experiment_trial","1","dinner_party_scheme","schematic_sequence","","","","",""
"","","","","","html-keyboard-response","40","126974","0.0-40.0","BE3906B26BB84198891AE3E9257E9E9E","019cf813-fde6-78b7-8a80-1f2ded4eb690","019cf80d-4266-7117-8a51-54e13c84aca4","","null","
                <div class=""stimulus-container"">
                    <img src=""images/schematic_sequence/dinner_party_scheme/dinner_party_scheme_2.png"" class=""exp-image"">
                    <div class=""question-area""></div> 
                </div>","null","","","","","","","","",""
"","","","","","html-button-response","41","127431","0.0-41.0","BE3906B26BB84198891AE3E9257E9E9E","019cf813-fde6-78b7-8a80-1f2ded4eb690","019cf80d-4266-7117-8a51-54e13c84aca4","","456","
                <div class=""stimulus-container"">
                    <img src=""images/schematic_sequence/dinner_party_scheme/dinner_party_scheme_2.png"" class=""exp-image"">
                    <div class=""question-area"">
                        <p style=""font-size: 20px; font-weight: bold; margin: 0;"">Is there a person in this image?</p>
                    </div>
                </div>","0","main_experiment_trial","2","dinner_party_scheme","schematic_sequence","","","","",""
"","","","","","html-keyboard-response","42","132434","0.0-42.0","BE3906B26BB84198891AE3E9257E9E9E","019cf813-fde6-78b7-8a80-1f2ded4eb690","019cf80d-4266-7117-8a51-54e13c84aca4","","null","
                <div class=""stimulus-container"">
                    <img src=""images/schematic_sequence/dinner_party_scheme/dinner_party_scheme_3.png"" class=""exp-image"">
                    <div class=""question-area""></div> 
                </div>","null","","","","","","","","",""
"","","","","","html-button-response","43","135260","0.0-43.0","BE3906B26BB84198891AE3E9257E9E9E","019cf813-fde6-78b7-8a80-1f2ded4eb690","019cf80d-4266-7117-8a51-54e13c84aca4","","2825","
                <div class=""stimulus-container"">
                    <img src=""images/schematic_sequence/dinner_party_scheme/dinner_party_scheme_3.png"" class=""exp-image"">
                    <div class=""question-area"">
                        <p style=""font-size: 20px; font-weight: bold; margin: 0;"">Is there a person in this image?</p>
                    </div>
                </div>","0","main_experiment_trial","3","dinner_party_scheme","schematic_sequence","","","","",""
"","","","","","html-keyboard-response","44","140270","0.0-44.0","BE3906B26BB84198891AE3E9257E9E9E","019cf813-fde6-78b7-8a80-1f2ded4eb690","019cf80d-4266-7117-8a51-54e13c84aca4","","null","
                <div class=""stimulus-container"">
                    <img src=""images/schematic_sequence/dinner_party_scheme/dinner_party_scheme_4.png"" class=""exp-image"">
                    <div class=""question-area""></div> 
                </div>","null","","","","","","","","",""
"","","","","","html-button-response","45","143278","0.0-45.0","BE3906B26BB84198891AE3E9257E9E9E","019cf813-fde6-78b7-8a80-1f2ded4eb690","019cf80d-4266-7117-8a51-54e13c84aca4","","null","
                <div class=""stimulus-container"">
                    <img src=""images/schematic_sequence/dinner_party_scheme/dinner_party_scheme_4.png"" class=""exp-image"">
                    <div class=""question-area"">
                        <p style=""font-size: 20px; font-weight: bold; margin: 0;"">Is there a person in this image?</p>
                    </div>
                </div>","null","main_experiment_trial","4","dinner_party_scheme","schematic_sequence","","","","",""
"","","","","","html-keyboard-response","46","148286","0.0-46.0","BE3906B26BB84198891AE3E9257E9E9E","019cf813-fde6-78b7-8a80-1f2ded4eb690","019cf80d-4266-7117-8a51-54e13c84aca4","","null","
                <div class=""stimulus-container"">
                    <img src=""images/schematic_sequence/dinner_party_scheme/dinner_party_scheme_5.png"" class=""exp-image"">
                    <div class=""question-area""></div> 
                </div>","null","","","","","","","","",""
"","","","","","html-button-response","47","151001","0.0-47.0","BE3906B26BB84198891AE3E9257E9E9E","019cf813-fde6-78b7-8a80-1f2ded4eb690","019cf80d-4266-7117-8a51-54e13c84aca4","","2714","
                <div class=""stimulus-container"">
                    <img src=""images/schematic_sequence/dinner_party_scheme/dinner_party_scheme_5.png"" class=""exp-image"">
                    <div class=""question-area"">
                        <p style=""font-size: 20px; font-weight: bold; margin: 0;"">Is there a person in this image?</p>
                    </div>
                </div>","0","main_experiment_trial","5","dinner_party_scheme","schematic_sequence","","","","",""
"","","","","","html-keyboard-response","48","156014","0.0-48.0","BE3906B26BB84198891AE3E9257E9E9E","019cf813-fde6-78b7-8a80-1f2ded4eb690","019cf80d-4266-7117-8a51-54e13c84aca4","","null","
                <div class=""stimulus-container"">
                    <img src=""images/schematic_sequence/dinner_party_scheme/dinner_party_scheme_6.png"" class=""exp-image"">
                    <div class=""question-area""></div> 
                </div>","null","","","","","","","","",""
"","","","","","html-button-response","49","156638","0.0-49.0","BE3906B26BB84198891AE3E9257E9E9E","019cf813-fde6-78b7-8a80-1f2ded4eb690","019cf80d-4266-7117-8a51-54e13c84aca4","","622","
                <div class=""stimulus-container"">
                    <img src=""images/schematic_sequence/dinner_party_scheme/dinner_party_scheme_6.png"" class=""exp-image"">
                    <div class=""question-area"">
                        <p style=""font-size: 20px; font-weight: bold; margin: 0;"">Is there a person in this image?</p>
                    </div>
                </div>","0","main_experiment_trial","6","dinner_party_scheme","schematic_sequence","","","","",""
"","","","","","html-keyboard-response","50","161641","0.0-50.0","BE3906B26BB84198891AE3E9257E9E9E","019cf813-fde6-78b7-8a80-1f2ded4eb690","019cf80d-4266-7117-8a51-54e13c84aca4","","null","
                <div class=""stimulus-container"">
                    <img src=""images/schematic_sequence/dinner_party_scheme/dinner_party_scheme_7.png"" class=""exp-image"">
                    <div class=""question-area""></div> 
                </div>","null","","","","","","","","",""
"","","","","","html-button-response","51","164654","0.0-51.0","BE3906B26BB84198891AE3E9257E9E9E","019cf813-fde6-78b7-8a80-1f2ded4eb690","019cf80d-4266-7117-8a51-54e13c84aca4","","null","
                <div class=""stimulus-container"">
                    <img src=""images/schematic_sequence/dinner_party_scheme/dinner_party_scheme_7.png"" class=""exp-image"">
                    <div class=""question-area"">
                        <p style=""font-size: 20px; font-weight: bold; margin: 0;"">Is there a person in this image?</p>
                    </div>
                </div>","null","main_experiment_trial","7","dinner_party_scheme","schematic_sequence","","","","",""
"","","","","","html-keyboard-response","52","169656","0.0-52.0","BE3906B26BB84198891AE3E9257E9E9E","019cf813-fde6-78b7-8a80-1f2ded4eb690","019cf80d-4266-7117-8a51-54e13c84aca4","","null","
                <div class=""stimulus-container"">
                    <img src=""images/schematic_sequence/dinner_party_scheme/dinner_party_scheme_8.png"" class=""exp-image"">
                    <div class=""question-area""></div> 
                </div>","null","","","","","","","","",""
"","","","","","html-button-response","53","170381","0.0-53.0","BE3906B26BB84198891AE3E9257E9E9E","019cf813-fde6-78b7-8a80-1f2ded4eb690","019cf80d-4266-7117-8a51-54e13c84aca4","","723","
                <div class=""stimulus-container"">
                    <img src=""images/schematic_sequence/dinner_party_scheme/dinner_party_scheme_8.png"" class=""exp-image"">
                    <div class=""question-area"">
                        <p style=""font-size: 20px; font-weight: bold; margin: 0;"">Is there a person in this image?</p>
                    </div>
                </div>","0","main_experiment_trial","8","dinner_party_scheme","schematic_sequence","","","","",""
"","","","","","html-keyboard-response","54","175390","0.0-54.0","BE3906B26BB84198891AE3E9257E9E9E","019cf813-fde6-78b7-8a80-1f2ded4eb690","019cf80d-4266-7117-8a51-54e13c84aca4","","null","
                <div class=""stimulus-container"">
                    <img src=""images/schematic_sequence/dinner_party_scheme/dinner_party_scheme_9.png"" class=""exp-image"">
                    <div class=""question-area""></div> 
                </div>","null","","","","","","","","",""
"","","","","","html-button-response","55","175854","0.0-55.0","BE3906B26BB84198891AE3E9257E9E9E","019cf813-fde6-78b7-8a80-1f2ded4eb690","019cf80d-4266-7117-8a51-54e13c84aca4","","462","
                <div class=""stimulus-container"">
                    <img src=""images/schematic_sequence/dinner_party_scheme/dinner_party_scheme_9.png"" class=""exp-image"">
                    <div class=""question-area"">
                        <p style=""font-size: 20px; font-weight: bold; margin: 0;"">Is there a person in this image?</p>
                    </div>
                </div>","0","main_experiment_trial","9","dinner_party_scheme","schematic_sequence","","","","",""
"","","","","","html-keyboard-response","56","180866","0.0-56.0","BE3906B26BB84198891AE3E9257E9E9E","019cf813-fde6-78b7-8a80-1f2ded4eb690","019cf80d-4266-7117-8a51-54e13c84aca4","","null","
                <div class=""stimulus-container"">
                    <img src=""images/schematic_sequence/dinner_party_scheme/dinner_party_scheme_ten.png"" class=""exp-image"">
                    <div class=""question-area""></div> 
                </div>","null","","","","","","","","",""
"","","","","","html-button-response","57","181231","0.0-57.0","BE3906B26BB84198891AE3E9257E9E9E","019cf813-fde6-78b7-8a80-1f2ded4eb690","019cf80d-4266-7117-8a51-54e13c84aca4","","363","
                <div class=""stimulus-container"">
                    <img src=""images/schematic_sequence/dinner_party_scheme/dinner_party_scheme_ten.png"" class=""exp-image"">
                    <div class=""question-area"">
                        <p style=""font-size: 20px; font-weight: bold; margin: 0;"">Is there a person in this image?</p>
                    </div>
                </div>","0","main_experiment_trial","ten","dinner_party_scheme","schematic_sequence","","","","",""
"","","","","","html-keyboard-response","58","182234","0.0-58.0","BE3906B26BB84198891AE3E9257E9E9E","019cf813-fde6-78b7-8a80-1f2ded4eb690","019cf80d-4266-7117-8a51-54e13c84aca4","","null","<div style=""background-color: white; width: 100vw; height: 100vh;""></div>","null","","","","","","","","",""
"","","","","","html-keyboard-response","59","187245","0.0-59.0","BE3906B26BB84198891AE3E9257E9E9E","019cf813-fde6-78b7-8a80-1f2ded4eb690","019cf80d-4266-7117-8a51-54e13c84aca4","","null","
                <div class=""stimulus-container"">
                    <img src=""images/semantic_sequence/kitchen_operations_semantic/kitchen_operations_semantic_1.png"" class=""exp-image"">
                    <div class=""question-area""></div> 
                </div>","null","","","","","","","","",""
"","","","","","html-button-response","60","187567","0.0-60.0","BE3906B26BB84198891AE3E9257E9E9E","019cf813-fde6-78b7-8a80-1f2ded4eb690","019cf80d-4266-7117-8a51-54e13c84aca4","","320","
                <div class=""stimulus-container"">
                    <img src=""images/semantic_sequence/kitchen_operations_semantic/kitchen_operations_semantic_1.png"" class=""exp-image"">
                    <div class=""question-area"">
                        <p style=""font-size: 20px; font-weight: bold; margin: 0;"">Is there a person in this image?</p>
                    </div>
                </div>","0","main_experiment_trial","1","kitchen_operations_semantic","semantic_sequence","","","","",""
"","","","","","html-keyboard-response","61","192583","0.0-61.0","BE3906B26BB84198891AE3E9257E9E9E","019cf813-fde6-78b7-8a80-1f2ded4eb690","019cf80d-4266-7117-8a51-54e13c84aca4","","null","
                <div class=""stimulus-container"">
                    <img src=""images/semantic_sequence/kitchen_operations_semantic/kitchen_operations_semantic_2.png"" class=""exp-image"">
                    <div class=""question-area""></div> 
                </div>","null","","","","","","","","",""
"","","","","","html-button-response","62","192944","0.0-62.0","BE3906B26BB84198891AE3E9257E9E9E","019cf813-fde6-78b7-8a80-1f2ded4eb690","019cf80d-4266-7117-8a51-54e13c84aca4","","360","
                <div class=""stimulus-container"">
                    <img src=""images/semantic_sequence/kitchen_operations_semantic/kitchen_operations_semantic_2.png"" class=""exp-image"">
                    <div class=""question-area"">
                        <p style=""font-size: 20px; font-weight: bold; margin: 0;"">Is there a person in this image?</p>
                    </div>
                </div>","0","main_experiment_trial","2","kitchen_operations_semantic","semantic_sequence","","","","",""
"","","","","","html-keyboard-response","63","197959","0.0-63.0","BE3906B26BB84198891AE3E9257E9E9E","019cf813-fde6-78b7-8a80-1f2ded4eb690","019cf80d-4266-7117-8a51-54e13c84aca4","","null","
                <div class=""stimulus-container"">
                    <img src=""images/semantic_sequence/kitchen_operations_semantic/kitchen_operations_semantic_3.png"" class=""exp-image"">
                    <div class=""question-area""></div> 
                </div>","null","","","","","","","","",""
"","","","","","html-button-response","64","198306","0.0-64.0","BE3906B26BB84198891AE3E9257E9E9E","019cf813-fde6-78b7-8a80-1f2ded4eb690","019cf80d-4266-7117-8a51-54e13c84aca4","","346","
                <div class=""stimulus-container"">
                    <img src=""images/semantic_sequence/kitchen_operations_semantic/kitchen_operations_semantic_3.png"" class=""exp-image"">
                    <div class=""question-area"">
                        <p style=""font-size: 20px; font-weight: bold; margin: 0;"">Is there a person in this image?</p>
                    </div>
                </div>","0","main_experiment_trial","3","kitchen_operations_semantic","semantic_sequence","","","","",""
"","","","","","html-keyboard-response","65","203319","0.0-65.0","BE3906B26BB84198891AE3E9257E9E9E","019cf813-fde6-78b7-8a80-1f2ded4eb690","019cf80d-4266-7117-8a51-54e13c84aca4","","null","
                <div class=""stimulus-container"">
                    <img src=""images/semantic_sequence/kitchen_operations_semantic/kitchen_operations_semantic_4.png"" class=""exp-image"">
                    <div class=""question-area""></div> 
                </div>","null","","","","","","","","",""
"","","","","","html-button-response","66","203748","0.0-66.0","BE3906B26BB84198891AE3E9257E9E9E","019cf813-fde6-78b7-8a80-1f2ded4eb690","019cf80d-4266-7117-8a51-54e13c84aca4","","427","
                <div class=""stimulus-container"">
                    <img src=""images/semantic_sequence/kitchen_operations_semantic/kitchen_operations_semantic_4.png"" class=""exp-image"">
                    <div class=""question-area"">
                        <p style=""font-size: 20px; font-weight: bold; margin: 0;"">Is there a person in this image?</p>
                    </div>
                </div>","0","main_experiment_trial","4","kitchen_operations_semantic","semantic_sequence","","","","",""
"","","","","","html-keyboard-response","67","208760","0.0-67.0","BE3906B26BB84198891AE3E9257E9E9E","019cf813-fde6-78b7-8a80-1f2ded4eb690","019cf80d-4266-7117-8a51-54e13c84aca4","","null","
                <div class=""stimulus-container"">
                    <img src=""images/semantic_sequence/kitchen_operations_semantic/kitchen_operations_semantic_5.png"" class=""exp-image"">
                    <div class=""question-area""></div> 
                </div>","null","","","","","","","","",""
"","","","","","html-button-response","68","209166","0.0-68.0","BE3906B26BB84198891AE3E9257E9E9E","019cf813-fde6-78b7-8a80-1f2ded4eb690","019cf80d-4266-7117-8a51-54e13c84aca4","","404","
                <div class=""stimulus-container"">
                    <img src=""images/semantic_sequence/kitchen_operations_semantic/kitchen_operations_semantic_5.png"" class=""exp-image"">
                    <div class=""question-area"">
                        <p style=""font-size: 20px; font-weight: bold; margin: 0;"">Is there a person in this image?</p>
                    </div>
                </div>","0","main_experiment_trial","5","kitchen_operations_semantic","semantic_sequence","","","","",""
"","","","","","html-keyboard-response","69","214176","0.0-69.0","BE3906B26BB84198891AE3E9257E9E9E","019cf813-fde6-78b7-8a80-1f2ded4eb690","019cf80d-4266-7117-8a51-54e13c84aca4","","null","
                <div class=""stimulus-container"">
                    <img src=""images/semantic_sequence/kitchen_operations_semantic/kitchen_operations_semantic_6.png"" class=""exp-image"">
                    <div class=""question-area""></div> 
                </div>","null","","","","","","","","",""
"","","","","","html-button-response","70","214625","0.0-70.0","BE3906B26BB84198891AE3E9257E9E9E","019cf813-fde6-78b7-8a80-1f2ded4eb690","019cf80d-4266-7117-8a51-54e13c84aca4","","447","
                <div class=""stimulus-container"">
                    <img src=""images/semantic_sequence/kitchen_operations_semantic/kitchen_operations_semantic_6.png"" class=""exp-image"">
                    <div class=""question-area"">
                        <p style=""font-size: 20px; font-weight: bold; margin: 0;"">Is there a person in this image?</p>
                    </div>
                </div>","0","main_experiment_trial","6","kitchen_operations_semantic","semantic_sequence","","","","",""
"","","","","","html-keyboard-response","71","219640","0.0-71.0","BE3906B26BB84198891AE3E9257E9E9E","019cf813-fde6-78b7-8a80-1f2ded4eb690","019cf80d-4266-7117-8a51-54e13c84aca4","","null","
                <div class=""stimulus-container"">
                    <img src=""images/semantic_sequence/kitchen_operations_semantic/kitchen_operations_semantic_7.png"" class=""exp-image"">
                    <div class=""question-area""></div> 
                </div>","null","","","","","","","","",""
"","","","","","html-button-response","72","220020","0.0-72.0","BE3906B26BB84198891AE3E9257E9E9E","019cf813-fde6-78b7-8a80-1f2ded4eb690","019cf80d-4266-7117-8a51-54e13c84aca4","","378","
                <div class=""stimulus-container"">
                    <img src=""images/semantic_sequence/kitchen_operations_semantic/kitchen_operations_semantic_7.png"" class=""exp-image"">
                    <div class=""question-area"">
                        <p style=""font-size: 20px; font-weight: bold; margin: 0;"">Is there a person in this image?</p>
                    </div>
                </div>","0","main_experiment_trial","7","kitchen_operations_semantic","semantic_sequence","","","","",""
"","","","","","html-keyboard-response","73","225031","0.0-73.0","BE3906B26BB84198891AE3E9257E9E9E","019cf813-fde6-78b7-8a80-1f2ded4eb690","019cf80d-4266-7117-8a51-54e13c84aca4","","null","
                <div class=""stimulus-container"">
                    <img src=""images/semantic_sequence/kitchen_operations_semantic/kitchen_operations_semantic_8.png"" class=""exp-image"">
                    <div class=""question-area""></div> 
                </div>","null","","","","","","","","",""
"","","","","","html-button-response","74","225588","0.0-74.0","BE3906B26BB84198891AE3E9257E9E9E","019cf813-fde6-78b7-8a80-1f2ded4eb690","019cf80d-4266-7117-8a51-54e13c84aca4","","554","
                <div class=""stimulus-container"">
                    <img src=""images/semantic_sequence/kitchen_operations_semantic/kitchen_operations_semantic_8.png"" class=""exp-image"">
                    <div class=""question-area"">
                        <p style=""font-size: 20px; font-weight: bold; margin: 0;"">Is there a person in this image?</p>
                    </div>
                </div>","0","main_experiment_trial","8","kitchen_operations_semantic","semantic_sequence","","","","",""
"","","","","","html-keyboard-response","75","230599","0.0-75.0","BE3906B26BB84198891AE3E9257E9E9E","019cf813-fde6-78b7-8a80-1f2ded4eb690","019cf80d-4266-7117-8a51-54e13c84aca4","","null","
                <div class=""stimulus-container"">
                    <img src=""images/semantic_sequence/kitchen_operations_semantic/kitchen_operations_semantic_9.png"" class=""exp-image"">
                    <div class=""question-area""></div> 
                </div>","null","","","","","","","","",""
"","","","","","html-button-response","76","231013","0.0-76.0","BE3906B26BB84198891AE3E9257E9E9E","019cf813-fde6-78b7-8a80-1f2ded4eb690","019cf80d-4266-7117-8a51-54e13c84aca4","","412","
                <div class=""stimulus-container"">
                    <img src=""images/semantic_sequence/kitchen_operations_semantic/kitchen_operations_semantic_9.png"" class=""exp-image"">
                    <div class=""question-area"">
                        <p style=""font-size: 20px; font-weight: bold; margin: 0;"">Is there a person in this image?</p>
                    </div>
                </div>","0","main_experiment_trial","9","kitchen_operations_semantic","semantic_sequence","","","","",""
"","","","","","html-keyboard-response","77","236024","0.0-77.0","BE3906B26BB84198891AE3E9257E9E9E","019cf813-fde6-78b7-8a80-1f2ded4eb690","019cf80d-4266-7117-8a51-54e13c84aca4","","null","
                <div class=""stimulus-container"">
                    <img src=""images/semantic_sequence/kitchen_operations_semantic/kitchen_operations_semantic_ten.png"" class=""exp-image"">
                    <div class=""question-area""></div> 
                </div>","null","","","","","","","","",""
"","","","","","html-button-response","78","236393","0.0-78.0","BE3906B26BB84198891AE3E9257E9E9E","019cf813-fde6-78b7-8a80-1f2ded4eb690","019cf80d-4266-7117-8a51-54e13c84aca4","","367","
                <div class=""stimulus-container"">
                    <img src=""images/semantic_sequence/kitchen_operations_semantic/kitchen_operations_semantic_ten.png"" class=""exp-image"">
                    <div class=""question-area"">
                        <p style=""font-size: 20px; font-weight: bold; margin: 0;"">Is there a person in this image?</p>
                    </div>
                </div>","0","main_experiment_trial","ten","kitchen_operations_semantic","semantic_sequence","","","","",""
"","","","","","html-keyboard-response","79","237400","0.0-79.0","BE3906B26BB84198891AE3E9257E9E9E","019cf813-fde6-78b7-8a80-1f2ded4eb690","019cf80d-4266-7117-8a51-54e13c84aca4","","null","<div style=""background-color: white; width: 100vw; height: 100vh;""></div>","null","","","","","","","","",""
"","","","","","html-keyboard-response","80","242404","0.0-80.0","BE3906B26BB84198891AE3E9257E9E9E","019cf813-fde6-78b7-8a80-1f2ded4eb690","019cf80d-4266-7117-8a51-54e13c84aca4","","null","
                <div class=""stimulus-container"">
                    <img src=""images/semantic_sequence/cat_care_semantic/cat_care_semantic_1.png"" class=""exp-image"">
                    <div class=""question-area""></div> 
                </div>","null","","","","","","","","",""
"","","","","","html-button-response","81","243409","0.0-81.0","BE3906B26BB84198891AE3E9257E9E9E","019cf813-fde6-78b7-8a80-1f2ded4eb690","019cf80d-4266-7117-8a51-54e13c84aca4","","1004","
                <div class=""stimulus-container"">
                    <img src=""images/semantic_sequence/cat_care_semantic/cat_care_semantic_1.png"" class=""exp-image"">
                    <div class=""question-area"">
                        <p style=""font-size: 20px; font-weight: bold; margin: 0;"">Is there a person in this image?</p>
                    </div>
                </div>","0","main_experiment_trial","1","cat_care_semantic","semantic_sequence","","","","",""
"","","","","","html-keyboard-response","82","248423","0.0-82.0","BE3906B26BB84198891AE3E9257E9E9E","019cf813-fde6-78b7-8a80-1f2ded4eb690","019cf80d-4266-7117-8a51-54e13c84aca4","","null","
                <div class=""stimulus-container"">
                    <img src=""images/semantic_sequence/cat_care_semantic/cat_care_semantic_2.png"" class=""exp-image"">
                    <div class=""question-area""></div> 
                </div>","null","","","","","","","","",""
"","","","","","html-button-response","83","248986","0.0-83.0","BE3906B26BB84198891AE3E9257E9E9E","019cf813-fde6-78b7-8a80-1f2ded4eb690","019cf80d-4266-7117-8a51-54e13c84aca4","","562","
                <div class=""stimulus-container"">
                    <img src=""images/semantic_sequence/cat_care_semantic/cat_care_semantic_2.png"" class=""exp-image"">
                    <div class=""question-area"">
                        <p style=""font-size: 20px; font-weight: bold; margin: 0;"">Is there a person in this image?</p>
                    </div>
                </div>","0","main_experiment_trial","2","cat_care_semantic","semantic_sequence","","","","",""
"","","","","","html-keyboard-response","84","253992","0.0-84.0","BE3906B26BB84198891AE3E9257E9E9E","019cf813-fde6-78b7-8a80-1f2ded4eb690","019cf80d-4266-7117-8a51-54e13c84aca4","","null","
                <div class=""stimulus-container"">
                    <img src=""images/semantic_sequence/cat_care_semantic/cat_care_semantic_3.png"" class=""exp-image"">
                    <div class=""question-area""></div> 
                </div>","null","","","","","","","","",""
"","","","","","html-button-response","85","254325","0.0-85.0","BE3906B26BB84198891AE3E9257E9E9E","019cf813-fde6-78b7-8a80-1f2ded4eb690","019cf80d-4266-7117-8a51-54e13c84aca4","","331","
                <div class=""stimulus-container"">
                    <img src=""images/semantic_sequence/cat_care_semantic/cat_care_semantic_3.png"" class=""exp-image"">
                    <div class=""question-area"">
                        <p style=""font-size: 20px; font-weight: bold; margin: 0;"">Is there a person in this image?</p>
                    </div>
                </div>","0","main_experiment_trial","3","cat_care_semantic","semantic_sequence","","","","",""
"","","","","","html-keyboard-response","86","259334","0.0-86.0","BE3906B26BB84198891AE3E9257E9E9E","019cf813-fde6-78b7-8a80-1f2ded4eb690","019cf80d-4266-7117-8a51-54e13c84aca4","","null","
                <div class=""stimulus-container"">
                    <img src=""images/semantic_sequence/cat_care_semantic/cat_care_semantic_4.png"" class=""exp-image"">
                    <div class=""question-area""></div> 
                </div>","null","","","","","","","","",""
"","","","","","html-button-response","87","259743","0.0-87.0","BE3906B26BB84198891AE3E9257E9E9E","019cf813-fde6-78b7-8a80-1f2ded4eb690","019cf80d-4266-7117-8a51-54e13c84aca4","","407","
                <div class=""stimulus-container"">
                    <img src=""images/semantic_sequence/cat_care_semantic/cat_care_semantic_4.png"" class=""exp-image"">
                    <div class=""question-area"">
                        <p style=""font-size: 20px; font-weight: bold; margin: 0;"">Is there a person in this image?</p>
                    </div>
                </div>","0","main_experiment_trial","4","cat_care_semantic","semantic_sequence","","","","",""
"","","","","","html-keyboard-response","88","264748","0.0-88.0","BE3906B26BB84198891AE3E9257E9E9E","019cf813-fde6-78b7-8a80-1f2ded4eb690","019cf80d-4266-7117-8a51-54e13c84aca4","","null","
                <div class=""stimulus-container"">
                    <img src=""images/semantic_sequence/cat_care_semantic/cat_care_semantic_5.png"" class=""exp-image"">
                    <div class=""question-area""></div> 
                </div>","null","","","","","","","","",""
"","","","","","html-button-response","89","265097","0.0-89.0","BE3906B26BB84198891AE3E9257E9E9E","019cf813-fde6-78b7-8a80-1f2ded4eb690","019cf80d-4266-7117-8a51-54e13c84aca4","","347","
                <div class=""stimulus-container"">
                    <img src=""images/semantic_sequence/cat_care_semantic/cat_care_semantic_5.png"" class=""exp-image"">
                    <div class=""question-area"">
                        <p style=""font-size: 20px; font-weight: bold; margin: 0;"">Is there a person in this image?</p>
                    </div>
                </div>","0","main_experiment_trial","5","cat_care_semantic","semantic_sequence","","","","",""
"","","","","","html-keyboard-response","90","270112","0.0-90.0","BE3906B26BB84198891AE3E9257E9E9E","019cf813-fde6-78b7-8a80-1f2ded4eb690","019cf80d-4266-7117-8a51-54e13c84aca4","","null","
                <div class=""stimulus-container"">
                    <img src=""images/semantic_sequence/cat_care_semantic/cat_care_semantic_6.png"" class=""exp-image"">
                    <div class=""question-area""></div> 
                </div>","null","","","","","","","","",""
"","","","","","html-button-response","91","270850","0.0-91.0","BE3906B26BB84198891AE3E9257E9E9E","019cf813-fde6-78b7-8a80-1f2ded4eb690","019cf80d-4266-7117-8a51-54e13c84aca4","","736","
                <div class=""stimulus-container"">
                    <img src=""images/semantic_sequence/cat_care_semantic/cat_care_semantic_6.png"" class=""exp-image"">
                    <div class=""question-area"">
                        <p style=""font-size: 20px; font-weight: bold; margin: 0;"">Is there a person in this image?</p>
                    </div>
                </div>","0","main_experiment_trial","6","cat_care_semantic","semantic_sequence","","","","",""
"","","","","","html-keyboard-response","92","275860","0.0-92.0","BE3906B26BB84198891AE3E9257E9E9E","019cf813-fde6-78b7-8a80-1f2ded4eb690","019cf80d-4266-7117-8a51-54e13c84aca4","","null","
                <div class=""stimulus-container"">
                    <img src=""images/semantic_sequence/cat_care_semantic/cat_care_semantic_7.png"" class=""exp-image"">
                    <div class=""question-area""></div> 
                </div>","null","","","","","","","","",""
"","","","","","html-button-response","93","276328","0.0-93.0","BE3906B26BB84198891AE3E9257E9E9E","019cf813-fde6-78b7-8a80-1f2ded4eb690","019cf80d-4266-7117-8a51-54e13c84aca4","","467","
                <div class=""stimulus-container"">
                    <img src=""images/semantic_sequence/cat_care_semantic/cat_care_semantic_7.png"" class=""exp-image"">
                    <div class=""question-area"">
                        <p style=""font-size: 20px; font-weight: bold; margin: 0;"">Is there a person in this image?</p>
                    </div>
                </div>","0","main_experiment_trial","7","cat_care_semantic","semantic_sequence","","","","",""
"","","","","","html-keyboard-response","94","281336","0.0-94.0","BE3906B26BB84198891AE3E9257E9E9E","019cf813-fde6-78b7-8a80-1f2ded4eb690","019cf80d-4266-7117-8a51-54e13c84aca4","","null","
                <div class=""stimulus-container"">
                    <img src=""images/semantic_sequence/cat_care_semantic/cat_care_semantic_8.png"" class=""exp-image"">
                    <div class=""question-area""></div> 
                </div>","null","","","","","","","","",""
"","","","","","html-button-response","95","281838","0.0-95.0","BE3906B26BB84198891AE3E9257E9E9E","019cf813-fde6-78b7-8a80-1f2ded4eb690","019cf80d-4266-7117-8a51-54e13c84aca4","","500","
                <div class=""stimulus-container"">
                    <img src=""images/semantic_sequence/cat_care_semantic/cat_care_semantic_8.png"" class=""exp-image"">
                    <div class=""question-area"">
                        <p style=""font-size: 20px; font-weight: bold; margin: 0;"">Is there a person in this image?</p>
                    </div>
                </div>","0","main_experiment_trial","8","cat_care_semantic","semantic_sequence","","","","",""
"","","","","","html-keyboard-response","96","286849","0.0-96.0","BE3906B26BB84198891AE3E9257E9E9E","019cf813-fde6-78b7-8a80-1f2ded4eb690","019cf80d-4266-7117-8a51-54e13c84aca4","","null","
                <div class=""stimulus-container"">
                    <img src=""images/semantic_sequence/cat_care_semantic/cat_care_semantic_9.png"" class=""exp-image"">
                    <div class=""question-area""></div> 
                </div>","null","","","","","","","","",""
"","","","","","html-button-response","97","287951","0.0-97.0","BE3906B26BB84198891AE3E9257E9E9E","019cf813-fde6-78b7-8a80-1f2ded4eb690","019cf80d-4266-7117-8a51-54e13c84aca4","","1101","
                <div class=""stimulus-container"">
                    <img src=""images/semantic_sequence/cat_care_semantic/cat_care_semantic_9.png"" class=""exp-image"">
                    <div class=""question-area"">
                        <p style=""font-size: 20px; font-weight: bold; margin: 0;"">Is there a person in this image?</p>
                    </div>
                </div>","0","main_experiment_trial","9","cat_care_semantic","semantic_sequence","","","","",""
"","","","","","html-keyboard-response","98","292961","0.0-98.0","BE3906B26BB84198891AE3E9257E9E9E","019cf813-fde6-78b7-8a80-1f2ded4eb690","019cf80d-4266-7117-8a51-54e13c84aca4","","null","
                <div class=""stimulus-container"">
                    <img src=""images/semantic_sequence/cat_care_semantic/cat_care_semantic_ten.png"" class=""exp-image"">
                    <div class=""question-area""></div> 
                </div>","null","","","","","","","","",""
"","","","","","html-button-response","99","293789","0.0-99.0","BE3906B26BB84198891AE3E9257E9E9E","019cf813-fde6-78b7-8a80-1f2ded4eb690","019cf80d-4266-7117-8a51-54e13c84aca4","","826","
                <div class=""stimulus-container"">
                    <img src=""images/semantic_sequence/cat_care_semantic/cat_care_semantic_ten.png"" class=""exp-image"">
                    <div class=""question-area"">
                        <p style=""font-size: 20px; font-weight: bold; margin: 0;"">Is there a person in this image?</p>
                    </div>
                </div>","1","main_experiment_trial","ten","cat_care_semantic","semantic_sequence","","","","",""
"","","","","","html-keyboard-response","100","294800","0.0-100.0","BE3906B26BB84198891AE3E9257E9E9E","019cf813-fde6-78b7-8a80-1f2ded4eb690","019cf80d-4266-7117-8a51-54e13c84aca4","","null","<div style=""background-color: white; width: 100vw; height: 100vh;""></div>","null","","","","","","","","",""
"","","","","","html-keyboard-response","101","299804","0.0-101.0","BE3906B26BB84198891AE3E9257E9E9E","019cf813-fde6-78b7-8a80-1f2ded4eb690","019cf80d-4266-7117-8a51-54e13c84aca4","","null","
                <div class=""stimulus-container"">
                    <img src=""images/schematic_sequence/flight_scheme/flight_scheme_1.png"" class=""exp-image"">
                    <div class=""question-area""></div> 
                </div>","null","","","","","","","","",""
"","","","","","html-button-response","102","300471","0.0-102.0","BE3906B26BB84198891AE3E9257E9E9E","019cf813-fde6-78b7-8a80-1f2ded4eb690","019cf80d-4266-7117-8a51-54e13c84aca4","","666","
                <div class=""stimulus-container"">
                    <img src=""images/schematic_sequence/flight_scheme/flight_scheme_1.png"" class=""exp-image"">
                    <div class=""question-area"">
                        <p style=""font-size: 20px; font-weight: bold; margin: 0;"">Is there a person in this image?</p>
                    </div>
                </div>","0","main_experiment_trial","1","flight_scheme","schematic_sequence","","","","",""
"","","","","","html-keyboard-response","103","305480","0.0-103.0","BE3906B26BB84198891AE3E9257E9E9E","019cf813-fde6-78b7-8a80-1f2ded4eb690","019cf80d-4266-7117-8a51-54e13c84aca4","","null","
                <div class=""stimulus-container"">
                    <img src=""images/schematic_sequence/flight_scheme/flight_scheme_2.png"" class=""exp-image"">
                    <div class=""question-area""></div> 
                </div>","null","","","","","","","","",""
"","","","","","html-button-response","104","306182","0.0-104.0","BE3906B26BB84198891AE3E9257E9E9E","019cf813-fde6-78b7-8a80-1f2ded4eb690","019cf80d-4266-7117-8a51-54e13c84aca4","","701","
                <div class=""stimulus-container"">
                    <img src=""images/schematic_sequence/flight_scheme/flight_scheme_2.png"" class=""exp-image"">
                    <div class=""question-area"">
                        <p style=""font-size: 20px; font-weight: bold; margin: 0;"">Is there a person in this image?</p>
                    </div>
                </div>","1","main_experiment_trial","2","flight_scheme","schematic_sequence","","","","",""
"","","","","","html-keyboard-response","105","311189","0.0-105.0","BE3906B26BB84198891AE3E9257E9E9E","019cf813-fde6-78b7-8a80-1f2ded4eb690","019cf80d-4266-7117-8a51-54e13c84aca4","","null","
                <div class=""stimulus-container"">
                    <img src=""images/schematic_sequence/flight_scheme/flight_scheme_3.png"" class=""exp-image"">
                    <div class=""question-area""></div> 
                </div>","null","","","","","","","","",""
"","","","","","html-button-response","106","311661","0.0-106.0","BE3906B26BB84198891AE3E9257E9E9E","019cf813-fde6-78b7-8a80-1f2ded4eb690","019cf80d-4266-7117-8a51-54e13c84aca4","","470","
                <div class=""stimulus-container"">
                    <img src=""images/schematic_sequence/flight_scheme/flight_scheme_3.png"" class=""exp-image"">
                    <div class=""question-area"">
                        <p style=""font-size: 20px; font-weight: bold; margin: 0;"">Is there a person in this image?</p>
                    </div>
                </div>","0","main_experiment_trial","3","flight_scheme","schematic_sequence","","","","",""
"","","","","","html-keyboard-response","107","316669","0.0-107.0","BE3906B26BB84198891AE3E9257E9E9E","019cf813-fde6-78b7-8a80-1f2ded4eb690","019cf80d-4266-7117-8a51-54e13c84aca4","","null","
                <div class=""stimulus-container"">
                    <img src=""images/schematic_sequence/flight_scheme/flight_scheme_4.png"" class=""exp-image"">
                    <div class=""question-area""></div> 
                </div>","null","","","","","","","","",""
"","","","","","html-button-response","108","317223","0.0-108.0","BE3906B26BB84198891AE3E9257E9E9E","019cf813-fde6-78b7-8a80-1f2ded4eb690","019cf80d-4266-7117-8a51-54e13c84aca4","","553","
                <div class=""stimulus-container"">
                    <img src=""images/schematic_sequence/flight_scheme/flight_scheme_4.png"" class=""exp-image"">
                    <div class=""question-area"">
                        <p style=""font-size: 20px; font-weight: bold; margin: 0;"">Is there a person in this image?</p>
                    </div>
                </div>","0","main_experiment_trial","4","flight_scheme","schematic_sequence","","","","",""
"","","","","","html-keyboard-response","109","322233","0.0-109.0","BE3906B26BB84198891AE3E9257E9E9E","019cf813-fde6-78b7-8a80-1f2ded4eb690","019cf80d-4266-7117-8a51-54e13c84aca4","","null","
                <div class=""stimulus-container"">
                    <img src=""images/schematic_sequence/flight_scheme/flight_scheme_5.png"" class=""exp-image"">
                    <div class=""question-area""></div> 
                </div>","null","","","","","","","","",""
"","","","","","html-button-response","110","322730","0.0-110.0","BE3906B26BB84198891AE3E9257E9E9E","019cf813-fde6-78b7-8a80-1f2ded4eb690","019cf80d-4266-7117-8a51-54e13c84aca4","","495","
                <div class=""stimulus-container"">
                    <img src=""images/schematic_sequence/flight_scheme/flight_scheme_5.png"" class=""exp-image"">
                    <div class=""question-area"">
                        <p style=""font-size: 20px; font-weight: bold; margin: 0;"">Is there a person in this image?</p>
                    </div>
                </div>","0","main_experiment_trial","5","flight_scheme","schematic_sequence","","","","",""
"","","","","","html-keyboard-response","111","327741","0.0-111.0","BE3906B26BB84198891AE3E9257E9E9E","019cf813-fde6-78b7-8a80-1f2ded4eb690","019cf80d-4266-7117-8a51-54e13c84aca4","","null","
                <div class=""stimulus-container"">
                    <img src=""images/schematic_sequence/flight_scheme/flight_scheme_6.png"" class=""exp-image"">
                    <div class=""question-area""></div> 
                </div>","null","","","","","","","","",""
"","","","","","html-button-response","112","328586","0.0-112.0","BE3906B26BB84198891AE3E9257E9E9E","019cf813-fde6-78b7-8a80-1f2ded4eb690","019cf80d-4266-7117-8a51-54e13c84aca4","","843","
                <div class=""stimulus-container"">
                    <img src=""images/schematic_sequence/flight_scheme/flight_scheme_6.png"" class=""exp-image"">
                    <div class=""question-area"">
                        <p style=""font-size: 20px; font-weight: bold; margin: 0;"">Is there a person in this image?</p>
                    </div>
                </div>","1","main_experiment_trial","6","flight_scheme","schematic_sequence","","","","",""
"","","","","","html-keyboard-response","113","333597","0.0-113.0","BE3906B26BB84198891AE3E9257E9E9E","019cf813-fde6-78b7-8a80-1f2ded4eb690","019cf80d-4266-7117-8a51-54e13c84aca4","","null","
                <div class=""stimulus-container"">
                    <img src=""images/schematic_sequence/flight_scheme/flight_scheme_7.png"" class=""exp-image"">
                    <div class=""question-area""></div> 
                </div>","null","","","","","","","","",""
"","","","","","html-button-response","114","334087","0.0-114.0","BE3906B26BB84198891AE3E9257E9E9E","019cf813-fde6-78b7-8a80-1f2ded4eb690","019cf80d-4266-7117-8a51-54e13c84aca4","","488","
                <div class=""stimulus-container"">
                    <img src=""images/schematic_sequence/flight_scheme/flight_scheme_7.png"" class=""exp-image"">
                    <div class=""question-area"">
                        <p style=""font-size: 20px; font-weight: bold; margin: 0;"">Is there a person in this image?</p>
                    </div>
                </div>","1","main_experiment_trial","7","flight_scheme","schematic_sequence","","","","",""
"","","","","","html-keyboard-response","115","339096","0.0-115.0","BE3906B26BB84198891AE3E9257E9E9E","019cf813-fde6-78b7-8a80-1f2ded4eb690","019cf80d-4266-7117-8a51-54e13c84aca4","","null","
                <div class=""stimulus-container"">
                    <img src=""images/schematic_sequence/flight_scheme/flight_scheme_8.png"" class=""exp-image"">
                    <div class=""question-area""></div> 
                </div>","null","","","","","","","","",""
"","","","","","html-button-response","116","339520","0.0-116.0","BE3906B26BB84198891AE3E9257E9E9E","019cf813-fde6-78b7-8a80-1f2ded4eb690","019cf80d-4266-7117-8a51-54e13c84aca4","","423","
                <div class=""stimulus-container"">
                    <img src=""images/schematic_sequence/flight_scheme/flight_scheme_8.png"" class=""exp-image"">
                    <div class=""question-area"">
                        <p style=""font-size: 20px; font-weight: bold; margin: 0;"">Is there a person in this image?</p>
                    </div>
                </div>","1","main_experiment_trial","8","flight_scheme","schematic_sequence","","","","",""
"","","","","","html-keyboard-response","117","344527","0.0-117.0","BE3906B26BB84198891AE3E9257E9E9E","019cf813-fde6-78b7-8a80-1f2ded4eb690","019cf80d-4266-7117-8a51-54e13c84aca4","","null","
                <div class=""stimulus-container"">
                    <img src=""images/schematic_sequence/flight_scheme/flight_scheme_9.png"" class=""exp-image"">
                    <div class=""question-area""></div> 
                </div>","null","","","","","","","","",""
"","","","","","html-button-response","118","345100","0.0-118.0","BE3906B26BB84198891AE3E9257E9E9E","019cf813-fde6-78b7-8a80-1f2ded4eb690","019cf80d-4266-7117-8a51-54e13c84aca4","","571","
                <div class=""stimulus-container"">
                    <img src=""images/schematic_sequence/flight_scheme/flight_scheme_9.png"" class=""exp-image"">
                    <div class=""question-area"">
                        <p style=""font-size: 20px; font-weight: bold; margin: 0;"">Is there a person in this image?</p>
                    </div>
                </div>","0","main_experiment_trial","9","flight_scheme","schematic_sequence","","","","",""
"","","","","","html-keyboard-response","119","350112","0.0-119.0","BE3906B26BB84198891AE3E9257E9E9E","019cf813-fde6-78b7-8a80-1f2ded4eb690","019cf80d-4266-7117-8a51-54e13c84aca4","","null","
                <div class=""stimulus-container"">
                    <img src=""images/schematic_sequence/flight_scheme/flight_scheme_ten.png"" class=""exp-image"">
                    <div class=""question-area""></div> 
                </div>","null","","","","","","","","",""
"","","","","","html-button-response","120","351139","0.0-120.0","BE3906B26BB84198891AE3E9257E9E9E","019cf813-fde6-78b7-8a80-1f2ded4eb690","019cf80d-4266-7117-8a51-54e13c84aca4","","1025","
                <div class=""stimulus-container"">
                    <img src=""images/schematic_sequence/flight_scheme/flight_scheme_ten.png"" class=""exp-image"">
                    <div class=""question-area"">
                        <p style=""font-size: 20px; font-weight: bold; margin: 0;"">Is there a person in this image?</p>
                    </div>
                </div>","1","main_experiment_trial","ten","flight_scheme","schematic_sequence","","","","",""
"","","","","","html-keyboard-response","121","352142","0.0-121.0","BE3906B26BB84198891AE3E9257E9E9E","019cf813-fde6-78b7-8a80-1f2ded4eb690","019cf80d-4266-7117-8a51-54e13c84aca4","","null","<div style=""background-color: white; width: 100vw; height: 100vh;""></div>","null","","","","","","","","",""
"","","","","","html-keyboard-response","122","357154","0.0-122.0","BE3906B26BB84198891AE3E9257E9E9E","019cf813-fde6-78b7-8a80-1f2ded4eb690","019cf80d-4266-7117-8a51-54e13c84aca4","","null","
                <div class=""stimulus-container"">
                    <img src=""images/semantic_sequence/market_semantic/market_semantic_1.png"" class=""exp-image"">
                    <div class=""question-area""></div> 
                </div>","null","","","","","","","","",""
"","","","","","html-button-response","123","357837","0.0-123.0","BE3906B26BB84198891AE3E9257E9E9E","019cf813-fde6-78b7-8a80-1f2ded4eb690","019cf80d-4266-7117-8a51-54e13c84aca4","","681","
                <div class=""stimulus-container"">
                    <img src=""images/semantic_sequence/market_semantic/market_semantic_1.png"" class=""exp-image"">
                    <div class=""question-area"">
                        <p style=""font-size: 20px; font-weight: bold; margin: 0;"">Is there a person in this image?</p>
                    </div>
                </div>","1","main_experiment_trial","1","market_semantic","semantic_sequence","","","","",""
"","","","","","html-keyboard-response","124","362851","0.0-124.0","BE3906B26BB84198891AE3E9257E9E9E","019cf813-fde6-78b7-8a80-1f2ded4eb690","019cf80d-4266-7117-8a51-54e13c84aca4","","null","
                <div class=""stimulus-container"">
                    <img src=""images/semantic_sequence/market_semantic/market_semantic_2.png"" class=""exp-image"">
                    <div class=""question-area""></div> 
                </div>","null","","","","","","","","",""
"","","","","","html-button-response","125","363207","0.0-125.0","BE3906B26BB84198891AE3E9257E9E9E","019cf813-fde6-78b7-8a80-1f2ded4eb690","019cf80d-4266-7117-8a51-54e13c84aca4","","355","
                <div class=""stimulus-container"">
                    <img src=""images/semantic_sequence/market_semantic/market_semantic_2.png"" class=""exp-image"">
                    <div class=""question-area"">
                        <p style=""font-size: 20px; font-weight: bold; margin: 0;"">Is there a person in this image?</p>
                    </div>
                </div>","1","main_experiment_trial","2","market_semantic","semantic_sequence","","","","",""
"","","","","","html-keyboard-response","126","368218","0.0-126.0","BE3906B26BB84198891AE3E9257E9E9E","019cf813-fde6-78b7-8a80-1f2ded4eb690","019cf80d-4266-7117-8a51-54e13c84aca4","","null","
                <div class=""stimulus-container"">
                    <img src=""images/semantic_sequence/market_semantic/market_semantic_3.png"" class=""exp-image"">
                    <div class=""question-area""></div> 
                </div>","null","","","","","","","","",""
"","","","","","html-button-response","127","368628","0.0-127.0","BE3906B26BB84198891AE3E9257E9E9E","019cf813-fde6-78b7-8a80-1f2ded4eb690","019cf80d-4266-7117-8a51-54e13c84aca4","","407","
                <div class=""stimulus-container"">
                    <img src=""images/semantic_sequence/market_semantic/market_semantic_3.png"" class=""exp-image"">
                    <div class=""question-area"">
                        <p style=""font-size: 20px; font-weight: bold; margin: 0;"">Is there a person in this image?</p>
                    </div>
                </div>","1","main_experiment_trial","3","market_semantic","semantic_sequence","","","","",""
"","","","","","html-keyboard-response","128","373642","0.0-128.0","BE3906B26BB84198891AE3E9257E9E9E","019cf813-fde6-78b7-8a80-1f2ded4eb690","019cf80d-4266-7117-8a51-54e13c84aca4","","null","
                <div class=""stimulus-container"">
                    <img src=""images/semantic_sequence/market_semantic/market_semantic_4.png"" class=""exp-image"">
                    <div class=""question-area""></div> 
                </div>","null","","","","","","","","",""
"","","","","","html-button-response","129","374042","0.0-129.0","BE3906B26BB84198891AE3E9257E9E9E","019cf813-fde6-78b7-8a80-1f2ded4eb690","019cf80d-4266-7117-8a51-54e13c84aca4","","399","
                <div class=""stimulus-container"">
                    <img src=""images/semantic_sequence/market_semantic/market_semantic_4.png"" class=""exp-image"">
                    <div class=""question-area"">
                        <p style=""font-size: 20px; font-weight: bold; margin: 0;"">Is there a person in this image?</p>
                    </div>
                </div>","0","main_experiment_trial","4","market_semantic","semantic_sequence","","","","",""
"","","","","","html-keyboard-response","130","379058","0.0-130.0","BE3906B26BB84198891AE3E9257E9E9E","019cf813-fde6-78b7-8a80-1f2ded4eb690","019cf80d-4266-7117-8a51-54e13c84aca4","","null","
                <div class=""stimulus-container"">
                    <img src=""images/semantic_sequence/market_semantic/market_semantic_5.png"" class=""exp-image"">
                    <div class=""question-area""></div> 
                </div>","null","","","","","","","","",""
"","","","","","html-button-response","131","379527","0.0-131.0","BE3906B26BB84198891AE3E9257E9E9E","019cf813-fde6-78b7-8a80-1f2ded4eb690","019cf80d-4266-7117-8a51-54e13c84aca4","","467","
                <div class=""stimulus-container"">
                    <img src=""images/semantic_sequence/market_semantic/market_semantic_5.png"" class=""exp-image"">
                    <div class=""question-area"">
                        <p style=""font-size: 20px; font-weight: bold; margin: 0;"">Is there a person in this image?</p>
                    </div>
                </div>","1","main_experiment_trial","5","market_semantic","semantic_sequence","","","","",""
"","","","","","html-keyboard-response","132","384539","0.0-132.0","BE3906B26BB84198891AE3E9257E9E9E","019cf813-fde6-78b7-8a80-1f2ded4eb690","019cf80d-4266-7117-8a51-54e13c84aca4","","null","
                <div class=""stimulus-container"">
                    <img src=""images/semantic_sequence/market_semantic/market_semantic_6.png"" class=""exp-image"">
                    <div class=""question-area""></div> 
                </div>","null","","","","","","","","",""
"","","","","","html-button-response","133","385025","0.0-133.0","BE3906B26BB84198891AE3E9257E9E9E","019cf813-fde6-78b7-8a80-1f2ded4eb690","019cf80d-4266-7117-8a51-54e13c84aca4","","485","
                <div class=""stimulus-container"">
                    <img src=""images/semantic_sequence/market_semantic/market_semantic_6.png"" class=""exp-image"">
                    <div class=""question-area"">
                        <p style=""font-size: 20px; font-weight: bold; margin: 0;"">Is there a person in this image?</p>
                    </div>
                </div>","1","main_experiment_trial","6","market_semantic","semantic_sequence","","","","",""
"","","","","","html-keyboard-response","134","390031","0.0-134.0","BE3906B26BB84198891AE3E9257E9E9E","019cf813-fde6-78b7-8a80-1f2ded4eb690","019cf80d-4266-7117-8a51-54e13c84aca4","","null","
                <div class=""stimulus-container"">
                    <img src=""images/semantic_sequence/market_semantic/market_semantic_7.png"" class=""exp-image"">
                    <div class=""question-area""></div> 
                </div>","null","","","","","","","","",""
"","","","","","html-button-response","135","390424","0.0-135.0","BE3906B26BB84198891AE3E9257E9E9E","019cf813-fde6-78b7-8a80-1f2ded4eb690","019cf80d-4266-7117-8a51-54e13c84aca4","","392","
                <div class=""stimulus-container"">
                    <img src=""images/semantic_sequence/market_semantic/market_semantic_7.png"" class=""exp-image"">
                    <div class=""question-area"">
                        <p style=""font-size: 20px; font-weight: bold; margin: 0;"">Is there a person in this image?</p>
                    </div>
                </div>","0","main_experiment_trial","7","market_semantic","semantic_sequence","","","","",""
"","","","","","html-keyboard-response","136","395435","0.0-136.0","BE3906B26BB84198891AE3E9257E9E9E","019cf813-fde6-78b7-8a80-1f2ded4eb690","019cf80d-4266-7117-8a51-54e13c84aca4","","null","
                <div class=""stimulus-container"">
                    <img src=""images/semantic_sequence/market_semantic/market_semantic_8.png"" class=""exp-image"">
                    <div class=""question-area""></div> 
                </div>","null","","","","","","","","",""
"","","","","","html-button-response","137","396009","0.0-137.0","BE3906B26BB84198891AE3E9257E9E9E","019cf813-fde6-78b7-8a80-1f2ded4eb690","019cf80d-4266-7117-8a51-54e13c84aca4","","573","
                <div class=""stimulus-container"">
                    <img src=""images/semantic_sequence/market_semantic/market_semantic_8.png"" class=""exp-image"">
                    <div class=""question-area"">
                        <p style=""font-size: 20px; font-weight: bold; margin: 0;"">Is there a person in this image?</p>
                    </div>
                </div>","0","main_experiment_trial","8","market_semantic","semantic_sequence","","","","",""
"","","","","","html-keyboard-response","138","401019","0.0-138.0","BE3906B26BB84198891AE3E9257E9E9E","019cf813-fde6-78b7-8a80-1f2ded4eb690","019cf80d-4266-7117-8a51-54e13c84aca4","","null","
                <div class=""stimulus-container"">
                    <img src=""images/semantic_sequence/market_semantic/market_semantic_9.png"" class=""exp-image"">
                    <div class=""question-area""></div> 
                </div>","null","","","","","","","","",""
"","","","","","html-button-response","139","401356","0.0-139.0","BE3906B26BB84198891AE3E9257E9E9E","019cf813-fde6-78b7-8a80-1f2ded4eb690","019cf80d-4266-7117-8a51-54e13c84aca4","","336","
                <div class=""stimulus-container"">
                    <img src=""images/semantic_sequence/market_semantic/market_semantic_9.png"" class=""exp-image"">
                    <div class=""question-area"">
                        <p style=""font-size: 20px; font-weight: bold; margin: 0;"">Is there a person in this image?</p>
                    </div>
                </div>","0","main_experiment_trial","9","market_semantic","semantic_sequence","","","","",""
"","","","","","html-keyboard-response","140","406371","0.0-140.0","BE3906B26BB84198891AE3E9257E9E9E","019cf813-fde6-78b7-8a80-1f2ded4eb690","019cf80d-4266-7117-8a51-54e13c84aca4","","null","
                <div class=""stimulus-container"">
                    <img src=""images/semantic_sequence/market_semantic/market_semantic_ten.png"" class=""exp-image"">
                    <div class=""question-area""></div> 
                </div>","null","","","","","","","","",""
"","","","","","html-button-response","141","406912","0.0-141.0","BE3906B26BB84198891AE3E9257E9E9E","019cf813-fde6-78b7-8a80-1f2ded4eb690","019cf80d-4266-7117-8a51-54e13c84aca4","","539","
                <div class=""stimulus-container"">
                    <img src=""images/semantic_sequence/market_semantic/market_semantic_ten.png"" class=""exp-image"">
                    <div class=""question-area"">
                        <p style=""font-size: 20px; font-weight: bold; margin: 0;"">Is there a person in this image?</p>
                    </div>
                </div>","1","main_experiment_trial","ten","market_semantic","semantic_sequence","","","","",""
"","","","","","html-keyboard-response","142","407924","0.0-142.0","BE3906B26BB84198891AE3E9257E9E9E","019cf813-fde6-78b7-8a80-1f2ded4eb690","019cf80d-4266-7117-8a51-54e13c84aca4","","null","<div style=""background-color: white; width: 100vw; height: 100vh;""></div>","null","","","","","","","","",""
"","","","","","html-keyboard-response","143","412929","0.0-143.0","BE3906B26BB84198891AE3E9257E9E9E","019cf813-fde6-78b7-8a80-1f2ded4eb690","019cf80d-4266-7117-8a51-54e13c84aca4","","null","
                <div class=""stimulus-container"">
                    <img src=""images/schematic_sequence/interview_scheme/interview_scheme_1.png"" class=""exp-image"">
                    <div class=""question-area""></div> 
                </div>","null","","","","","","","","",""
"","","","","","html-button-response","144","415940","0.0-144.0","BE3906B26BB84198891AE3E9257E9E9E","019cf813-fde6-78b7-8a80-1f2ded4eb690","019cf80d-4266-7117-8a51-54e13c84aca4","","null","
                <div class=""stimulus-container"">
                    <img src=""images/schematic_sequence/interview_scheme/interview_scheme_1.png"" class=""exp-image"">
                    <div class=""question-area"">
                        <p style=""font-size: 20px; font-weight: bold; margin: 0;"">Is there a person in this image?</p>
                    </div>
                </div>","null","main_experiment_trial","1","interview_scheme","schematic_sequence","","","","",""
"","","","","","html-keyboard-response","145","420948","0.0-145.0","BE3906B26BB84198891AE3E9257E9E9E","019cf813-fde6-78b7-8a80-1f2ded4eb690","019cf80d-4266-7117-8a51-54e13c84aca4","","null","
                <div class=""stimulus-container"">
                    <img src=""images/schematic_sequence/interview_scheme/interview_scheme_2.png"" class=""exp-image"">
                    <div class=""question-area""></div> 
                </div>","null","","","","","","","","",""
"","","","","","html-button-response","146","421503","0.0-146.0","BE3906B26BB84198891AE3E9257E9E9E","019cf813-fde6-78b7-8a80-1f2ded4eb690","019cf80d-4266-7117-8a51-54e13c84aca4","","553","
                <div class=""stimulus-container"">
                    <img src=""images/schematic_sequence/interview_scheme/interview_scheme_2.png"" class=""exp-image"">
                    <div class=""question-area"">
                        <p style=""font-size: 20px; font-weight: bold; margin: 0;"">Is there a person in this image?</p>
                    </div>
                </div>","0","main_experiment_trial","2","interview_scheme","schematic_sequence","","","","",""
"","","","","","html-keyboard-response","147","426513","0.0-147.0","BE3906B26BB84198891AE3E9257E9E9E","019cf813-fde6-78b7-8a80-1f2ded4eb690","019cf80d-4266-7117-8a51-54e13c84aca4","","null","
                <div class=""stimulus-container"">
                    <img src=""images/schematic_sequence/interview_scheme/interview_scheme_3.png"" class=""exp-image"">
                    <div class=""question-area""></div> 
                </div>","null","","","","","","","","",""
"","","","","","html-button-response","148","429390","0.0-148.0","BE3906B26BB84198891AE3E9257E9E9E","019cf813-fde6-78b7-8a80-1f2ded4eb690","019cf80d-4266-7117-8a51-54e13c84aca4","","2876","
                <div class=""stimulus-container"">
                    <img src=""images/schematic_sequence/interview_scheme/interview_scheme_3.png"" class=""exp-image"">
                    <div class=""question-area"">
                        <p style=""font-size: 20px; font-weight: bold; margin: 0;"">Is there a person in this image?</p>
                    </div>
                </div>","1","main_experiment_trial","3","interview_scheme","schematic_sequence","","","","",""
"","","","","","html-keyboard-response","149","434402","0.0-149.0","BE3906B26BB84198891AE3E9257E9E9E","019cf813-fde6-78b7-8a80-1f2ded4eb690","019cf80d-4266-7117-8a51-54e13c84aca4","","null","
                <div class=""stimulus-container"">
                    <img src=""images/schematic_sequence/interview_scheme/interview_scheme_4.png"" class=""exp-image"">
                    <div class=""question-area""></div> 
                </div>","null","","","","","","","","",""
"","","","","","html-button-response","150","435360","0.0-150.0","BE3906B26BB84198891AE3E9257E9E9E","019cf813-fde6-78b7-8a80-1f2ded4eb690","019cf80d-4266-7117-8a51-54e13c84aca4","","956","
                <div class=""stimulus-container"">
                    <img src=""images/schematic_sequence/interview_scheme/interview_scheme_4.png"" class=""exp-image"">
                    <div class=""question-area"">
                        <p style=""font-size: 20px; font-weight: bold; margin: 0;"">Is there a person in this image?</p>
                    </div>
                </div>","1","main_experiment_trial","4","interview_scheme","schematic_sequence","","","","",""
"","","","","","html-keyboard-response","151","440372","0.0-151.0","BE3906B26BB84198891AE3E9257E9E9E","019cf813-fde6-78b7-8a80-1f2ded4eb690","019cf80d-4266-7117-8a51-54e13c84aca4","","null","
                <div class=""stimulus-container"">
                    <img src=""images/schematic_sequence/interview_scheme/interview_scheme_5.png"" class=""exp-image"">
                    <div class=""question-area""></div> 
                </div>","null","","","","","","","","",""
"","","","","","html-button-response","152","441146","0.0-152.0","BE3906B26BB84198891AE3E9257E9E9E","019cf813-fde6-78b7-8a80-1f2ded4eb690","019cf80d-4266-7117-8a51-54e13c84aca4","","773","
                <div class=""stimulus-container"">
                    <img src=""images/schematic_sequence/interview_scheme/interview_scheme_5.png"" class=""exp-image"">
                    <div class=""question-area"">
                        <p style=""font-size: 20px; font-weight: bold; margin: 0;"">Is there a person in this image?</p>
                    </div>
                </div>","0","main_experiment_trial","5","interview_scheme","schematic_sequence","","","","",""
"","","","","","html-keyboard-response","153","446156","0.0-153.0","BE3906B26BB84198891AE3E9257E9E9E","019cf813-fde6-78b7-8a80-1f2ded4eb690","019cf80d-4266-7117-8a51-54e13c84aca4","","null","
                <div class=""stimulus-container"">
                    <img src=""images/schematic_sequence/interview_scheme/interview_scheme_6.png"" class=""exp-image"">
                    <div class=""question-area""></div> 
                </div>","null","","","","","","","","",""
"","","","","","html-button-response","154","446716","0.0-154.0","BE3906B26BB84198891AE3E9257E9E9E","019cf813-fde6-78b7-8a80-1f2ded4eb690","019cf80d-4266-7117-8a51-54e13c84aca4","","558","
                <div class=""stimulus-container"">
                    <img src=""images/schematic_sequence/interview_scheme/interview_scheme_6.png"" class=""exp-image"">
                    <div class=""question-area"">
                        <p style=""font-size: 20px; font-weight: bold; margin: 0;"">Is there a person in this image?</p>
                    </div>
                </div>","0","main_experiment_trial","6","interview_scheme","schematic_sequence","","","","",""
"","","","","","html-keyboard-response","155","451724","0.0-155.0","BE3906B26BB84198891AE3E9257E9E9E","019cf813-fde6-78b7-8a80-1f2ded4eb690","019cf80d-4266-7117-8a51-54e13c84aca4","","null","
                <div class=""stimulus-container"">
                    <img src=""images/schematic_sequence/interview_scheme/interview_scheme_7.png"" class=""exp-image"">
                    <div class=""question-area""></div> 
                </div>","null","","","","","","","","",""
"","","","","","html-button-response","156","452573","0.0-156.0","BE3906B26BB84198891AE3E9257E9E9E","019cf813-fde6-78b7-8a80-1f2ded4eb690","019cf80d-4266-7117-8a51-54e13c84aca4","","847","
                <div class=""stimulus-container"">
                    <img src=""images/schematic_sequence/interview_scheme/interview_scheme_7.png"" class=""exp-image"">
                    <div class=""question-area"">
                        <p style=""font-size: 20px; font-weight: bold; margin: 0;"">Is there a person in this image?</p>
                    </div>
                </div>","0","main_experiment_trial","7","interview_scheme","schematic_sequence","","","","",""
"","","","","","html-keyboard-response","157","457589","0.0-157.0","BE3906B26BB84198891AE3E9257E9E9E","019cf813-fde6-78b7-8a80-1f2ded4eb690","019cf80d-4266-7117-8a51-54e13c84aca4","","null","
                <div class=""stimulus-container"">
                    <img src=""images/schematic_sequence/interview_scheme/interview_scheme_8.png"" class=""exp-image"">
                    <div class=""question-area""></div> 
                </div>","null","","","","","","","","",""
"","","","","","html-button-response","158","457927","0.0-158.0","BE3906B26BB84198891AE3E9257E9E9E","019cf813-fde6-78b7-8a80-1f2ded4eb690","019cf80d-4266-7117-8a51-54e13c84aca4","","337","
                <div class=""stimulus-container"">
                    <img src=""images/schematic_sequence/interview_scheme/interview_scheme_8.png"" class=""exp-image"">
                    <div class=""question-area"">
                        <p style=""font-size: 20px; font-weight: bold; margin: 0;"">Is there a person in this image?</p>
                    </div>
                </div>","0","main_experiment_trial","8","interview_scheme","schematic_sequence","","","","",""
"","","","","","html-keyboard-response","159","462941","0.0-159.0","BE3906B26BB84198891AE3E9257E9E9E","019cf813-fde6-78b7-8a80-1f2ded4eb690","019cf80d-4266-7117-8a51-54e13c84aca4","","null","
                <div class=""stimulus-container"">
                    <img src=""images/schematic_sequence/interview_scheme/interview_scheme_9.png"" class=""exp-image"">
                    <div class=""question-area""></div> 
                </div>","null","","","","","","","","",""
"","","","","","html-button-response","160","463314","0.0-160.0","BE3906B26BB84198891AE3E9257E9E9E","019cf813-fde6-78b7-8a80-1f2ded4eb690","019cf80d-4266-7117-8a51-54e13c84aca4","","372","
                <div class=""stimulus-container"">
                    <img src=""images/schematic_sequence/interview_scheme/interview_scheme_9.png"" class=""exp-image"">
                    <div class=""question-area"">
                        <p style=""font-size: 20px; font-weight: bold; margin: 0;"">Is there a person in this image?</p>
                    </div>
                </div>","0","main_experiment_trial","9","interview_scheme","schematic_sequence","","","","",""
"","","","","","html-keyboard-response","161","468324","0.0-161.0","BE3906B26BB84198891AE3E9257E9E9E","019cf813-fde6-78b7-8a80-1f2ded4eb690","019cf80d-4266-7117-8a51-54e13c84aca4","","null","
                <div class=""stimulus-container"">
                    <img src=""images/schematic_sequence/interview_scheme/interview_scheme_ten.png"" class=""exp-image"">
                    <div class=""question-area""></div> 
                </div>","null","","","","","","","","",""
"","","","","","html-button-response","162","468692","0.0-162.0","BE3906B26BB84198891AE3E9257E9E9E","019cf813-fde6-78b7-8a80-1f2ded4eb690","019cf80d-4266-7117-8a51-54e13c84aca4","","366","
                <div class=""stimulus-container"">
                    <img src=""images/schematic_sequence/interview_scheme/interview_scheme_ten.png"" class=""exp-image"">
                    <div class=""question-area"">
                        <p style=""font-size: 20px; font-weight: bold; margin: 0;"">Is there a person in this image?</p>
                    </div>
                </div>","0","main_experiment_trial","ten","interview_scheme","schematic_sequence","","","","",""
"","","","","","html-keyboard-response","163","469700","0.0-163.0","BE3906B26BB84198891AE3E9257E9E9E","019cf813-fde6-78b7-8a80-1f2ded4eb690","019cf80d-4266-7117-8a51-54e13c84aca4","","null","<div style=""background-color: white; width: 100vw; height: 100vh;""></div>","null","","","","","","","","",""
"","","","","","html-keyboard-response","164","474708","0.0-164.0","BE3906B26BB84198891AE3E9257E9E9E","019cf813-fde6-78b7-8a80-1f2ded4eb690","019cf80d-4266-7117-8a51-54e13c84aca4","","null","
                <div class=""stimulus-container"">
                    <img src=""images/schematic_sequence/hotel_scheme/hotel_scheme_1.png"" class=""exp-image"">
                    <div class=""question-area""></div> 
                </div>","null","","","","","","","","",""
"","","","","","html-button-response","165","475140","0.0-165.0","BE3906B26BB84198891AE3E9257E9E9E","019cf813-fde6-78b7-8a80-1f2ded4eb690","019cf80d-4266-7117-8a51-54e13c84aca4","","431","
                <div class=""stimulus-container"">
                    <img src=""images/schematic_sequence/hotel_scheme/hotel_scheme_1.png"" class=""exp-image"">
                    <div class=""question-area"">
                        <p style=""font-size: 20px; font-weight: bold; margin: 0;"">Is there a person in this image?</p>
                    </div>
                </div>","1","main_experiment_trial","1","hotel_scheme","schematic_sequence","","","","",""
"","","","","","html-keyboard-response","166","480155","0.0-166.0","BE3906B26BB84198891AE3E9257E9E9E","019cf813-fde6-78b7-8a80-1f2ded4eb690","019cf80d-4266-7117-8a51-54e13c84aca4","","null","
                <div class=""stimulus-container"">
                    <img src=""images/schematic_sequence/hotel_scheme/hotel_scheme_2.png"" class=""exp-image"">
                    <div class=""question-area""></div> 
                </div>","null","","","","","","","","",""
"","","","","","html-button-response","167","480762","0.0-167.0","BE3906B26BB84198891AE3E9257E9E9E","019cf813-fde6-78b7-8a80-1f2ded4eb690","019cf80d-4266-7117-8a51-54e13c84aca4","","606","
                <div class=""stimulus-container"">
                    <img src=""images/schematic_sequence/hotel_scheme/hotel_scheme_2.png"" class=""exp-image"">
                    <div class=""question-area"">
                        <p style=""font-size: 20px; font-weight: bold; margin: 0;"">Is there a person in this image?</p>
                    </div>
                </div>","0","main_experiment_trial","2","hotel_scheme","schematic_sequence","","","","",""
"","","","","","html-keyboard-response","168","485768","0.0-168.0","BE3906B26BB84198891AE3E9257E9E9E","019cf813-fde6-78b7-8a80-1f2ded4eb690","019cf80d-4266-7117-8a51-54e13c84aca4","","null","
                <div class=""stimulus-container"">
                    <img src=""images/schematic_sequence/hotel_scheme/hotel_scheme_3.png"" class=""exp-image"">
                    <div class=""question-area""></div> 
                </div>","null","","","","","","","","",""
"","","","","","html-button-response","169","486710","0.0-169.0","BE3906B26BB84198891AE3E9257E9E9E","019cf813-fde6-78b7-8a80-1f2ded4eb690","019cf80d-4266-7117-8a51-54e13c84aca4","","940","
                <div class=""stimulus-container"">
                    <img src=""images/schematic_sequence/hotel_scheme/hotel_scheme_3.png"" class=""exp-image"">
                    <div class=""question-area"">
                        <p style=""font-size: 20px; font-weight: bold; margin: 0;"">Is there a person in this image?</p>
                    </div>
                </div>","0","main_experiment_trial","3","hotel_scheme","schematic_sequence","","","","",""
"","","","","","html-keyboard-response","170","491725","0.0-170.0","BE3906B26BB84198891AE3E9257E9E9E","019cf813-fde6-78b7-8a80-1f2ded4eb690","019cf80d-4266-7117-8a51-54e13c84aca4","","null","
                <div class=""stimulus-container"">
                    <img src=""images/schematic_sequence/hotel_scheme/hotel_scheme_4.png"" class=""exp-image"">
                    <div class=""question-area""></div> 
                </div>","null","","","","","","","","",""
"","","","","","html-button-response","171","493666","0.0-171.0","BE3906B26BB84198891AE3E9257E9E9E","019cf813-fde6-78b7-8a80-1f2ded4eb690","019cf80d-4266-7117-8a51-54e13c84aca4","","1939","
                <div class=""stimulus-container"">
                    <img src=""images/schematic_sequence/hotel_scheme/hotel_scheme_4.png"" class=""exp-image"">
                    <div class=""question-area"">
                        <p style=""font-size: 20px; font-weight: bold; margin: 0;"">Is there a person in this image?</p>
                    </div>
                </div>","1","main_experiment_trial","4","hotel_scheme","schematic_sequence","","","","",""
"","","","","","html-keyboard-response","172","498677","0.0-172.0","BE3906B26BB84198891AE3E9257E9E9E","019cf813-fde6-78b7-8a80-1f2ded4eb690","019cf80d-4266-7117-8a51-54e13c84aca4","","null","
                <div class=""stimulus-container"">
                    <img src=""images/schematic_sequence/hotel_scheme/hotel_scheme_5.png"" class=""exp-image"">
                    <div class=""question-area""></div> 
                </div>","null","","","","","","","","",""
"","","","","","html-button-response","173","499781","0.0-173.0","BE3906B26BB84198891AE3E9257E9E9E","019cf813-fde6-78b7-8a80-1f2ded4eb690","019cf80d-4266-7117-8a51-54e13c84aca4","","1103","
                <div class=""stimulus-container"">
                    <img src=""images/schematic_sequence/hotel_scheme/hotel_scheme_5.png"" class=""exp-image"">
                    <div class=""question-area"">
                        <p style=""font-size: 20px; font-weight: bold; margin: 0;"">Is there a person in this image?</p>
                    </div>
                </div>","0","main_experiment_trial","5","hotel_scheme","schematic_sequence","","","","",""
"","","","","","html-keyboard-response","174","504797","0.0-174.0","BE3906B26BB84198891AE3E9257E9E9E","019cf813-fde6-78b7-8a80-1f2ded4eb690","019cf80d-4266-7117-8a51-54e13c84aca4","","null","
                <div class=""stimulus-container"">
                    <img src=""images/schematic_sequence/hotel_scheme/hotel_scheme_6.png"" class=""exp-image"">
                    <div class=""question-area""></div> 
                </div>","null","","","","","","","","",""
"","","","","","html-button-response","175","505822","0.0-175.0","BE3906B26BB84198891AE3E9257E9E9E","019cf813-fde6-78b7-8a80-1f2ded4eb690","019cf80d-4266-7117-8a51-54e13c84aca4","","1023","
                <div class=""stimulus-container"">
                    <img src=""images/schematic_sequence/hotel_scheme/hotel_scheme_6.png"" class=""exp-image"">
                    <div class=""question-area"">
                        <p style=""font-size: 20px; font-weight: bold; margin: 0;"">Is there a person in this image?</p>
                    </div>
                </div>","0","main_experiment_trial","6","hotel_scheme","schematic_sequence","","","","",""
"","","","","","html-keyboard-response","176","510833","0.0-176.0","BE3906B26BB84198891AE3E9257E9E9E","019cf813-fde6-78b7-8a80-1f2ded4eb690","019cf80d-4266-7117-8a51-54e13c84aca4","","null","
                <div class=""stimulus-container"">
                    <img src=""images/schematic_sequence/hotel_scheme/hotel_scheme_7.png"" class=""exp-image"">
                    <div class=""question-area""></div> 
                </div>","null","","","","","","","","",""
"","","","","","html-button-response","177","511807","0.0-177.0","BE3906B26BB84198891AE3E9257E9E9E","019cf813-fde6-78b7-8a80-1f2ded4eb690","019cf80d-4266-7117-8a51-54e13c84aca4","","973","
                <div class=""stimulus-container"">
                    <img src=""images/schematic_sequence/hotel_scheme/hotel_scheme_7.png"" class=""exp-image"">
                    <div class=""question-area"">
                        <p style=""font-size: 20px; font-weight: bold; margin: 0;"">Is there a person in this image?</p>
                    </div>
                </div>","0","main_experiment_trial","7","hotel_scheme","schematic_sequence","","","","",""
"","","","","","html-keyboard-response","178","516821","0.0-178.0","BE3906B26BB84198891AE3E9257E9E9E","019cf813-fde6-78b7-8a80-1f2ded4eb690","019cf80d-4266-7117-8a51-54e13c84aca4","","null","
                <div class=""stimulus-container"">
                    <img src=""images/schematic_sequence/hotel_scheme/hotel_scheme_8.png"" class=""exp-image"">
                    <div class=""question-area""></div> 
                </div>","null","","","","","","","","",""
"","","","","","html-button-response","179","518632","0.0-179.0","BE3906B26BB84198891AE3E9257E9E9E","019cf813-fde6-78b7-8a80-1f2ded4eb690","019cf80d-4266-7117-8a51-54e13c84aca4","","1809","
                <div class=""stimulus-container"">
                    <img src=""images/schematic_sequence/hotel_scheme/hotel_scheme_8.png"" class=""exp-image"">
                    <div class=""question-area"">
                        <p style=""font-size: 20px; font-weight: bold; margin: 0;"">Is there a person in this image?</p>
                    </div>
                </div>","0","main_experiment_trial","8","hotel_scheme","schematic_sequence","","","","",""
"","","","","","html-keyboard-response","180","523646","0.0-180.0","BE3906B26BB84198891AE3E9257E9E9E","019cf813-fde6-78b7-8a80-1f2ded4eb690","019cf80d-4266-7117-8a51-54e13c84aca4","","null","
                <div class=""stimulus-container"">
                    <img src=""images/schematic_sequence/hotel_scheme/hotel_scheme_9.png"" class=""exp-image"">
                    <div class=""question-area""></div> 
                </div>","null","","","","","","","","",""
"","","","","","html-button-response","181","524178","0.0-181.0","BE3906B26BB84198891AE3E9257E9E9E","019cf813-fde6-78b7-8a80-1f2ded4eb690","019cf80d-4266-7117-8a51-54e13c84aca4","","531","
                <div class=""stimulus-container"">
