"success","timeout","failed_images","failed_audio","failed_video","trial_type","trial_index","time_elapsed","internal_node_id","subject_id","study_id","session_id","view_history","rt","stimulus","response","task","image_index","folder","valuable_image_index","valuable_X","chosen_image_index","distance_from_X"
"false","false","[]","[]","[]","preload","0","28362","0.0-0.0","76B7C9ED783E4A2EB3064083D23A5E14","019ce654-2a31-7fbb-8f0d-e20639314d71","019ce643-47c6-74a0-b3d2-7bf5651ded46","","","","","","","","","","",""
"","","","","","instructions","1","734048","0.0-1.0","76B7C9ED783E4A2EB3064083D23A5E14","019ce654-2a31-7fbb-8f0d-e20639314d71","019ce643-47c6-74a0-b3d2-7bf5651ded46","[{""page_index"":0,""viewing_time"":705683}]","705683","","","","","","","","",""
"","","","","","instructions","2","773174","0.0-2.0","76B7C9ED783E4A2EB3064083D23A5E14","019ce654-2a31-7fbb-8f0d-e20639314d71","019ce643-47c6-74a0-b3d2-7bf5651ded46","[{""page_index"":0,""viewing_time"":39124}]","39124","","","","","","","","",""
"true","","","","","fullscreen","3","797844","0.0-3.0","76B7C9ED783E4A2EB3064083D23A5E14","019ce654-2a31-7fbb-8f0d-e20639314d71","019ce643-47c6-74a0-b3d2-7bf5651ded46","","23656","","","","","","","","",""
"","","","","","instructions","4","813701","0.0-4.0","76B7C9ED783E4A2EB3064083D23A5E14","019ce654-2a31-7fbb-8f0d-e20639314d71","019ce643-47c6-74a0-b3d2-7bf5651ded46","[{""page_index"":0,""viewing_time"":15856}]","15857","","","","","","","","",""
"","","","","","instructions","5","829283","0.0-5.0","76B7C9ED783E4A2EB3064083D23A5E14","019ce654-2a31-7fbb-8f0d-e20639314d71","019ce643-47c6-74a0-b3d2-7bf5651ded46","[{""page_index"":0,""viewing_time"":15580}]","15581","","","","","","","","",""
"","","","","","html-keyboard-response","6","833287","0.0-6.0","76B7C9ED783E4A2EB3064083D23A5E14","019ce654-2a31-7fbb-8f0d-e20639314d71","019ce643-47c6-74a0-b3d2-7bf5651ded46","","null","
                <div class=""stimulus-container"">
                    <img src=""images/instructions/movie_1.png"" class=""exp-image"">
                    <div class=""question-area""></div> 
                </div>","null","","","","","","",""
"","","","","","html-button-response","7","835996","0.0-7.0","76B7C9ED783E4A2EB3064083D23A5E14","019ce654-2a31-7fbb-8f0d-e20639314d71","019ce643-47c6-74a0-b3d2-7bf5651ded46","","2706","
                <div class=""stimulus-container"">
                    <img src=""images/instructions/movie_1.png"" class=""exp-image"">
                    <div class=""question-area"">
                        <p style=""font-size: 20px; font-weight: bold; margin: 0;"">Was there a person in this image?</p>
                    </div>
                </div>","0","example_question","1","","","","",""
"","","","","","html-keyboard-response","8","840008","0.0-8.0","76B7C9ED783E4A2EB3064083D23A5E14","019ce654-2a31-7fbb-8f0d-e20639314d71","019ce643-47c6-74a0-b3d2-7bf5651ded46","","null","
                <div class=""stimulus-container"">
                    <img src=""images/instructions/movie_2.png"" class=""exp-image"">
                    <div class=""question-area""></div> 
                </div>","null","","","","","","",""
"","","","","","html-button-response","9","841724","0.0-9.0","76B7C9ED783E4A2EB3064083D23A5E14","019ce654-2a31-7fbb-8f0d-e20639314d71","019ce643-47c6-74a0-b3d2-7bf5651ded46","","1714","
                <div class=""stimulus-container"">
                    <img src=""images/instructions/movie_2.png"" class=""exp-image"">
                    <div class=""question-area"">
                        <p style=""font-size: 20px; font-weight: bold; margin: 0;"">Was there a person in this image?</p>
                    </div>
                </div>","0","example_question","2","","","","",""
"","","","","","html-keyboard-response","10","845729","0.0-10.0","76B7C9ED783E4A2EB3064083D23A5E14","019ce654-2a31-7fbb-8f0d-e20639314d71","019ce643-47c6-74a0-b3d2-7bf5651ded46","","null","
                <div class=""stimulus-container"">
                    <img src=""images/instructions/movie_3.png"" class=""exp-image"">
                    <div class=""question-area""></div> 
                </div>","null","","","","","","",""
"","","","","","html-button-response","11","847319","0.0-11.0","76B7C9ED783E4A2EB3064083D23A5E14","019ce654-2a31-7fbb-8f0d-e20639314d71","019ce643-47c6-74a0-b3d2-7bf5651ded46","","1588","
                <div class=""stimulus-container"">
                    <img src=""images/instructions/movie_3.png"" class=""exp-image"">
                    <div class=""question-area"">
                        <p style=""font-size: 20px; font-weight: bold; margin: 0;"">Was there a person in this image?</p>
                    </div>
                </div>","0","example_question","3","","","","",""
"","","","","","html-keyboard-response","12","851331","0.0-12.0","76B7C9ED783E4A2EB3064083D23A5E14","019ce654-2a31-7fbb-8f0d-e20639314d71","019ce643-47c6-74a0-b3d2-7bf5651ded46","","null","
                <div class=""stimulus-container"">
                    <img src=""images/instructions/movie_4.png"" class=""exp-image"">
                    <div class=""question-area""></div> 
                </div>","null","","","","","","",""
"","","","","","html-button-response","13","852356","0.0-13.0","76B7C9ED783E4A2EB3064083D23A5E14","019ce654-2a31-7fbb-8f0d-e20639314d71","019ce643-47c6-74a0-b3d2-7bf5651ded46","","1023","
                <div class=""stimulus-container"">
                    <img src=""images/instructions/movie_4.png"" class=""exp-image"">
                    <div class=""question-area"">
                        <p style=""font-size: 20px; font-weight: bold; margin: 0;"">Was there a person in this image?</p>
                    </div>
                </div>","0","example_question","4","","","","",""
"","","","","","instructions","14","855978","0.0-14.0","76B7C9ED783E4A2EB3064083D23A5E14","019ce654-2a31-7fbb-8f0d-e20639314d71","019ce643-47c6-74a0-b3d2-7bf5651ded46","[{""page_index"":0,""viewing_time"":3621}]","3621","","","","","","","","",""
"","","","","","html-keyboard-response","15","856989","0.0-15.0","76B7C9ED783E4A2EB3064083D23A5E14","019ce654-2a31-7fbb-8f0d-e20639314d71","019ce643-47c6-74a0-b3d2-7bf5651ded46","","null","<div style=""background-color: gray; width: 100vw; height: 100vh;""></div>","null","","","","","","",""
"","","","","","html-keyboard-response","16","861994","0.0-16.0","76B7C9ED783E4A2EB3064083D23A5E14","019ce654-2a31-7fbb-8f0d-e20639314d71","019ce643-47c6-74a0-b3d2-7bf5651ded46","","null","
                    <div class=""stimulus-container"">
                        <img src=""images/causal_sequence/dog_causal/dog_causal_1.png"" class=""exp-image"">
                        <div class=""question-area""></div> 
                    </div>","null","","","","","","",""
"","","","","","html-button-response","17","863460","0.0-17.0","76B7C9ED783E4A2EB3064083D23A5E14","019ce654-2a31-7fbb-8f0d-e20639314d71","019ce643-47c6-74a0-b3d2-7bf5651ded46","","1464","
                    <div class=""stimulus-container"">
                        <img src=""images/causal_sequence/dog_causal/dog_causal_1.png"" class=""exp-image"">
                        <div class=""question-area"">
                            <p style=""font-size: 20px; font-weight: bold; margin: 0;"">Is there a person in this image?</p>
                        </div>
                    </div>","0","main_causal_task","1","dog_causal","","","",""
"","","","","","html-keyboard-response","18","868469","0.0-18.0","76B7C9ED783E4A2EB3064083D23A5E14","019ce654-2a31-7fbb-8f0d-e20639314d71","019ce643-47c6-74a0-b3d2-7bf5651ded46","","null","
                    <div class=""stimulus-container"">
                        <img src=""images/causal_sequence/dog_causal/dog_causal_2.png"" class=""exp-image"">
                        <div class=""question-area""></div> 
                    </div>","null","","","","","","",""
"","","","","","html-button-response","19","869980","0.0-19.0","76B7C9ED783E4A2EB3064083D23A5E14","019ce654-2a31-7fbb-8f0d-e20639314d71","019ce643-47c6-74a0-b3d2-7bf5651ded46","","1509","
                    <div class=""stimulus-container"">
                        <img src=""images/causal_sequence/dog_causal/dog_causal_2.png"" class=""exp-image"">
                        <div class=""question-area"">
                            <p style=""font-size: 20px; font-weight: bold; margin: 0;"">Is there a person in this image?</p>
                        </div>
                    </div>","0","main_causal_task","2","dog_causal","","","",""
"","","","","","html-keyboard-response","20","874986","0.0-20.0","76B7C9ED783E4A2EB3064083D23A5E14","019ce654-2a31-7fbb-8f0d-e20639314d71","019ce643-47c6-74a0-b3d2-7bf5651ded46","","null","
                    <div class=""stimulus-container"">
                        <img src=""images/causal_sequence/dog_causal/dog_causal_3.png"" class=""exp-image"">
                        <div class=""question-area""></div> 
                    </div>","null","","","","","","",""
"","","","","","html-button-response","21","876381","0.0-21.0","76B7C9ED783E4A2EB3064083D23A5E14","019ce654-2a31-7fbb-8f0d-e20639314d71","019ce643-47c6-74a0-b3d2-7bf5651ded46","","1393","
                    <div class=""stimulus-container"">
                        <img src=""images/causal_sequence/dog_causal/dog_causal_3.png"" class=""exp-image"">
                        <div class=""question-area"">
                            <p style=""font-size: 20px; font-weight: bold; margin: 0;"">Is there a person in this image?</p>
                        </div>
                    </div>","0","main_causal_task","3","dog_causal","","","",""
"","","","","","html-keyboard-response","22","881400","0.0-22.0","76B7C9ED783E4A2EB3064083D23A5E14","019ce654-2a31-7fbb-8f0d-e20639314d71","019ce643-47c6-74a0-b3d2-7bf5651ded46","","null","
                    <div class=""stimulus-container"">
                        <img src=""images/causal_sequence/dog_causal/dog_causal_4.png"" class=""exp-image"">
                        <div class=""question-area""></div> 
                    </div>","null","","","","","","",""
"","","","","","html-button-response","23","882879","0.0-23.0","76B7C9ED783E4A2EB3064083D23A5E14","019ce654-2a31-7fbb-8f0d-e20639314d71","019ce643-47c6-74a0-b3d2-7bf5651ded46","","1477","
                    <div class=""stimulus-container"">
                        <img src=""images/causal_sequence/dog_causal/dog_causal_4.png"" class=""exp-image"">
                        <div class=""question-area"">
                            <p style=""font-size: 20px; font-weight: bold; margin: 0;"">Is there a person in this image?</p>
                        </div>
                    </div>","0","main_causal_task","4","dog_causal","","","",""
"","","","","","html-keyboard-response","24","887886","0.0-24.0","76B7C9ED783E4A2EB3064083D23A5E14","019ce654-2a31-7fbb-8f0d-e20639314d71","019ce643-47c6-74a0-b3d2-7bf5651ded46","","null","
                    <div class=""stimulus-container"">
                        <img src=""images/causal_sequence/dog_causal/dog_causal_5.png"" class=""exp-image"">
                        <div class=""question-area""></div> 
                    </div>","null","","","","","","",""
"","","","","","html-button-response","25","889029","0.0-25.0","76B7C9ED783E4A2EB3064083D23A5E14","019ce654-2a31-7fbb-8f0d-e20639314d71","019ce643-47c6-74a0-b3d2-7bf5651ded46","","1141","
                    <div class=""stimulus-container"">
                        <img src=""images/causal_sequence/dog_causal/dog_causal_5.png"" class=""exp-image"">
                        <div class=""question-area"">
                            <p style=""font-size: 20px; font-weight: bold; margin: 0;"">Is there a person in this image?</p>
                        </div>
                    </div>","0","main_causal_task","5","dog_causal","","","",""
"","","","","","html-keyboard-response","26","894038","0.0-26.0","76B7C9ED783E4A2EB3064083D23A5E14","019ce654-2a31-7fbb-8f0d-e20639314d71","019ce643-47c6-74a0-b3d2-7bf5651ded46","","null","
                    <div class=""stimulus-container"">
                        <img src=""images/causal_sequence/dog_causal/dog_causal_6.png"" class=""exp-image"">
                        <div class=""question-area""></div> 
                    </div>","null","","","","","","",""
"","","","","","html-button-response","27","895372","0.0-27.0","76B7C9ED783E4A2EB3064083D23A5E14","019ce654-2a31-7fbb-8f0d-e20639314d71","019ce643-47c6-74a0-b3d2-7bf5651ded46","","1333","
                    <div class=""stimulus-container"">
                        <img src=""images/causal_sequence/dog_causal/dog_causal_6.png"" class=""exp-image"">
                        <div class=""question-area"">
                            <p style=""font-size: 20px; font-weight: bold; margin: 0;"">Is there a person in this image?</p>
                        </div>
                    </div>","0","main_causal_task","6","dog_causal","","","",""
"","","","","","html-keyboard-response","28","900378","0.0-28.0","76B7C9ED783E4A2EB3064083D23A5E14","019ce654-2a31-7fbb-8f0d-e20639314d71","019ce643-47c6-74a0-b3d2-7bf5651ded46","","null","
                    <div class=""stimulus-container"">
                        <img src=""images/causal_sequence/dog_causal/dog_causal_7.png"" class=""exp-image"">
                        <div class=""question-area""></div> 
                    </div>","null","","","","","","",""
"","","","","","html-button-response","29","901462","0.0-29.0","76B7C9ED783E4A2EB3064083D23A5E14","019ce654-2a31-7fbb-8f0d-e20639314d71","019ce643-47c6-74a0-b3d2-7bf5651ded46","","1082","
                    <div class=""stimulus-container"">
                        <img src=""images/causal_sequence/dog_causal/dog_causal_7.png"" class=""exp-image"">
                        <div class=""question-area"">
                            <p style=""font-size: 20px; font-weight: bold; margin: 0;"">Is there a person in this image?</p>
                        </div>
                    </div>","0","main_causal_task","7","dog_causal","","","",""
"","","","","","html-keyboard-response","30","906473","0.0-30.0","76B7C9ED783E4A2EB3064083D23A5E14","019ce654-2a31-7fbb-8f0d-e20639314d71","019ce643-47c6-74a0-b3d2-7bf5651ded46","","null","
                    <div class=""stimulus-container"">
                        <img src=""images/causal_sequence/dog_causal/dog_causal_8.png"" class=""exp-image"">
                        <div class=""question-area""></div> 
                    </div>","null","","","","","","",""
"","","","","","html-button-response","31","908276","0.0-31.0","76B7C9ED783E4A2EB3064083D23A5E14","019ce654-2a31-7fbb-8f0d-e20639314d71","019ce643-47c6-74a0-b3d2-7bf5651ded46","","1801","
                    <div class=""stimulus-container"">
                        <img src=""images/causal_sequence/dog_causal/dog_causal_8.png"" class=""exp-image"">
                        <div class=""question-area"">
                            <p style=""font-size: 20px; font-weight: bold; margin: 0;"">Is there a person in this image?</p>
                        </div>
                    </div>","0","main_causal_task","8","dog_causal","","","",""
"","","","","","html-keyboard-response","32","913286","0.0-32.0","76B7C9ED783E4A2EB3064083D23A5E14","019ce654-2a31-7fbb-8f0d-e20639314d71","019ce643-47c6-74a0-b3d2-7bf5651ded46","","null","
                    <div class=""stimulus-container"">
                        <img src=""images/causal_sequence/dog_causal/dog_causal_9.png"" class=""exp-image"">
                        <div class=""question-area""></div> 
                    </div>","null","","","","","","",""
"","","","","","html-button-response","33","914356","0.0-33.0","76B7C9ED783E4A2EB3064083D23A5E14","019ce654-2a31-7fbb-8f0d-e20639314d71","019ce643-47c6-74a0-b3d2-7bf5651ded46","","1068","
                    <div class=""stimulus-container"">
                        <img src=""images/causal_sequence/dog_causal/dog_causal_9.png"" class=""exp-image"">
                        <div class=""question-area"">
                            <p style=""font-size: 20px; font-weight: bold; margin: 0;"">Is there a person in this image?</p>
                        </div>
                    </div>","0","main_causal_task","9","dog_causal","","","",""
"","","","","","html-keyboard-response","34","915363","0.0-34.0","76B7C9ED783E4A2EB3064083D23A5E14","019ce654-2a31-7fbb-8f0d-e20639314d71","019ce643-47c6-74a0-b3d2-7bf5651ded46","","null","<div style=""background-color: gray; width: 100vw; height: 100vh;""></div>","null","","","","","","",""
"","","","","","html-keyboard-response","35","920375","0.0-35.0","76B7C9ED783E4A2EB3064083D23A5E14","019ce654-2a31-7fbb-8f0d-e20639314d71","019ce643-47c6-74a0-b3d2-7bf5651ded46","","null","
                    <div class=""stimulus-container"">
                        <img src=""images/causal_sequence/museum_causal/museum_causal_1.png"" class=""exp-image"">
                        <div class=""question-area""></div> 
                    </div>","null","","","","","","",""
"","","","","","html-button-response","36","922000","0.0-36.0","76B7C9ED783E4A2EB3064083D23A5E14","019ce654-2a31-7fbb-8f0d-e20639314d71","019ce643-47c6-74a0-b3d2-7bf5651ded46","","1623","
                    <div class=""stimulus-container"">
                        <img src=""images/causal_sequence/museum_causal/museum_causal_1.png"" class=""exp-image"">
                        <div class=""question-area"">
                            <p style=""font-size: 20px; font-weight: bold; margin: 0;"">Is there a person in this image?</p>
                        </div>
                    </div>","0","main_causal_task","1","museum_causal","","","",""
"","","","","","html-keyboard-response","37","927008","0.0-37.0","76B7C9ED783E4A2EB3064083D23A5E14","019ce654-2a31-7fbb-8f0d-e20639314d71","019ce643-47c6-74a0-b3d2-7bf5651ded46","","null","
                    <div class=""stimulus-container"">
                        <img src=""images/causal_sequence/museum_causal/museum_causal_2.png"" class=""exp-image"">
                        <div class=""question-area""></div> 
                    </div>","null","","","","","","",""
"","","","","","html-button-response","38","929430","0.0-38.0","76B7C9ED783E4A2EB3064083D23A5E14","019ce654-2a31-7fbb-8f0d-e20639314d71","019ce643-47c6-74a0-b3d2-7bf5651ded46","","2420","
                    <div class=""stimulus-container"">
                        <img src=""images/causal_sequence/museum_causal/museum_causal_2.png"" class=""exp-image"">
                        <div class=""question-area"">
                            <p style=""font-size: 20px; font-weight: bold; margin: 0;"">Is there a person in this image?</p>
                        </div>
                    </div>","1","main_causal_task","2","museum_causal","","","",""
"","","","","","html-keyboard-response","39","934445","0.0-39.0","76B7C9ED783E4A2EB3064083D23A5E14","019ce654-2a31-7fbb-8f0d-e20639314d71","019ce643-47c6-74a0-b3d2-7bf5651ded46","","null","
                    <div class=""stimulus-container"">
                        <img src=""images/causal_sequence/museum_causal/museum_causal_3.png"" class=""exp-image"">
                        <div class=""question-area""></div> 
                    </div>","null","","","","","","",""
"","","","","","html-button-response","40","935816","0.0-40.0","76B7C9ED783E4A2EB3064083D23A5E14","019ce654-2a31-7fbb-8f0d-e20639314d71","019ce643-47c6-74a0-b3d2-7bf5651ded46","","1370","
                    <div class=""stimulus-container"">
                        <img src=""images/causal_sequence/museum_causal/museum_causal_3.png"" class=""exp-image"">
                        <div class=""question-area"">
                            <p style=""font-size: 20px; font-weight: bold; margin: 0;"">Is there a person in this image?</p>
                        </div>
                    </div>","0","main_causal_task","3","museum_causal","","","",""
"","","","","","html-keyboard-response","41","940824","0.0-41.0","76B7C9ED783E4A2EB3064083D23A5E14","019ce654-2a31-7fbb-8f0d-e20639314d71","019ce643-47c6-74a0-b3d2-7bf5651ded46","","null","
                    <div class=""stimulus-container"">
                        <img src=""images/causal_sequence/museum_causal/museum_causal_4.png"" class=""exp-image"">
                        <div class=""question-area""></div> 
                    </div>","null","","","","","","",""
"","","","","","html-button-response","42","941942","0.0-42.0","76B7C9ED783E4A2EB3064083D23A5E14","019ce654-2a31-7fbb-8f0d-e20639314d71","019ce643-47c6-74a0-b3d2-7bf5651ded46","","1116","
                    <div class=""stimulus-container"">
                        <img src=""images/causal_sequence/museum_causal/museum_causal_4.png"" class=""exp-image"">
                        <div class=""question-area"">
                            <p style=""font-size: 20px; font-weight: bold; margin: 0;"">Is there a person in this image?</p>
                        </div>
                    </div>","0","main_causal_task","4","museum_causal","","","",""
"","","","","","html-keyboard-response","43","946967","0.0-43.0","76B7C9ED783E4A2EB3064083D23A5E14","019ce654-2a31-7fbb-8f0d-e20639314d71","019ce643-47c6-74a0-b3d2-7bf5651ded46","","null","
                    <div class=""stimulus-container"">
                        <img src=""images/causal_sequence/museum_causal/museum_causal_5.png"" class=""exp-image"">
                        <div class=""question-area""></div> 
                    </div>","null","","","","","","",""
"","","","","","html-button-response","44","949318","0.0-44.0","76B7C9ED783E4A2EB3064083D23A5E14","019ce654-2a31-7fbb-8f0d-e20639314d71","019ce643-47c6-74a0-b3d2-7bf5651ded46","","2349","
                    <div class=""stimulus-container"">
                        <img src=""images/causal_sequence/museum_causal/museum_causal_5.png"" class=""exp-image"">
                        <div class=""question-area"">
                            <p style=""font-size: 20px; font-weight: bold; margin: 0;"">Is there a person in this image?</p>
                        </div>
                    </div>","0","main_causal_task","5","museum_causal","","","",""
"","","","","","html-keyboard-response","45","954332","0.0-45.0","76B7C9ED783E4A2EB3064083D23A5E14","019ce654-2a31-7fbb-8f0d-e20639314d71","019ce643-47c6-74a0-b3d2-7bf5651ded46","","null","
                    <div class=""stimulus-container"">
                        <img src=""images/causal_sequence/museum_causal/museum_causal_6.png"" class=""exp-image"">
                        <div class=""question-area""></div> 
                    </div>","null","","","","","","",""
"","","","","","html-button-response","46","956509","0.0-46.0","76B7C9ED783E4A2EB3064083D23A5E14","019ce654-2a31-7fbb-8f0d-e20639314d71","019ce643-47c6-74a0-b3d2-7bf5651ded46","","2176","
                    <div class=""stimulus-container"">
                        <img src=""images/causal_sequence/museum_causal/museum_causal_6.png"" class=""exp-image"">
                        <div class=""question-area"">
                            <p style=""font-size: 20px; font-weight: bold; margin: 0;"">Is there a person in this image?</p>
                        </div>
                    </div>","0","main_causal_task","6","museum_causal","","","",""
"","","","","","html-keyboard-response","47","961512","0.0-47.0","76B7C9ED783E4A2EB3064083D23A5E14","019ce654-2a31-7fbb-8f0d-e20639314d71","019ce643-47c6-74a0-b3d2-7bf5651ded46","","null","
                    <div class=""stimulus-container"">
                        <img src=""images/causal_sequence/museum_causal/museum_causal_7.png"" class=""exp-image"">
                        <div class=""question-area""></div> 
                    </div>","null","","","","","","",""
"","","","","","html-button-response","48","962865","0.0-48.0","76B7C9ED783E4A2EB3064083D23A5E14","019ce654-2a31-7fbb-8f0d-e20639314d71","019ce643-47c6-74a0-b3d2-7bf5651ded46","","1351","
                    <div class=""stimulus-container"">
                        <img src=""images/causal_sequence/museum_causal/museum_causal_7.png"" class=""exp-image"">
                        <div class=""question-area"">
                            <p style=""font-size: 20px; font-weight: bold; margin: 0;"">Is there a person in this image?</p>
                        </div>
                    </div>","1","main_causal_task","7","museum_causal","","","",""
"","","","","","html-keyboard-response","49","967868","0.0-49.0","76B7C9ED783E4A2EB3064083D23A5E14","019ce654-2a31-7fbb-8f0d-e20639314d71","019ce643-47c6-74a0-b3d2-7bf5651ded46","","null","
                    <div class=""stimulus-container"">
                        <img src=""images/causal_sequence/museum_causal/museum_causal_8.png"" class=""exp-image"">
                        <div class=""question-area""></div> 
                    </div>","null","","","","","","",""
"","","","","","html-button-response","50","969130","0.0-50.0","76B7C9ED783E4A2EB3064083D23A5E14","019ce654-2a31-7fbb-8f0d-e20639314d71","019ce643-47c6-74a0-b3d2-7bf5651ded46","","1261","
                    <div class=""stimulus-container"">
                        <img src=""images/causal_sequence/museum_causal/museum_causal_8.png"" class=""exp-image"">
                        <div class=""question-area"">
                            <p style=""font-size: 20px; font-weight: bold; margin: 0;"">Is there a person in this image?</p>
                        </div>
                    </div>","0","main_causal_task","8","museum_causal","","","",""
"","","","","","html-keyboard-response","51","974147","0.0-51.0","76B7C9ED783E4A2EB3064083D23A5E14","019ce654-2a31-7fbb-8f0d-e20639314d71","019ce643-47c6-74a0-b3d2-7bf5651ded46","","null","
                    <div class=""stimulus-container"">
                        <img src=""images/causal_sequence/museum_causal/museum_causal_9.png"" class=""exp-image"">
                        <div class=""question-area""></div> 
                    </div>","null","","","","","","",""
"","","","","","html-button-response","52","975243","0.0-52.0","76B7C9ED783E4A2EB3064083D23A5E14","019ce654-2a31-7fbb-8f0d-e20639314d71","019ce643-47c6-74a0-b3d2-7bf5651ded46","","1094","
                    <div class=""stimulus-container"">
                        <img src=""images/causal_sequence/museum_causal/museum_causal_9.png"" class=""exp-image"">
                        <div class=""question-area"">
                            <p style=""font-size: 20px; font-weight: bold; margin: 0;"">Is there a person in this image?</p>
                        </div>
                    </div>","0","main_causal_task","9","museum_causal","","","",""
"","","","","","html-keyboard-response","53","976249","0.0-53.0","76B7C9ED783E4A2EB3064083D23A5E14","019ce654-2a31-7fbb-8f0d-e20639314d71","019ce643-47c6-74a0-b3d2-7bf5651ded46","","null","<div style=""background-color: gray; width: 100vw; height: 100vh;""></div>","null","","","","","","",""
"","","","","","html-keyboard-response","54","981253","0.0-54.0","76B7C9ED783E4A2EB3064083D23A5E14","019ce654-2a31-7fbb-8f0d-e20639314d71","019ce643-47c6-74a0-b3d2-7bf5651ded46","","null","
                    <div class=""stimulus-container"">
                        <img src=""images/causal_sequence/saving_a_cat_causal/saving_a_cat_causal_1.png"" class=""exp-image"">
                        <div class=""question-area""></div> 
                    </div>","null","","","","","","",""
"","","","","","html-button-response","55","982368","0.0-55.0","76B7C9ED783E4A2EB3064083D23A5E14","019ce654-2a31-7fbb-8f0d-e20639314d71","019ce643-47c6-74a0-b3d2-7bf5651ded46","","1114","
                    <div class=""stimulus-container"">
                        <img src=""images/causal_sequence/saving_a_cat_causal/saving_a_cat_causal_1.png"" class=""exp-image"">
                        <div class=""question-area"">
                            <p style=""font-size: 20px; font-weight: bold; margin: 0;"">Is there a person in this image?</p>
                        </div>
                    </div>","0","main_causal_task","1","saving_a_cat_causal","","","",""
"","","","","","html-keyboard-response","56","987381","0.0-56.0","76B7C9ED783E4A2EB3064083D23A5E14","019ce654-2a31-7fbb-8f0d-e20639314d71","019ce643-47c6-74a0-b3d2-7bf5651ded46","","null","
                    <div class=""stimulus-container"">
                        <img src=""images/causal_sequence/saving_a_cat_causal/saving_a_cat_causal_2.png"" class=""exp-image"">
                        <div class=""question-area""></div> 
                    </div>","null","","","","","","",""
"","","","","","html-button-response","57","988902","0.0-57.0","76B7C9ED783E4A2EB3064083D23A5E14","019ce654-2a31-7fbb-8f0d-e20639314d71","019ce643-47c6-74a0-b3d2-7bf5651ded46","","1519","
                    <div class=""stimulus-container"">
                        <img src=""images/causal_sequence/saving_a_cat_causal/saving_a_cat_causal_2.png"" class=""exp-image"">
                        <div class=""question-area"">
                            <p style=""font-size: 20px; font-weight: bold; margin: 0;"">Is there a person in this image?</p>
                        </div>
                    </div>","0","main_causal_task","2","saving_a_cat_causal","","","",""
"","","","","","html-keyboard-response","58","993907","0.0-58.0","76B7C9ED783E4A2EB3064083D23A5E14","019ce654-2a31-7fbb-8f0d-e20639314d71","019ce643-47c6-74a0-b3d2-7bf5651ded46","","null","
                    <div class=""stimulus-container"">
                        <img src=""images/causal_sequence/saving_a_cat_causal/saving_a_cat_causal_3.png"" class=""exp-image"">
                        <div class=""question-area""></div> 
                    </div>","null","","","","","","",""
"","","","","","html-button-response","59","995716","0.0-59.0","76B7C9ED783E4A2EB3064083D23A5E14","019ce654-2a31-7fbb-8f0d-e20639314d71","019ce643-47c6-74a0-b3d2-7bf5651ded46","","1806","
                    <div class=""stimulus-container"">
                        <img src=""images/causal_sequence/saving_a_cat_causal/saving_a_cat_causal_3.png"" class=""exp-image"">
                        <div class=""question-area"">
                            <p style=""font-size: 20px; font-weight: bold; margin: 0;"">Is there a person in this image?</p>
                        </div>
                    </div>","1","main_causal_task","3","saving_a_cat_causal","","","",""
"","","","","","html-keyboard-response","60","1000733","0.0-60.0","76B7C9ED783E4A2EB3064083D23A5E14","019ce654-2a31-7fbb-8f0d-e20639314d71","019ce643-47c6-74a0-b3d2-7bf5651ded46","","null","
                    <div class=""stimulus-container"">
                        <img src=""images/causal_sequence/saving_a_cat_causal/saving_a_cat_causal_4.png"" class=""exp-image"">
                        <div class=""question-area""></div> 
                    </div>","null","","","","","","",""
"","","","","","html-button-response","61","1002187","0.0-61.0","76B7C9ED783E4A2EB3064083D23A5E14","019ce654-2a31-7fbb-8f0d-e20639314d71","019ce643-47c6-74a0-b3d2-7bf5651ded46","","1452","
                    <div class=""stimulus-container"">
                        <img src=""images/causal_sequence/saving_a_cat_causal/saving_a_cat_causal_4.png"" class=""exp-image"">
                        <div class=""question-area"">
                            <p style=""font-size: 20px; font-weight: bold; margin: 0;"">Is there a person in this image?</p>
                        </div>
                    </div>","0","main_causal_task","4","saving_a_cat_causal","","","",""
"","","","","","html-keyboard-response","62","1007193","0.0-62.0","76B7C9ED783E4A2EB3064083D23A5E14","019ce654-2a31-7fbb-8f0d-e20639314d71","019ce643-47c6-74a0-b3d2-7bf5651ded46","","null","
                    <div class=""stimulus-container"">
                        <img src=""images/causal_sequence/saving_a_cat_causal/saving_a_cat_causal_5.png"" class=""exp-image"">
                        <div class=""question-area""></div> 
                    </div>","null","","","","","","",""
"","","","","","html-button-response","63","1008967","0.0-63.0","76B7C9ED783E4A2EB3064083D23A5E14","019ce654-2a31-7fbb-8f0d-e20639314d71","019ce643-47c6-74a0-b3d2-7bf5651ded46","","1771","
                    <div class=""stimulus-container"">
                        <img src=""images/causal_sequence/saving_a_cat_causal/saving_a_cat_causal_5.png"" class=""exp-image"">
                        <div class=""question-area"">
                            <p style=""font-size: 20px; font-weight: bold; margin: 0;"">Is there a person in this image?</p>
                        </div>
                    </div>","0","main_causal_task","5","saving_a_cat_causal","","","",""
"","","","","","html-keyboard-response","64","1013974","0.0-64.0","76B7C9ED783E4A2EB3064083D23A5E14","019ce654-2a31-7fbb-8f0d-e20639314d71","019ce643-47c6-74a0-b3d2-7bf5651ded46","","null","
                    <div class=""stimulus-container"">
                        <img src=""images/causal_sequence/saving_a_cat_causal/saving_a_cat_causal_6.png"" class=""exp-image"">
                        <div class=""question-area""></div> 
                    </div>","null","","","","","","",""
"","","","","","html-button-response","65","1015149","0.0-65.0","76B7C9ED783E4A2EB3064083D23A5E14","019ce654-2a31-7fbb-8f0d-e20639314d71","019ce643-47c6-74a0-b3d2-7bf5651ded46","","1174","
                    <div class=""stimulus-container"">
                        <img src=""images/causal_sequence/saving_a_cat_causal/saving_a_cat_causal_6.png"" class=""exp-image"">
                        <div class=""question-area"">
                            <p style=""font-size: 20px; font-weight: bold; margin: 0;"">Is there a person in this image?</p>
                        </div>
                    </div>","0","main_causal_task","6","saving_a_cat_causal","","","",""
"","","","","","html-keyboard-response","66","1020164","0.0-66.0","76B7C9ED783E4A2EB3064083D23A5E14","019ce654-2a31-7fbb-8f0d-e20639314d71","019ce643-47c6-74a0-b3d2-7bf5651ded46","","null","
                    <div class=""stimulus-container"">
                        <img src=""images/causal_sequence/saving_a_cat_causal/saving_a_cat_causal_7.png"" class=""exp-image"">
                        <div class=""question-area""></div> 
                    </div>","null","","","","","","",""
"","","","","","html-button-response","67","1021453","0.0-67.0","76B7C9ED783E4A2EB3064083D23A5E14","019ce654-2a31-7fbb-8f0d-e20639314d71","019ce643-47c6-74a0-b3d2-7bf5651ded46","","1287","
                    <div class=""stimulus-container"">
                        <img src=""images/causal_sequence/saving_a_cat_causal/saving_a_cat_causal_7.png"" class=""exp-image"">
                        <div class=""question-area"">
                            <p style=""font-size: 20px; font-weight: bold; margin: 0;"">Is there a person in this image?</p>
                        </div>
                    </div>","0","main_causal_task","7","saving_a_cat_causal","","","",""
"","","","","","html-keyboard-response","68","1026464","0.0-68.0","76B7C9ED783E4A2EB3064083D23A5E14","019ce654-2a31-7fbb-8f0d-e20639314d71","019ce643-47c6-74a0-b3d2-7bf5651ded46","","null","
                    <div class=""stimulus-container"">
                        <img src=""images/causal_sequence/saving_a_cat_causal/saving_a_cat_causal_8.png"" class=""exp-image"">
                        <div class=""question-area""></div> 
                    </div>","null","","","","","","",""
"","","","","","html-button-response","69","1029470","0.0-69.0","76B7C9ED783E4A2EB3064083D23A5E14","019ce654-2a31-7fbb-8f0d-e20639314d71","019ce643-47c6-74a0-b3d2-7bf5651ded46","","null","
                    <div class=""stimulus-container"">
                        <img src=""images/causal_sequence/saving_a_cat_causal/saving_a_cat_causal_8.png"" class=""exp-image"">
                        <div class=""question-area"">
                            <p style=""font-size: 20px; font-weight: bold; margin: 0;"">Is there a person in this image?</p>
                        </div>
                    </div>","null","main_causal_task","8","saving_a_cat_causal","","","",""
"","","","","","html-keyboard-response","70","1034471","0.0-70.0","76B7C9ED783E4A2EB3064083D23A5E14","019ce654-2a31-7fbb-8f0d-e20639314d71","019ce643-47c6-74a0-b3d2-7bf5651ded46","","null","
                    <div class=""stimulus-container"">
                        <img src=""images/causal_sequence/saving_a_cat_causal/saving_a_cat_causal_9.png"" class=""exp-image"">
                        <div class=""question-area""></div> 
                    </div>","null","","","","","","",""
"","","","","","html-button-response","71","1036429","0.0-71.0","76B7C9ED783E4A2EB3064083D23A5E14","019ce654-2a31-7fbb-8f0d-e20639314d71","019ce643-47c6-74a0-b3d2-7bf5651ded46","","1956","
                    <div class=""stimulus-container"">
                        <img src=""images/causal_sequence/saving_a_cat_causal/saving_a_cat_causal_9.png"" class=""exp-image"">
                        <div class=""question-area"">
                            <p style=""font-size: 20px; font-weight: bold; margin: 0;"">Is there a person in this image?</p>
                        </div>
                    </div>","0","main_causal_task","9","saving_a_cat_causal","","","",""
"","","","","","html-keyboard-response","72","1037438","0.0-72.0","76B7C9ED783E4A2EB3064083D23A5E14","019ce654-2a31-7fbb-8f0d-e20639314d71","019ce643-47c6-74a0-b3d2-7bf5651ded46","","null","<div style=""background-color: gray; width: 100vw; height: 100vh;""></div>","null","","","","","","",""
"","","","","","html-keyboard-response","73","1042440","0.0-73.0","76B7C9ED783E4A2EB3064083D23A5E14","019ce654-2a31-7fbb-8f0d-e20639314d71","019ce643-47c6-74a0-b3d2-7bf5651ded46","","null","
                    <div class=""stimulus-container"">
                        <img src=""images/causal_sequence/package_causal/package_causal_1.png"" class=""exp-image"">
                        <div class=""question-area""></div> 
                    </div>","null","","","","","","",""
"","","","","","html-button-response","74","1043882","0.0-74.0","76B7C9ED783E4A2EB3064083D23A5E14","019ce654-2a31-7fbb-8f0d-e20639314d71","019ce643-47c6-74a0-b3d2-7bf5651ded46","","1441","
                    <div class=""stimulus-container"">
                        <img src=""images/causal_sequence/package_causal/package_causal_1.png"" class=""exp-image"">
                        <div class=""question-area"">
                            <p style=""font-size: 20px; font-weight: bold; margin: 0;"">Is there a person in this image?</p>
                        </div>
                    </div>","0","main_causal_task","1","package_causal","","","",""
"","","","","","html-keyboard-response","75","1048885","0.0-75.0","76B7C9ED783E4A2EB3064083D23A5E14","019ce654-2a31-7fbb-8f0d-e20639314d71","019ce643-47c6-74a0-b3d2-7bf5651ded46","","null","
                    <div class=""stimulus-container"">
                        <img src=""images/causal_sequence/package_causal/package_causal_2.png"" class=""exp-image"">
                        <div class=""question-area""></div> 
                    </div>","null","","","","","","",""
"","","","","","html-button-response","76","1051858","0.0-76.0","76B7C9ED783E4A2EB3064083D23A5E14","019ce654-2a31-7fbb-8f0d-e20639314d71","019ce643-47c6-74a0-b3d2-7bf5651ded46","","2971","
                    <div class=""stimulus-container"">
                        <img src=""images/causal_sequence/package_causal/package_causal_2.png"" class=""exp-image"">
                        <div class=""question-area"">
                            <p style=""font-size: 20px; font-weight: bold; margin: 0;"">Is there a person in this image?</p>
                        </div>
                    </div>","0","main_causal_task","2","package_causal","","","",""
"","","","","","html-keyboard-response","77","1056863","0.0-77.0","76B7C9ED783E4A2EB3064083D23A5E14","019ce654-2a31-7fbb-8f0d-e20639314d71","019ce643-47c6-74a0-b3d2-7bf5651ded46","","null","
                    <div class=""stimulus-container"">
                        <img src=""images/causal_sequence/package_causal/package_causal_3.png"" class=""exp-image"">
                        <div class=""question-area""></div> 
                    </div>","null","","","","","","",""
"","","","","","html-button-response","78","1058474","0.0-78.0","76B7C9ED783E4A2EB3064083D23A5E14","019ce654-2a31-7fbb-8f0d-e20639314d71","019ce643-47c6-74a0-b3d2-7bf5651ded46","","1609","
                    <div class=""stimulus-container"">
                        <img src=""images/causal_sequence/package_causal/package_causal_3.png"" class=""exp-image"">
                        <div class=""question-area"">
                            <p style=""font-size: 20px; font-weight: bold; margin: 0;"">Is there a person in this image?</p>
                        </div>
                    </div>","0","main_causal_task","3","package_causal","","","",""
"","","","","","html-keyboard-response","79","1063482","0.0-79.0","76B7C9ED783E4A2EB3064083D23A5E14","019ce654-2a31-7fbb-8f0d-e20639314d71","019ce643-47c6-74a0-b3d2-7bf5651ded46","","null","
                    <div class=""stimulus-container"">
                        <img src=""images/causal_sequence/package_causal/package_causal_4.png"" class=""exp-image"">
                        <div class=""question-area""></div> 
                    </div>","null","","","","","","",""
"","","","","","html-button-response","80","1065513","0.0-80.0","76B7C9ED783E4A2EB3064083D23A5E14","019ce654-2a31-7fbb-8f0d-e20639314d71","019ce643-47c6-74a0-b3d2-7bf5651ded46","","2029","
                    <div class=""stimulus-container"">
                        <img src=""images/causal_sequence/package_causal/package_causal_4.png"" class=""exp-image"">
                        <div class=""question-area"">
                            <p style=""font-size: 20px; font-weight: bold; margin: 0;"">Is there a person in this image?</p>
                        </div>
                    </div>","1","main_causal_task","4","package_causal","","","",""
"","","","","","html-keyboard-response","81","1070518","0.0-81.0","76B7C9ED783E4A2EB3064083D23A5E14","019ce654-2a31-7fbb-8f0d-e20639314d71","019ce643-47c6-74a0-b3d2-7bf5651ded46","","null","
                    <div class=""stimulus-container"">
                        <img src=""images/causal_sequence/package_causal/package_causal_5.png"" class=""exp-image"">
                        <div class=""question-area""></div> 
                    </div>","null","","","","","","",""
"","","","","","html-button-response","82","1072532","0.0-82.0","76B7C9ED783E4A2EB3064083D23A5E14","019ce654-2a31-7fbb-8f0d-e20639314d71","019ce643-47c6-74a0-b3d2-7bf5651ded46","","2012","
                    <div class=""stimulus-container"">
                        <img src=""images/causal_sequence/package_causal/package_causal_5.png"" class=""exp-image"">
                        <div class=""question-area"">
                            <p style=""font-size: 20px; font-weight: bold; margin: 0;"">Is there a person in this image?</p>
                        </div>
                    </div>","0","main_causal_task","5","package_causal","","","",""
"","","","","","html-keyboard-response","83","1077549","0.0-83.0","76B7C9ED783E4A2EB3064083D23A5E14","019ce654-2a31-7fbb-8f0d-e20639314d71","019ce643-47c6-74a0-b3d2-7bf5651ded46","","null","
                    <div class=""stimulus-container"">
                        <img src=""images/causal_sequence/package_causal/package_causal_6.png"" class=""exp-image"">
                        <div class=""question-area""></div> 
                    </div>","null","","","","","","",""
"","","","","","html-button-response","84","1078664","0.0-84.0","76B7C9ED783E4A2EB3064083D23A5E14","019ce654-2a31-7fbb-8f0d-e20639314d71","019ce643-47c6-74a0-b3d2-7bf5651ded46","","1113","
                    <div class=""stimulus-container"">
                        <img src=""images/causal_sequence/package_causal/package_causal_6.png"" class=""exp-image"">
                        <div class=""question-area"">
                            <p style=""font-size: 20px; font-weight: bold; margin: 0;"">Is there a person in this image?</p>
                        </div>
                    </div>","0","main_causal_task","6","package_causal","","","",""
"","","","","","html-keyboard-response","85","1083667","0.0-85.0","76B7C9ED783E4A2EB3064083D23A5E14","019ce654-2a31-7fbb-8f0d-e20639314d71","019ce643-47c6-74a0-b3d2-7bf5651ded46","","null","
                    <div class=""stimulus-container"">
                        <img src=""images/causal_sequence/package_causal/package_causal_7.png"" class=""exp-image"">
                        <div class=""question-area""></div> 
                    </div>","null","","","","","","",""
"","","","","","html-button-response","86","1084745","0.0-86.0","76B7C9ED783E4A2EB3064083D23A5E14","019ce654-2a31-7fbb-8f0d-e20639314d71","019ce643-47c6-74a0-b3d2-7bf5651ded46","","1076","
                    <div class=""stimulus-container"">
                        <img src=""images/causal_sequence/package_causal/package_causal_7.png"" class=""exp-image"">
                        <div class=""question-area"">
                            <p style=""font-size: 20px; font-weight: bold; margin: 0;"">Is there a person in this image?</p>
                        </div>
                    </div>","0","main_causal_task","7","package_causal","","","",""
"","","","","","html-keyboard-response","87","1089757","0.0-87.0","76B7C9ED783E4A2EB3064083D23A5E14","019ce654-2a31-7fbb-8f0d-e20639314d71","019ce643-47c6-74a0-b3d2-7bf5651ded46","","null","
                    <div class=""stimulus-container"">
                        <img src=""images/causal_sequence/package_causal/package_causal_8.png"" class=""exp-image"">
                        <div class=""question-area""></div> 
                    </div>","null","","","","","","",""
"","","","","","html-button-response","88","1091023","0.0-88.0","76B7C9ED783E4A2EB3064083D23A5E14","019ce654-2a31-7fbb-8f0d-e20639314d71","019ce643-47c6-74a0-b3d2-7bf5651ded46","","1264","
                    <div class=""stimulus-container"">
                        <img src=""images/causal_sequence/package_causal/package_causal_8.png"" class=""exp-image"">
                        <div class=""question-area"">
                            <p style=""font-size: 20px; font-weight: bold; margin: 0;"">Is there a person in this image?</p>
                        </div>
                    </div>","0","main_causal_task","8","package_causal","","","",""
"","","","","","html-keyboard-response","89","1096027","0.0-89.0","76B7C9ED783E4A2EB3064083D23A5E14","019ce654-2a31-7fbb-8f0d-e20639314d71","019ce643-47c6-74a0-b3d2-7bf5651ded46","","null","
                    <div class=""stimulus-container"">
                        <img src=""images/causal_sequence/package_causal/package_causal_9.png"" class=""exp-image"">
                        <div class=""question-area""></div> 
                    </div>","null","","","","","","",""
"","","","","","html-button-response","90","1097399","0.0-90.0","76B7C9ED783E4A2EB3064083D23A5E14","019ce654-2a31-7fbb-8f0d-e20639314d71","019ce643-47c6-74a0-b3d2-7bf5651ded46","","1370","
                    <div class=""stimulus-container"">
                        <img src=""images/causal_sequence/package_causal/package_causal_9.png"" class=""exp-image"">
                        <div class=""question-area"">
                            <p style=""font-size: 20px; font-weight: bold; margin: 0;"">Is there a person in this image?</p>
                        </div>
                    </div>","0","main_causal_task","9","package_causal","","","",""
"","","","","","html-keyboard-response","91","1098412","0.0-91.0","76B7C9ED783E4A2EB3064083D23A5E14","019ce654-2a31-7fbb-8f0d-e20639314d71","019ce643-47c6-74a0-b3d2-7bf5651ded46","","null","<div style=""background-color: gray; width: 100vw; height: 100vh;""></div>","null","","","","","","",""
"","","","","","html-keyboard-response","92","1103418","0.0-92.0","76B7C9ED783E4A2EB3064083D23A5E14","019ce654-2a31-7fbb-8f0d-e20639314d71","019ce643-47c6-74a0-b3d2-7bf5651ded46","","null","
                    <div class=""stimulus-container"">
                        <img src=""images/causal_sequence/coin_causal/coin_causal_1.png"" class=""exp-image"">
                        <div class=""question-area""></div> 
                    </div>","null","","","","","","",""
"","","","","","html-button-response","93","1104913","0.0-93.0","76B7C9ED783E4A2EB3064083D23A5E14","019ce654-2a31-7fbb-8f0d-e20639314d71","019ce643-47c6-74a0-b3d2-7bf5651ded46","","1493","
                    <div class=""stimulus-container"">
                        <img src=""images/causal_sequence/coin_causal/coin_causal_1.png"" class=""exp-image"">
                        <div class=""question-area"">
                            <p style=""font-size: 20px; font-weight: bold; margin: 0;"">Is there a person in this image?</p>
                        </div>
                    </div>","0","main_causal_task","1","coin_causal","","","",""
"","","","","","html-keyboard-response","94","1109914","0.0-94.0","76B7C9ED783E4A2EB3064083D23A5E14","019ce654-2a31-7fbb-8f0d-e20639314d71","019ce643-47c6-74a0-b3d2-7bf5651ded46","","null","
                    <div class=""stimulus-container"">
                        <img src=""images/causal_sequence/coin_causal/coin_causal_2.png"" class=""exp-image"">
                        <div class=""question-area""></div> 
                    </div>","null","","","","","","",""
"","","","","","html-button-response","95","1111167","0.0-95.0","76B7C9ED783E4A2EB3064083D23A5E14","019ce654-2a31-7fbb-8f0d-e20639314d71","019ce643-47c6-74a0-b3d2-7bf5651ded46","","1251","
                    <div class=""stimulus-container"">
                        <img src=""images/causal_sequence/coin_causal/coin_causal_2.png"" class=""exp-image"">
                        <div class=""question-area"">
                            <p style=""font-size: 20px; font-weight: bold; margin: 0;"">Is there a person in this image?</p>
                        </div>
                    </div>","0","main_causal_task","2","coin_causal","","","",""
"","","","","","html-keyboard-response","96","1116174","0.0-96.0","76B7C9ED783E4A2EB3064083D23A5E14","019ce654-2a31-7fbb-8f0d-e20639314d71","019ce643-47c6-74a0-b3d2-7bf5651ded46","","null","
                    <div class=""stimulus-container"">
                        <img src=""images/causal_sequence/coin_causal/coin_causal_3.png"" class=""exp-image"">
                        <div class=""question-area""></div> 
                    </div>","null","","","","","","",""
"","","","","","html-button-response","97","1117546","0.0-97.0","76B7C9ED783E4A2EB3064083D23A5E14","019ce654-2a31-7fbb-8f0d-e20639314d71","019ce643-47c6-74a0-b3d2-7bf5651ded46","","1371","
                    <div class=""stimulus-container"">
                        <img src=""images/causal_sequence/coin_causal/coin_causal_3.png"" class=""exp-image"">
                        <div class=""question-area"">
                            <p style=""font-size: 20px; font-weight: bold; margin: 0;"">Is there a person in this image?</p>
                        </div>
                    </div>","0","main_causal_task","3","coin_causal","","","",""
"","","","","","html-keyboard-response","98","1122560","0.0-98.0","76B7C9ED783E4A2EB3064083D23A5E14","019ce654-2a31-7fbb-8f0d-e20639314d71","019ce643-47c6-74a0-b3d2-7bf5651ded46","","null","
                    <div class=""stimulus-container"">
                        <img src=""images/causal_sequence/coin_causal/coin_causal_4.png"" class=""exp-image"">
                        <div class=""question-area""></div> 
                    </div>","null","","","","","","",""
"","","","","","html-button-response","99","1124039","0.0-99.0","76B7C9ED783E4A2EB3064083D23A5E14","019ce654-2a31-7fbb-8f0d-e20639314d71","019ce643-47c6-74a0-b3d2-7bf5651ded46","","1477","
                    <div class=""stimulus-container"">
                        <img src=""images/causal_sequence/coin_causal/coin_causal_4.png"" class=""exp-image"">
                        <div class=""question-area"">
                            <p style=""font-size: 20px; font-weight: bold; margin: 0;"">Is there a person in this image?</p>
                        </div>
                    </div>","0","main_causal_task","4","coin_causal","","","",""
"","","","","","html-keyboard-response","100","1129051","0.0-100.0","76B7C9ED783E4A2EB3064083D23A5E14","019ce654-2a31-7fbb-8f0d-e20639314d71","019ce643-47c6-74a0-b3d2-7bf5651ded46","","null","
                    <div class=""stimulus-container"">
                        <img src=""images/causal_sequence/coin_causal/coin_causal_5.png"" class=""exp-image"">
                        <div class=""question-area""></div> 
                    </div>","null","","","","","","",""
"","","","","","html-button-response","101","1130215","0.0-101.0","76B7C9ED783E4A2EB3064083D23A5E14","019ce654-2a31-7fbb-8f0d-e20639314d71","019ce643-47c6-74a0-b3d2-7bf5651ded46","","1163","
                    <div class=""stimulus-container"">
                        <img src=""images/causal_sequence/coin_causal/coin_causal_5.png"" class=""exp-image"">
                        <div class=""question-area"">
                            <p style=""font-size: 20px; font-weight: bold; margin: 0;"">Is there a person in this image?</p>
                        </div>
                    </div>","0","main_causal_task","5","coin_causal","","","",""
"","","","","","html-keyboard-response","102","1135227","0.0-102.0","76B7C9ED783E4A2EB3064083D23A5E14","019ce654-2a31-7fbb-8f0d-e20639314d71","019ce643-47c6-74a0-b3d2-7bf5651ded46","","null","
                    <div class=""stimulus-container"">
                        <img src=""images/causal_sequence/coin_causal/coin_causal_6.png"" class=""exp-image"">
                        <div class=""question-area""></div> 
                    </div>","null","","","","","","",""
"","","","","","html-button-response","103","1137064","0.0-103.0","76B7C9ED783E4A2EB3064083D23A5E14","019ce654-2a31-7fbb-8f0d-e20639314d71","019ce643-47c6-74a0-b3d2-7bf5651ded46","","1834","
                    <div class=""stimulus-container"">
                        <img src=""images/causal_sequence/coin_causal/coin_causal_6.png"" class=""exp-image"">
                        <div class=""question-area"">
                            <p style=""font-size: 20px; font-weight: bold; margin: 0;"">Is there a person in this image?</p>
                        </div>
                    </div>","0","main_causal_task","6","coin_causal","","","",""
"","","","","","html-keyboard-response","104","1142074","0.0-104.0","76B7C9ED783E4A2EB3064083D23A5E14","019ce654-2a31-7fbb-8f0d-e20639314d71","019ce643-47c6-74a0-b3d2-7bf5651ded46","","null","
                    <div class=""stimulus-container"">
                        <img src=""images/causal_sequence/coin_causal/coin_causal_7.png"" class=""exp-image"">
                        <div class=""question-area""></div> 
                    </div>","null","","","","","","",""
"","","","","","html-button-response","105","1144176","0.0-105.0","76B7C9ED783E4A2EB3064083D23A5E14","019ce654-2a31-7fbb-8f0d-e20639314d71","019ce643-47c6-74a0-b3d2-7bf5651ded46","","2100","
                    <div class=""stimulus-container"">
                        <img src=""images/causal_sequence/coin_causal/coin_causal_7.png"" class=""exp-image"">
                        <div class=""question-area"">
                            <p style=""font-size: 20px; font-weight: bold; margin: 0;"">Is there a person in this image?</p>
                        </div>
                    </div>","1","main_causal_task","7","coin_causal","","","",""
"","","","","","html-keyboard-response","106","1149188","0.0-106.0","76B7C9ED783E4A2EB3064083D23A5E14","019ce654-2a31-7fbb-8f0d-e20639314d71","019ce643-47c6-74a0-b3d2-7bf5651ded46","","null","
                    <div class=""stimulus-container"">
                        <img src=""images/causal_sequence/coin_causal/coin_causal_8.png"" class=""exp-image"">
                        <div class=""question-area""></div> 
                    </div>","null","","","","","","",""
"","","","","","html-button-response","107","1150426","0.0-107.0","76B7C9ED783E4A2EB3064083D23A5E14","019ce654-2a31-7fbb-8f0d-e20639314d71","019ce643-47c6-74a0-b3d2-7bf5651ded46","","1236","
                    <div class=""stimulus-container"">
                        <img src=""images/causal_sequence/coin_causal/coin_causal_8.png"" class=""exp-image"">
                        <div class=""question-area"">
                            <p style=""font-size: 20px; font-weight: bold; margin: 0;"">Is there a person in this image?</p>
                        </div>
                    </div>","0","main_causal_task","8","coin_causal","","","",""
"","","","","","html-keyboard-response","108","1155436","0.0-108.0","76B7C9ED783E4A2EB3064083D23A5E14","019ce654-2a31-7fbb-8f0d-e20639314d71","019ce643-47c6-74a0-b3d2-7bf5651ded46","","null","
                    <div class=""stimulus-container"">
                        <img src=""images/causal_sequence/coin_causal/coin_causal_9.png"" class=""exp-image"">
                        <div class=""question-area""></div> 
                    </div>","null","","","","","","",""
"","","","","","html-button-response","109","1156367","0.0-109.0","76B7C9ED783E4A2EB3064083D23A5E14","019ce654-2a31-7fbb-8f0d-e20639314d71","019ce643-47c6-74a0-b3d2-7bf5651ded46","","930","
                    <div class=""stimulus-container"">
                        <img src=""images/causal_sequence/coin_causal/coin_causal_9.png"" class=""exp-image"">
                        <div class=""question-area"">
                            <p style=""font-size: 20px; font-weight: bold; margin: 0;"">Is there a person in this image?</p>
                        </div>
                    </div>","0","main_causal_task","9","coin_causal","","","",""
"","","","","","html-keyboard-response","110","1157369","0.0-110.0","76B7C9ED783E4A2EB3064083D23A5E14","019ce654-2a31-7fbb-8f0d-e20639314d71","019ce643-47c6-74a0-b3d2-7bf5651ded46","","null","<div style=""background-color: gray; width: 100vw; height: 100vh;""></div>","null","","","","","","",""
"","","","","","html-keyboard-response","111","1162385","0.0-111.0","76B7C9ED783E4A2EB3064083D23A5E14","019ce654-2a31-7fbb-8f0d-e20639314d71","019ce643-47c6-74a0-b3d2-7bf5651ded46","","null","
                    <div class=""stimulus-container"">
                        <img src=""images/causal_sequence/the_performance_causal/the_performance_causal_1.png"" class=""exp-image"">
                        <div class=""question-area""></div> 
                    </div>","null","","","","","","",""
"","","","","","html-button-response","112","1164024","0.0-112.0","76B7C9ED783E4A2EB3064083D23A5E14","019ce654-2a31-7fbb-8f0d-e20639314d71","019ce643-47c6-74a0-b3d2-7bf5651ded46","","1637","
                    <div class=""stimulus-container"">
                        <img src=""images/causal_sequence/the_performance_causal/the_performance_causal_1.png"" class=""exp-image"">
                        <div class=""question-area"">
                            <p style=""font-size: 20px; font-weight: bold; margin: 0;"">Is there a person in this image?</p>
                        </div>
                    </div>","0","main_causal_task","1","the_performance_causal","","","",""
"","","","","","html-keyboard-response","113","1169029","0.0-113.0","76B7C9ED783E4A2EB3064083D23A5E14","019ce654-2a31-7fbb-8f0d-e20639314d71","019ce643-47c6-74a0-b3d2-7bf5651ded46","","null","
                    <div class=""stimulus-container"">
                        <img src=""images/causal_sequence/the_performance_causal/the_performance_causal_2.png"" class=""exp-image"">
                        <div class=""question-area""></div> 
                    </div>","null","","","","","","",""
"","","","","","html-button-response","114","1170186","0.0-114.0","76B7C9ED783E4A2EB3064083D23A5E14","019ce654-2a31-7fbb-8f0d-e20639314d71","019ce643-47c6-74a0-b3d2-7bf5651ded46","","1155","
                    <div class=""stimulus-container"">
                        <img src=""images/causal_sequence/the_performance_causal/the_performance_causal_2.png"" class=""exp-image"">
                        <div class=""question-area"">
                            <p style=""font-size: 20px; font-weight: bold; margin: 0;"">Is there a person in this image?</p>
                        </div>
                    </div>","0","main_causal_task","2","the_performance_causal","","","",""
"","","","","","html-keyboard-response","115","1175195","0.0-115.0","76B7C9ED783E4A2EB3064083D23A5E14","019ce654-2a31-7fbb-8f0d-e20639314d71","019ce643-47c6-74a0-b3d2-7bf5651ded46","","null","
                    <div class=""stimulus-container"">
                        <img src=""images/causal_sequence/the_performance_causal/the_performance_causal_3.png"" class=""exp-image"">
                        <div class=""question-area""></div> 
                    </div>","null","","","","","","",""
"","","","","","html-button-response","116","1176744","0.0-116.0","76B7C9ED783E4A2EB3064083D23A5E14","019ce654-2a31-7fbb-8f0d-e20639314d71","019ce643-47c6-74a0-b3d2-7bf5651ded46","","1547","
                    <div class=""stimulus-container"">
                        <img src=""images/causal_sequence/the_performance_causal/the_performance_causal_3.png"" class=""exp-image"">
                        <div class=""question-area"">
                            <p style=""font-size: 20px; font-weight: bold; margin: 0;"">Is there a person in this image?</p>
                        </div>
                    </div>","0","main_causal_task","3","the_performance_causal","","","",""
"","","","","","html-keyboard-response","117","1181746","0.0-117.0","76B7C9ED783E4A2EB3064083D23A5E14","019ce654-2a31-7fbb-8f0d-e20639314d71","019ce643-47c6-74a0-b3d2-7bf5651ded46","","null","
                    <div class=""stimulus-container"">
                        <img src=""images/causal_sequence/the_performance_causal/the_performance_causal_4.png"" class=""exp-image"">
                        <div class=""question-area""></div> 
                    </div>","null","","","","","","",""
"","","","","","html-button-response","118","1183206","0.0-118.0","76B7C9ED783E4A2EB3064083D23A5E14","019ce654-2a31-7fbb-8f0d-e20639314d71","019ce643-47c6-74a0-b3d2-7bf5651ded46","","1458","
                    <div class=""stimulus-container"">
                        <img src=""images/causal_sequence/the_performance_causal/the_performance_causal_4.png"" class=""exp-image"">
                        <div class=""question-area"">
                            <p style=""font-size: 20px; font-weight: bold; margin: 0;"">Is there a person in this image?</p>
                        </div>
                    </div>","0","main_causal_task","4","the_performance_causal","","","",""
"","","","","","html-keyboard-response","119","1188210","0.0-119.0","76B7C9ED783E4A2EB3064083D23A5E14","019ce654-2a31-7fbb-8f0d-e20639314d71","019ce643-47c6-74a0-b3d2-7bf5651ded46","","null","
                    <div class=""stimulus-container"">
                        <img src=""images/causal_sequence/the_performance_causal/the_performance_causal_5.png"" class=""exp-image"">
                        <div class=""question-area""></div> 
                    </div>","null","","","","","","",""
"","","","","","html-button-response","120","1190905","0.0-120.0","76B7C9ED783E4A2EB3064083D23A5E14","019ce654-2a31-7fbb-8f0d-e20639314d71","019ce643-47c6-74a0-b3d2-7bf5651ded46","","2694","
                    <div class=""stimulus-container"">
                        <img src=""images/causal_sequence/the_performance_causal/the_performance_causal_5.png"" class=""exp-image"">
                        <div class=""question-area"">
                            <p style=""font-size: 20px; font-weight: bold; margin: 0;"">Is there a person in this image?</p>
                        </div>
                    </div>","0","main_causal_task","5","the_performance_causal","","","",""
"","","","","","html-keyboard-response","121","1195918","0.0-121.0","76B7C9ED783E4A2EB3064083D23A5E14","019ce654-2a31-7fbb-8f0d-e20639314d71","019ce643-47c6-74a0-b3d2-7bf5651ded46","","null","
                    <div class=""stimulus-container"">
                        <img src=""images/causal_sequence/the_performance_causal/the_performance_causal_6.png"" class=""exp-image"">
                        <div class=""question-area""></div> 
                    </div>","null","","","","","","",""
"","","","","","html-button-response","122","1197249","0.0-122.0","76B7C9ED783E4A2EB3064083D23A5E14","019ce654-2a31-7fbb-8f0d-e20639314d71","019ce643-47c6-74a0-b3d2-7bf5651ded46","","1330","
                    <div class=""stimulus-container"">
                        <img src=""images/causal_sequence/the_performance_causal/the_performance_causal_6.png"" class=""exp-image"">
                        <div class=""question-area"">
                            <p style=""font-size: 20px; font-weight: bold; margin: 0;"">Is there a person in this image?</p>
                        </div>
                    </div>","0","main_causal_task","6","the_performance_causal","","","",""
"","","","","","html-keyboard-response","123","1202258","0.0-123.0","76B7C9ED783E4A2EB3064083D23A5E14","019ce654-2a31-7fbb-8f0d-e20639314d71","019ce643-47c6-74a0-b3d2-7bf5651ded46","","null","
                    <div class=""stimulus-container"">
                        <img src=""images/causal_sequence/the_performance_causal/the_performance_causal_7.png"" class=""exp-image"">
                        <div class=""question-area""></div> 
                    </div>","null","","","","","","",""
"","","","","","html-button-response","124","1203671","0.0-124.0","76B7C9ED783E4A2EB3064083D23A5E14","019ce654-2a31-7fbb-8f0d-e20639314d71","019ce643-47c6-74a0-b3d2-7bf5651ded46","","1411","
                    <div class=""stimulus-container"">
                        <img src=""images/causal_sequence/the_performance_causal/the_performance_causal_7.png"" class=""exp-image"">
                        <div class=""question-area"">
                            <p style=""font-size: 20px; font-weight: bold; margin: 0;"">Is there a person in this image?</p>
                        </div>
                    </div>","0","main_causal_task","7","the_performance_causal","","","",""
"","","","","","html-keyboard-response","125","1208672","0.0-125.0","76B7C9ED783E4A2EB3064083D23A5E14","019ce654-2a31-7fbb-8f0d-e20639314d71","019ce643-47c6-74a0-b3d2-7bf5651ded46","","null","
                    <div class=""stimulus-container"">
                        <img src=""images/causal_sequence/the_performance_causal/the_performance_causal_8.png"" class=""exp-image"">
                        <div class=""question-area""></div> 
                    </div>","null","","","","","","",""
"","","","","","html-button-response","126","1210394","0.0-126.0","76B7C9ED783E4A2EB3064083D23A5E14","019ce654-2a31-7fbb-8f0d-e20639314d71","019ce643-47c6-74a0-b3d2-7bf5651ded46","","1719","
                    <div class=""stimulus-container"">
                        <img src=""images/causal_sequence/the_performance_causal/the_performance_causal_8.png"" class=""exp-image"">
                        <div class=""question-area"">
                            <p style=""font-size: 20px; font-weight: bold; margin: 0;"">Is there a person in this image?</p>
                        </div>
                    </div>","0","main_causal_task","8","the_performance_causal","","","",""
"","","","","","html-keyboard-response","127","1215406","0.0-127.0","76B7C9ED783E4A2EB3064083D23A5E14","019ce654-2a31-7fbb-8f0d-e20639314d71","019ce643-47c6-74a0-b3d2-7bf5651ded46","","null","
                    <div class=""stimulus-container"">
                        <img src=""images/causal_sequence/the_performance_causal/the_performance_causal_9.png"" class=""exp-image"">
                        <div class=""question-area""></div> 
                    </div>","null","","","","","","",""
"","","","","","html-button-response","128","1217363","0.0-128.0","76B7C9ED783E4A2EB3064083D23A5E14","019ce654-2a31-7fbb-8f0d-e20639314d71","019ce643-47c6-74a0-b3d2-7bf5651ded46","","1955","
                    <div class=""stimulus-container"">
                        <img src=""images/causal_sequence/the_performance_causal/the_performance_causal_9.png"" class=""exp-image"">
                        <div class=""question-area"">
                            <p style=""font-size: 20px; font-weight: bold; margin: 0;"">Is there a person in this image?</p>
                        </div>
                    </div>","0","main_causal_task","9","the_performance_causal","","","",""
"","","","","","instructions","129","1220071","0.0-129.0","76B7C9ED783E4A2EB3064083D23A5E14","019ce654-2a31-7fbb-8f0d-e20639314d71","019ce643-47c6-74a0-b3d2-7bf5651ded46","[{""page_index"":0,""viewing_time"":2706}]","2707","","","","","","","","",""
"","","","","","instructions","130","1234822","0.0-130.0","76B7C9ED783E4A2EB3064083D23A5E14","019ce654-2a31-7fbb-8f0d-e20639314d71","019ce643-47c6-74a0-b3d2-7bf5651ded46","[{""page_index"":0,""viewing_time"":14750}]","14750","","","","","","","","",""
"","","","","","html-keyboard-response","131","1235830","0.0-131.0","76B7C9ED783E4A2EB3064083D23A5E14","019ce654-2a31-7fbb-8f0d-e20639314d71","019ce643-47c6-74a0-b3d2-7bf5651ded46","","null","
        <div class=""stimulus-container"" style=""display: flex; align-items: center; justify-content: center; gap: 30px;"">
            <img src=""images/instructions/movie_1.png"" class=""exp-image"">
            <div style=""font-size: 40px; font-weight: bold; color: green; border: 5px solid green; padding: 25px; border-radius: 15px; background-color: #f0fff0;"">
                WORTH<br>$1
            </div>
        </div>
        <div class=""question-area""></div>","null","","","","","","",""
"","","","","","html-button-response","132","1238134","0.0-132.0","76B7C9ED783E4A2EB3064083D23A5E14","019ce654-2a31-7fbb-8f0d-e20639314d71","019ce643-47c6-74a0-b3d2-7bf5651ded46","","2303","
        <div class=""stimulus-container"" style=""display: flex; align-items: center; justify-content: center; gap: 30px;"">
            <img src=""images/instructions/movie_1.png"" class=""exp-image"">
            <div style=""font-size: 40px; font-weight: bold; color: green; border: 5px solid green; padding: 25px; border-radius: 15px; background-color: #f0fff0;"">
                WORTH<br>$1
            </div>
        </div>
        <div class=""question-area"">
            <p style=""font-size: 20px; font-weight: bold; margin: 0;"">Was there a person in this image?</p>
        </div>","0","","","","","","",""
"","","","","","instructions","133","1241078","0.0-133.0","76B7C9ED783E4A2EB3064083D23A5E14","019ce654-2a31-7fbb-8f0d-e20639314d71","019ce643-47c6-74a0-b3d2-7bf5651ded46","[{""page_index"":0,""viewing_time"":2942}]","2942","","","","","","","","",""
"","","","","","html-keyboard-response","134","1251089","0.0-134.0","76B7C9ED783E4A2EB3064083D23A5E14","019ce654-2a31-7fbb-8f0d-e20639314d71","019ce643-47c6-74a0-b3d2-7bf5651ded46","","null","
            <div class=""stimulus-container"" style=""display: flex; align-items: center; justify-content: center; gap: 30px;"">
                <img src=""images/causal_sequence/the_performance_causal/the_performance_causal_7.png"" class=""exp-image"">
                <div style=""font-size: 40px; font-weight: bold; color: green; border: 5px solid green; padding: 25px; border-radius: 15px; background-color: #f0fff0;"">
                    WORTH<br>$1
                </div>
            </div>
            <div class=""question-area""></div>","null","","","","","","",""
"","","","","","html-button-response","135","1252681","0.0-135.0","76B7C9ED783E4A2EB3064083D23A5E14","019ce654-2a31-7fbb-8f0d-e20639314d71","019ce643-47c6-74a0-b3d2-7bf5651ded46","","1591","
            <div class=""stimulus-container"" style=""display: flex; align-items: center; justify-content: center; gap: 30px;"">
                <img src=""images/causal_sequence/the_performance_causal/the_performance_causal_7.png"" class=""exp-image"">
                <div style=""font-size: 40px; font-weight: bold; color: green; border: 5px solid green; padding: 25px; border-radius: 15px; background-color: #f0fff0;"">
                    WORTH<br>$1
                </div>
            </div>
            <div class=""question-area"">
                <p style=""font-size: 20px; font-weight: bold; margin: 0;"">Was there a person in this image?</p>
            </div>","0","part2_value_learning","","the_performance_causal","7","","",""
"","","","","","html-keyboard-response","136","1262684","0.0-136.0","76B7C9ED783E4A2EB3064083D23A5E14","019ce654-2a31-7fbb-8f0d-e20639314d71","019ce643-47c6-74a0-b3d2-7bf5651ded46","","null","
            <div class=""stimulus-container"" style=""display: flex; align-items: center; justify-content: center; gap: 30px;"">
                <img src=""images/causal_sequence/dog_causal/dog_causal_7.png"" class=""exp-image"">
                <div style=""font-size: 40px; font-weight: bold; color: green; border: 5px solid green; padding: 25px; border-radius: 15px; background-color: #f0fff0;"">
                    WORTH<br>$1
                </div>
            </div>
            <div class=""question-area""></div>","null","","","","","","",""
"","","","","","html-button-response","137","1264136","0.0-137.0","76B7C9ED783E4A2EB3064083D23A5E14","019ce654-2a31-7fbb-8f0d-e20639314d71","019ce643-47c6-74a0-b3d2-7bf5651ded46","","1450","
            <div class=""stimulus-container"" style=""display: flex; align-items: center; justify-content: center; gap: 30px;"">
                <img src=""images/causal_sequence/dog_causal/dog_causal_7.png"" class=""exp-image"">
                <div style=""font-size: 40px; font-weight: bold; color: green; border: 5px solid green; padding: 25px; border-radius: 15px; background-color: #f0fff0;"">
                    WORTH<br>$1
                </div>
            </div>
            <div class=""question-area"">
                <p style=""font-size: 20px; font-weight: bold; margin: 0;"">Was there a person in this image?</p>
            </div>","0","part2_value_learning","","dog_causal","7","","",""
"","","","","","html-keyboard-response","138","1274146","0.0-138.0","76B7C9ED783E4A2EB3064083D23A5E14","019ce654-2a31-7fbb-8f0d-e20639314d71","019ce643-47c6-74a0-b3d2-7bf5651ded46","","null","
            <div class=""stimulus-container"" style=""display: flex; align-items: center; justify-content: center; gap: 30px;"">
                <img src=""images/causal_sequence/saving_a_cat_causal/saving_a_cat_causal_5.png"" class=""exp-image"">
                <div style=""font-size: 40px; font-weight: bold; color: green; border: 5px solid green; padding: 25px; border-radius: 15px; background-color: #f0fff0;"">
                    WORTH<br>$1
                </div>
            </div>
            <div class=""question-area""></div>","null","","","","","","",""
"","","","","","html-button-response","139","1275128","0.0-139.0","76B7C9ED783E4A2EB3064083D23A5E14","019ce654-2a31-7fbb-8f0d-e20639314d71","019ce643-47c6-74a0-b3d2-7bf5651ded46","","980","
            <div class=""stimulus-container"" style=""display: flex; align-items: center; justify-content: center; gap: 30px;"">
                <img src=""images/causal_sequence/saving_a_cat_causal/saving_a_cat_causal_5.png"" class=""exp-image"">
                <div style=""font-size: 40px; font-weight: bold; color: green; border: 5px solid green; padding: 25px; border-radius: 15px; background-color: #f0fff0;"">
                    WORTH<br>$1
                </div>
            </div>
            <div class=""question-area"">
                <p style=""font-size: 20px; font-weight: bold; margin: 0;"">Was there a person in this image?</p>
            </div>","0","part2_value_learning","","saving_a_cat_causal","5","","",""
"","","","","","html-keyboard-response","140","1285142","0.0-140.0","76B7C9ED783E4A2EB3064083D23A5E14","019ce654-2a31-7fbb-8f0d-e20639314d71","019ce643-47c6-74a0-b3d2-7bf5651ded46","","null","
            <div class=""stimulus-container"" style=""display: flex; align-items: center; justify-content: center; gap: 30px;"">
                <img src=""images/causal_sequence/coin_causal/coin_causal_7.png"" class=""exp-image"">
                <div style=""font-size: 40px; font-weight: bold; color: green; border: 5px solid green; padding: 25px; border-radius: 15px; background-color: #f0fff0;"">
                    WORTH<br>$1
                </div>
            </div>
            <div class=""question-area""></div>","null","","","","","","",""
"","","","","","html-button-response","141","1286410","0.0-141.0","76B7C9ED783E4A2EB3064083D23A5E14","019ce654-2a31-7fbb-8f0d-e20639314d71","019ce643-47c6-74a0-b3d2-7bf5651ded46","","1266","
            <div class=""stimulus-container"" style=""display: flex; align-items: center; justify-content: center; gap: 30px;"">
                <img src=""images/causal_sequence/coin_causal/coin_causal_7.png"" class=""exp-image"">
                <div style=""font-size: 40px; font-weight: bold; color: green; border: 5px solid green; padding: 25px; border-radius: 15px; background-color: #f0fff0;"">
                    WORTH<br>$1
                </div>
            </div>
            <div class=""question-area"">
                <p style=""font-size: 20px; font-weight: bold; margin: 0;"">Was there a person in this image?</p>
            </div>","1","part2_value_learning","","coin_causal","7","","",""
"","","","","","html-keyboard-response","142","1296422","0.0-142.0","76B7C9ED783E4A2EB3064083D23A5E14","019ce654-2a31-7fbb-8f0d-e20639314d71","019ce643-47c6-74a0-b3d2-7bf5651ded46","","null","
            <div class=""stimulus-container"" style=""display: flex; align-items: center; justify-content: center; gap: 30px;"">
                <img src=""images/causal_sequence/museum_causal/museum_causal_5.png"" class=""exp-image"">
                <div style=""font-size: 40px; font-weight: bold; color: green; border: 5px solid green; padding: 25px; border-radius: 15px; background-color: #f0fff0;"">
                    WORTH<br>$1
                </div>
            </div>
            <div class=""question-area""></div>","null","","","","","","",""
"","","","","","html-button-response","143","1298188","0.0-143.0","76B7C9ED783E4A2EB3064083D23A5E14","019ce654-2a31-7fbb-8f0d-e20639314d71","019ce643-47c6-74a0-b3d2-7bf5651ded46","","1764","
            <div class=""stimulus-container"" style=""display: flex; align-items: center; justify-content: center; gap: 30px;"">
                <img src=""images/causal_sequence/museum_causal/museum_causal_5.png"" class=""exp-image"">
                <div style=""font-size: 40px; font-weight: bold; color: green; border: 5px solid green; padding: 25px; border-radius: 15px; background-color: #f0fff0;"">
                    WORTH<br>$1
                </div>
            </div>
            <div class=""question-area"">
                <p style=""font-size: 20px; font-weight: bold; margin: 0;"">Was there a person in this image?</p>
            </div>","0","part2_value_learning","","museum_causal","5","","",""
"","","","","","html-keyboard-response","144","1308198","0.0-144.0","76B7C9ED783E4A2EB3064083D23A5E14","019ce654-2a31-7fbb-8f0d-e20639314d71","019ce643-47c6-74a0-b3d2-7bf5651ded46","","null","
            <div class=""stimulus-container"" style=""display: flex; align-items: center; justify-content: center; gap: 30px;"">
                <img src=""images/causal_sequence/package_causal/package_causal_3.png"" class=""exp-image"">
                <div style=""font-size: 40px; font-weight: bold; color: green; border: 5px solid green; padding: 25px; border-radius: 15px; background-color: #f0fff0;"">
                    WORTH<br>$1
                </div>
            </div>
            <div class=""question-area""></div>","null","","","","","","",""
"","","","","","html-button-response","145","1309682","0.0-145.0","76B7C9ED783E4A2EB3064083D23A5E14","019ce654-2a31-7fbb-8f0d-e20639314d71","019ce643-47c6-74a0-b3d2-7bf5651ded46","","1482","
            <div class=""stimulus-container"" style=""display: flex; align-items: center; justify-content: center; gap: 30px;"">
                <img src=""images/causal_sequence/package_causal/package_causal_3.png"" class=""exp-image"">
                <div style=""font-size: 40px; font-weight: bold; color: green; border: 5px solid green; padding: 25px; border-radius: 15px; background-color: #f0fff0;"">
                    WORTH<br>$1
                </div>
            </div>
            <div class=""question-area"">
                <p style=""font-size: 20px; font-weight: bold; margin: 0;"">Was there a person in this image?</p>
            </div>","0","part2_value_learning","","package_causal","3","","",""
"","","","","","instructions","146","1312967","0.0-146.0","76B7C9ED783E4A2EB3064083D23A5E14","019ce654-2a31-7fbb-8f0d-e20639314d71","019ce643-47c6-74a0-b3d2-7bf5651ded46","[{""page_index"":0,""viewing_time"":3283}]","3284","","","","","","","","",""
"","","","","","instructions","147","1317698","0.0-147.0","76B7C9ED783E4A2EB3064083D23A5E14","019ce654-2a31-7fbb-8f0d-e20639314d71","019ce643-47c6-74a0-b3d2-7bf5651ded46","[{""page_index"":0,""viewing_time"":4730}]","4730","","","","","","","","",""
"","","","","","html-keyboard-response","148","1327704","0.0-148.0-0.0","76B7C9ED783E4A2EB3064083D23A5E14","019ce654-2a31-7fbb-8f0d-e20639314d71","019ce643-47c6-74a0-b3d2-7bf5651ded46","","null","
                        <div style=""font-family: Arial; margin-bottom: 20px;""><h3>Which image is more valuable?</h3></div>
                        <div class=""stimulus-container"" style=""display: flex; width: 1100px; justify-content: center; gap: 50px;"">
                            <img src=""images/causal_sequence/dog_causal/dog_causal_6.png"" class=""exp-image"">
                            <img src=""images/causal_sequence/dog_causal/dog_causal_8.png"" class=""exp-image"">
                        </div>","null","","","","","","",""
"","","","","","html-button-response","149","1329359","0.0-148.0-1.0","76B7C9ED783E4A2EB3064083D23A5E14","019ce654-2a31-7fbb-8f0d-e20639314d71","019ce643-47c6-74a0-b3d2-7bf5651ded46","","1652","
                        <div style=""font-family: Arial; margin-bottom: 20px;""><h3>Which image is more valuable?</h3></div>
                        <div class=""stimulus-container"" style=""display: flex; width: 1100px; justify-content: center; gap: 50px;"">
                            <img src=""images/causal_sequence/dog_causal/dog_causal_6.png"" class=""exp-image"">
                            <img src=""images/causal_sequence/dog_causal/dog_causal_8.png"" class=""exp-image"">
                        </div>","1","part3_final_choice","","dog_causal","","7","8","1"
"","","","","","html-keyboard-response","150","1339373","0.0-149.0-0.0","76B7C9ED783E4A2EB3064083D23A5E14","019ce654-2a31-7fbb-8f0d-e20639314d71","019ce643-47c6-74a0-b3d2-7bf5651ded46","","null","
                        <div style=""font-family: Arial; margin-bottom: 20px;""><h3>Which image is more valuable?</h3></div>
                        <div class=""stimulus-container"" style=""display: flex; width: 1100px; justify-content: center; gap: 50px;"">
                            <img src=""images/causal_sequence/the_performance_causal/the_performance_causal_6.png"" class=""exp-image"">
                            <img src=""images/causal_sequence/the_performance_causal/the_performance_causal_8.png"" class=""exp-image"">
                        </div>","null","","","","","","",""
"","","","","","html-button-response","151","1341253","0.0-149.0-1.0","76B7C9ED783E4A2EB3064083D23A5E14","019ce654-2a31-7fbb-8f0d-e20639314d71","019ce643-47c6-74a0-b3d2-7bf5651ded46","","1877","
                        <div style=""font-family: Arial; margin-bottom: 20px;""><h3>Which image is more valuable?</h3></div>
                        <div class=""stimulus-container"" style=""display: flex; width: 1100px; justify-content: center; gap: 50px;"">
                            <img src=""images/causal_sequence/the_performance_causal/the_performance_causal_6.png"" class=""exp-image"">
                            <img src=""images/causal_sequence/the_performance_causal/the_performance_causal_8.png"" class=""exp-image"">
                        </div>","0","part3_final_choice","","the_performance_causal","","7","6","-1"
"","","","","","html-keyboard-response","152","1351270","0.0-150.0-0.0","76B7C9ED783E4A2EB3064083D23A5E14","019ce654-2a31-7fbb-8f0d-e20639314d71","019ce643-47c6-74a0-b3d2-7bf5651ded46","","null","
                        <div style=""font-family: Arial; margin-bottom: 20px;""><h3>Which image is more valuable?</h3></div>
                        <div class=""stimulus-container"" style=""display: flex; width: 1100px; justify-content: center; gap: 50px;"">
                            <img src=""images/causal_sequence/package_causal/package_causal_2.png"" class=""exp-image"">
                            <img src=""images/causal_sequence/package_causal/package_causal_4.png"" class=""exp-image"">
                        </div>","null","","","","","","",""
"","","","","","html-button-response","153","1352814","0.0-150.0-1.0","76B7C9ED783E4A2EB3064083D23A5E14","019ce654-2a31-7fbb-8f0d-e20639314d71","019ce643-47c6-74a0-b3d2-7bf5651ded46","","1543","
                        <div style=""font-family: Arial; margin-bottom: 20px;""><h3>Which image is more valuable?</h3></div>
                        <div class=""stimulus-container"" style=""display: flex; width: 1100px; justify-content: center; gap: 50px;"">
                            <img src=""images/causal_sequence/package_causal/package_causal_2.png"" class=""exp-image"">
                            <img src=""images/causal_sequence/package_causal/package_causal_4.png"" class=""exp-image"">
                        </div>","1","part3_final_choice","","package_causal","","3","4","1"
"","","","","","html-keyboard-response","154","1362831","0.0-151.0-0.0","76B7C9ED783E4A2EB3064083D23A5E14","019ce654-2a31-7fbb-8f0d-e20639314d71","019ce643-47c6-74a0-b3d2-7bf5651ded46","","null","
                        <div style=""font-family: Arial; margin-bottom: 20px;""><h3>Which image is more valuable?</h3></div>
                        <div class=""stimulus-container"" style=""display: flex; width: 1100px; justify-content: center; gap: 50px;"">
                            <img src=""images/causal_sequence/museum_causal/museum_causal_6.png"" class=""exp-image"">
                            <img src=""images/causal_sequence/museum_causal/museum_causal_4.png"" class=""exp-image"">
                        </div>","null","","","","","","",""
"","","","","","html-button-response","155","1366172","0.0-151.0-1.0","76B7C9ED783E4A2EB3064083D23A5E14","019ce654-2a31-7fbb-8f0d-e20639314d71","019ce643-47c6-74a0-b3d2-7bf5651ded46","","3338","
                        <div style=""font-family: Arial; margin-bottom: 20px;""><h3>Which image is more valuable?</h3></div>
                        <div class=""stimulus-container"" style=""display: flex; width: 1100px; justify-content: center; gap: 50px;"">
                            <img src=""images/causal_sequence/museum_causal/museum_causal_6.png"" class=""exp-image"">
                            <img src=""images/causal_sequence/museum_causal/museum_causal_4.png"" class=""exp-image"">
                        </div>","0","part3_final_choice","","museum_causal","","5","6","1"
"","","","","","html-keyboard-response","156","1376184","0.0-152.0-0.0","76B7C9ED783E4A2EB3064083D23A5E14","019ce654-2a31-7fbb-8f0d-e20639314d71","019ce643-47c6-74a0-b3d2-7bf5651ded46","","null","
                        <div style=""font-family: Arial; margin-bottom: 20px;""><h3>Which image is more valuable?</h3></div>
                        <div class=""stimulus-container"" style=""display: flex; width: 1100px; justify-content: center; gap: 50px;"">
                            <img src=""images/causal_sequence/saving_a_cat_causal/saving_a_cat_causal_6.png"" class=""exp-image"">
                            <img src=""images/causal_sequence/saving_a_cat_causal/saving_a_cat_causal_4.png"" class=""exp-image"">
                        </div>","null","","","","","","",""
"","","","","","html-button-response","157","1377884","0.0-152.0-1.0","76B7C9ED783E4A2EB3064083D23A5E14","019ce654-2a31-7fbb-8f0d-e20639314d71","019ce643-47c6-74a0-b3d2-7bf5651ded46","","1698","
                        <div style=""font-family: Arial; margin-bottom: 20px;""><h3>Which image is more valuable?</h3></div>
                        <div class=""stimulus-container"" style=""display: flex; width: 1100px; justify-content: center; gap: 50px;"">
                            <img src=""images/causal_sequence/saving_a_cat_causal/saving_a_cat_causal_6.png"" class=""exp-image"">
                            <img src=""images/causal_sequence/saving_a_cat_causal/saving_a_cat_causal_4.png"" class=""exp-image"">
                        </div>","0","part3_final_choice","","saving_a_cat_causal","","5","6","1"
"","","","","","html-keyboard-response","158","1387890","0.0-153.0-0.0","76B7C9ED783E4A2EB3064083D23A5E14","019ce654-2a31-7fbb-8f0d-e20639314d71","019ce643-47c6-74a0-b3d2-7bf5651ded46","","null","
                        <div style=""font-family: Arial; margin-bottom: 20px;""><h3>Which image is more valuable?</h3></div>
                        <div class=""stimulus-container"" style=""display: flex; width: 1100px; justify-content: center; gap: 50px;"">
                            <img src=""images/causal_sequence/coin_causal/coin_causal_8.png"" class=""exp-image"">
                            <img src=""images/causal_sequence/coin_causal/coin_causal_6.png"" class=""exp-image"">
                        </div>","null","","","","","","",""
"","","","","","html-button-response","159","1390532","0.0-153.0-1.0","76B7C9ED783E4A2EB3064083D23A5E14","019ce654-2a31-7fbb-8f0d-e20639314d71","019ce643-47c6-74a0-b3d2-7bf5651ded46","","2640","
                        <div style=""font-family: Arial; margin-bottom: 20px;""><h3>Which image is more valuable?</h3></div>
                        <div class=""stimulus-container"" style=""display: flex; width: 1100px; justify-content: center; gap: 50px;"">
                            <img src=""images/causal_sequence/coin_causal/coin_causal_8.png"" class=""exp-image"">
                            <img src=""images/causal_sequence/coin_causal/coin_causal_6.png"" class=""exp-image"">
                        </div>","1","part3_final_choice","","coin_causal","","7","6","-1"
"","","","","","survey-text","160","1472202","0.0-154.0","76B7C9ED783E4A2EB3064083D23A5E14","019ce654-2a31-7fbb-8f0d-e20639314d71","019ce643-47c6-74a0-b3d2-7bf5651ded46","","81660","","{""gender"":""Female"",""age"":""25"",""decision_strategy"":""I based on the event. What appeared to be more valuable to me."",""consistency_check"":""Yes""}","demographics_and_strategy","","","","","",""
"","","","","","instructions","161","1479288","0.0-155.0","76B7C9ED783E4A2EB3064083D23A5E14","019ce654-2a31-7fbb-8f0d-e20639314d71","019ce643-47c6-74a0-b3d2-7bf5651ded46","[{""page_index"":0,""viewing_time"":7085}]","7086","","","","","","","","",""
