"success","timeout","failed_images","failed_audio","failed_video","trial_type","trial_index","time_elapsed","internal_node_id","subject_id","study_id","session_id","view_history","rt","stimulus","response","task","image_index","folder","sequence_type","presentation_order","valuable_image_index","reward_type","distance_from_x","target_X","chosen_image_index","is_x_plus_dist","correct_choice"
"true","false","[]","[]","[]","preload","0","8655","0.0-0.0","5EBF332C075D45F79B182475C7704A38","019d0643-c7d1-7164-a7ee-5324a4b0c922","019d0640-0a2d-7740-a972-9c73365b2dcb","","","","","","","","","","","","","","","",""
"","","","","","instructions","1","15666","0.0-1.0","5EBF332C075D45F79B182475C7704A38","019d0643-c7d1-7164-a7ee-5324a4b0c922","019d0640-0a2d-7740-a972-9c73365b2dcb","[{""page_index"":0,""viewing_time"":7000}]","7002","","","","","","","","","","","","","",""
"","","","","","instructions","2","18390","0.0-2.0","5EBF332C075D45F79B182475C7704A38","019d0643-c7d1-7164-a7ee-5324a4b0c922","019d0640-0a2d-7740-a972-9c73365b2dcb","[{""page_index"":0,""viewing_time"":2719}]","2719","","","","","","","","","","","","","",""
"true","","","","","fullscreen","3","21039","0.0-3.0","5EBF332C075D45F79B182475C7704A38","019d0643-c7d1-7164-a7ee-5324a4b0c922","019d0640-0a2d-7740-a972-9c73365b2dcb","","1628","","","","","","","","","","","","","",""
"","","","","","instructions","4","29860","0.0-4.0","5EBF332C075D45F79B182475C7704A38","019d0643-c7d1-7164-a7ee-5324a4b0c922","019d0640-0a2d-7740-a972-9c73365b2dcb","[{""page_index"":0,""viewing_time"":8805}]","8808","","","","","","","","","","","","","",""
"","","","","","instructions","5","43107","0.0-5.0","5EBF332C075D45F79B182475C7704A38","019d0643-c7d1-7164-a7ee-5324a4b0c922","019d0640-0a2d-7740-a972-9c73365b2dcb","[{""page_index"":0,""viewing_time"":13243}]","13244","","","","","","","","","","","","","",""
"","","","","","html-keyboard-response","6","47123","0.0-6.0","5EBF332C075D45F79B182475C7704A38","019d0643-c7d1-7164-a7ee-5324a4b0c922","019d0640-0a2d-7740-a972-9c73365b2dcb","","null","
                <div class=""stimulus-container"">
                    <img src=""images/instructions/movie_1.png"" class=""exp-image"">
                    <div class=""question-area""></div> 
                </div>","null","","","","","","","","","","","",""
"","","","","","html-button-response","7","49363","0.0-7.0","5EBF332C075D45F79B182475C7704A38","019d0643-c7d1-7164-a7ee-5324a4b0c922","019d0640-0a2d-7740-a972-9c73365b2dcb","","2227","
                <div class=""stimulus-container"">
                    <img src=""images/instructions/movie_1.png"" class=""exp-image"">
                    <div class=""question-area"">
                        <p style=""font-size: 20px; font-weight: bold; margin: 0;"">Was there a person in this image?</p>
                    </div>
                </div>","0","example_question","1","","","","","","","","","",""
"","","","","","html-keyboard-response","8","53368","0.0-8.0","5EBF332C075D45F79B182475C7704A38","019d0643-c7d1-7164-a7ee-5324a4b0c922","019d0640-0a2d-7740-a972-9c73365b2dcb","","null","
                <div class=""stimulus-container"">
                    <img src=""images/instructions/movie_2.png"" class=""exp-image"">
                    <div class=""question-area""></div> 
                </div>","null","","","","","","","","","","","",""
"","","","","","html-button-response","9","56290","0.0-9.0","5EBF332C075D45F79B182475C7704A38","019d0643-c7d1-7164-a7ee-5324a4b0c922","019d0640-0a2d-7740-a972-9c73365b2dcb","","2920","
                <div class=""stimulus-container"">
                    <img src=""images/instructions/movie_2.png"" class=""exp-image"">
                    <div class=""question-area"">
                        <p style=""font-size: 20px; font-weight: bold; margin: 0;"">Was there a person in this image?</p>
                    </div>
                </div>","0","example_question","2","","","","","","","","","",""
"","","","","","html-keyboard-response","10","60295","0.0-10.0","5EBF332C075D45F79B182475C7704A38","019d0643-c7d1-7164-a7ee-5324a4b0c922","019d0640-0a2d-7740-a972-9c73365b2dcb","","null","
                <div class=""stimulus-container"">
                    <img src=""images/instructions/movie_3.png"" class=""exp-image"">
                    <div class=""question-area""></div> 
                </div>","null","","","","","","","","","","","",""
"","","","","","html-button-response","11","61471","0.0-11.0","5EBF332C075D45F79B182475C7704A38","019d0643-c7d1-7164-a7ee-5324a4b0c922","019d0640-0a2d-7740-a972-9c73365b2dcb","","1175","
                <div class=""stimulus-container"">
                    <img src=""images/instructions/movie_3.png"" class=""exp-image"">
                    <div class=""question-area"">
                        <p style=""font-size: 20px; font-weight: bold; margin: 0;"">Was there a person in this image?</p>
                    </div>
                </div>","0","example_question","3","","","","","","","","","",""
"","","","","","html-keyboard-response","12","65473","0.0-12.0","5EBF332C075D45F79B182475C7704A38","019d0643-c7d1-7164-a7ee-5324a4b0c922","019d0640-0a2d-7740-a972-9c73365b2dcb","","null","
                <div class=""stimulus-container"">
                    <img src=""images/instructions/movie_4.png"" class=""exp-image"">
                    <div class=""question-area""></div> 
                </div>","null","","","","","","","","","","","",""
"","","","","","html-button-response","13","66139","0.0-13.0","5EBF332C075D45F79B182475C7704A38","019d0643-c7d1-7164-a7ee-5324a4b0c922","019d0640-0a2d-7740-a972-9c73365b2dcb","","664","
                <div class=""stimulus-container"">
                    <img src=""images/instructions/movie_4.png"" class=""exp-image"">
                    <div class=""question-area"">
                        <p style=""font-size: 20px; font-weight: bold; margin: 0;"">Was there a person in this image?</p>
                    </div>
                </div>","0","example_question","4","","","","","","","","","",""
"","","","","","instructions","14","68506","0.0-14.0","5EBF332C075D45F79B182475C7704A38","019d0643-c7d1-7164-a7ee-5324a4b0c922","019d0640-0a2d-7740-a972-9c73365b2dcb","[{""page_index"":0,""viewing_time"":2367}]","2367","","","","","","","","","","","","","",""
"","","","","","instructions","15","114445","0.0-15.0","5EBF332C075D45F79B182475C7704A38","019d0643-c7d1-7164-a7ee-5324a4b0c922","019d0640-0a2d-7740-a972-9c73365b2dcb","[{""page_index"":0,""viewing_time"":45933}]","45937","","","","","","","","","","","","","",""
"","","","","","html-keyboard-response","16","119455","0.0-16.0","5EBF332C075D45F79B182475C7704A38","019d0643-c7d1-7164-a7ee-5324a4b0c922","019d0640-0a2d-7740-a972-9c73365b2dcb","","null","<div style=""background-color: white; width: 100vw; height: 100vh;""></div>","null","","","","","","","","","","","",""
"","","","","","html-keyboard-response","17","124465","0.0-17.0","5EBF332C075D45F79B182475C7704A38","019d0643-c7d1-7164-a7ee-5324a4b0c922","019d0640-0a2d-7740-a972-9c73365b2dcb","","null","
                <div class=""stimulus-container"">
                    <img src=""images/semantic_sequence/visiting_cities_semantic/visiting_cities_semantic_1.png"" class=""exp-image"">
                    <div class=""question-area""></div> 
                </div>","null","","","","","","","","","","","",""
"","","","","","html-button-response","18","126925","0.0-18.0","5EBF332C075D45F79B182475C7704A38","019d0643-c7d1-7164-a7ee-5324a4b0c922","019d0640-0a2d-7740-a972-9c73365b2dcb","","2456","
                <div class=""stimulus-container"">
                    <img src=""images/semantic_sequence/visiting_cities_semantic/visiting_cities_semantic_1.png"" class=""exp-image"">
                    <div class=""question-area"">
                        <p style=""font-size: 20px; font-weight: bold; margin: 0;"">Is there a person in this image?</p>
                    </div>
                </div>","0","main_experiment_trial","1","visiting_cities_semantic","semantic_sequence","chronological","","","","","","",""
"","","","","","html-keyboard-response","19","131928","0.0-19.0","5EBF332C075D45F79B182475C7704A38","019d0643-c7d1-7164-a7ee-5324a4b0c922","019d0640-0a2d-7740-a972-9c73365b2dcb","","null","
                <div class=""stimulus-container"">
                    <img src=""images/semantic_sequence/visiting_cities_semantic/visiting_cities_semantic_2.png"" class=""exp-image"">
                    <div class=""question-area""></div> 
                </div>","null","","","","","","","","","","","",""
"","","","","","html-button-response","20","133575","0.0-20.0","5EBF332C075D45F79B182475C7704A38","019d0643-c7d1-7164-a7ee-5324a4b0c922","019d0640-0a2d-7740-a972-9c73365b2dcb","","1643","
                <div class=""stimulus-container"">
                    <img src=""images/semantic_sequence/visiting_cities_semantic/visiting_cities_semantic_2.png"" class=""exp-image"">
                    <div class=""question-area"">
                        <p style=""font-size: 20px; font-weight: bold; margin: 0;"">Is there a person in this image?</p>
                    </div>
                </div>","1","main_experiment_trial","2","visiting_cities_semantic","semantic_sequence","chronological","","","","","","",""
"","","","","","html-keyboard-response","21","138578","0.0-21.0","5EBF332C075D45F79B182475C7704A38","019d0643-c7d1-7164-a7ee-5324a4b0c922","019d0640-0a2d-7740-a972-9c73365b2dcb","","null","
                <div class=""stimulus-container"">
                    <img src=""images/semantic_sequence/visiting_cities_semantic/visiting_cities_semantic_3.png"" class=""exp-image"">
                    <div class=""question-area""></div> 
                </div>","null","","","","","","","","","","","",""
"","","","","","html-button-response","22","140030","0.0-22.0","5EBF332C075D45F79B182475C7704A38","019d0643-c7d1-7164-a7ee-5324a4b0c922","019d0640-0a2d-7740-a972-9c73365b2dcb","","1449","
                <div class=""stimulus-container"">
                    <img src=""images/semantic_sequence/visiting_cities_semantic/visiting_cities_semantic_3.png"" class=""exp-image"">
                    <div class=""question-area"">
                        <p style=""font-size: 20px; font-weight: bold; margin: 0;"">Is there a person in this image?</p>
                    </div>
                </div>","1","main_experiment_trial","3","visiting_cities_semantic","semantic_sequence","chronological","","","","","","",""
"","","","","","html-keyboard-response","23","145032","0.0-23.0","5EBF332C075D45F79B182475C7704A38","019d0643-c7d1-7164-a7ee-5324a4b0c922","019d0640-0a2d-7740-a972-9c73365b2dcb","","null","
                <div class=""stimulus-container"">
                    <img src=""images/semantic_sequence/visiting_cities_semantic/visiting_cities_semantic_4.png"" class=""exp-image"">
                    <div class=""question-area""></div> 
                </div>","null","","","","","","","","","","","",""
"","","","","","html-button-response","24","146623","0.0-24.0","5EBF332C075D45F79B182475C7704A38","019d0643-c7d1-7164-a7ee-5324a4b0c922","019d0640-0a2d-7740-a972-9c73365b2dcb","","1590","
                <div class=""stimulus-container"">
                    <img src=""images/semantic_sequence/visiting_cities_semantic/visiting_cities_semantic_4.png"" class=""exp-image"">
                    <div class=""question-area"">
                        <p style=""font-size: 20px; font-weight: bold; margin: 0;"">Is there a person in this image?</p>
                    </div>
                </div>","1","main_experiment_trial","4","visiting_cities_semantic","semantic_sequence","chronological","","","","","","",""
"","","","","","html-keyboard-response","25","151625","0.0-25.0","5EBF332C075D45F79B182475C7704A38","019d0643-c7d1-7164-a7ee-5324a4b0c922","019d0640-0a2d-7740-a972-9c73365b2dcb","","null","
                <div class=""stimulus-container"">
                    <img src=""images/semantic_sequence/visiting_cities_semantic/visiting_cities_semantic_5.png"" class=""exp-image"">
                    <div class=""question-area""></div> 
                </div>","null","","","","","","","","","","","",""
"","","","","","html-button-response","26","153123","0.0-26.0","5EBF332C075D45F79B182475C7704A38","019d0643-c7d1-7164-a7ee-5324a4b0c922","019d0640-0a2d-7740-a972-9c73365b2dcb","","1497","
                <div class=""stimulus-container"">
                    <img src=""images/semantic_sequence/visiting_cities_semantic/visiting_cities_semantic_5.png"" class=""exp-image"">
                    <div class=""question-area"">
                        <p style=""font-size: 20px; font-weight: bold; margin: 0;"">Is there a person in this image?</p>
                    </div>
                </div>","1","main_experiment_trial","5","visiting_cities_semantic","semantic_sequence","chronological","","","","","","",""
"","","","","","html-keyboard-response","27","158127","0.0-27.0","5EBF332C075D45F79B182475C7704A38","019d0643-c7d1-7164-a7ee-5324a4b0c922","019d0640-0a2d-7740-a972-9c73365b2dcb","","null","
                <div class=""stimulus-container"">
                    <img src=""images/semantic_sequence/visiting_cities_semantic/visiting_cities_semantic_6.png"" class=""exp-image"">
                    <div class=""question-area""></div> 
                </div>","null","","","","","","","","","","","",""
"","","","","","html-button-response","28","159374","0.0-28.0","5EBF332C075D45F79B182475C7704A38","019d0643-c7d1-7164-a7ee-5324a4b0c922","019d0640-0a2d-7740-a972-9c73365b2dcb","","1245","
                <div class=""stimulus-container"">
                    <img src=""images/semantic_sequence/visiting_cities_semantic/visiting_cities_semantic_6.png"" class=""exp-image"">
                    <div class=""question-area"">
                        <p style=""font-size: 20px; font-weight: bold; margin: 0;"">Is there a person in this image?</p>
                    </div>
                </div>","1","main_experiment_trial","6","visiting_cities_semantic","semantic_sequence","chronological","","","","","","",""
"","","","","","html-keyboard-response","29","164376","0.0-29.0","5EBF332C075D45F79B182475C7704A38","019d0643-c7d1-7164-a7ee-5324a4b0c922","019d0640-0a2d-7740-a972-9c73365b2dcb","","null","
                <div class=""stimulus-container"">
                    <img src=""images/semantic_sequence/visiting_cities_semantic/visiting_cities_semantic_7.png"" class=""exp-image"">
                    <div class=""question-area""></div> 
                </div>","null","","","","","","","","","","","",""
"","","","","","html-button-response","30","166490","0.0-30.0","5EBF332C075D45F79B182475C7704A38","019d0643-c7d1-7164-a7ee-5324a4b0c922","019d0640-0a2d-7740-a972-9c73365b2dcb","","2112","
                <div class=""stimulus-container"">
                    <img src=""images/semantic_sequence/visiting_cities_semantic/visiting_cities_semantic_7.png"" class=""exp-image"">
                    <div class=""question-area"">
                        <p style=""font-size: 20px; font-weight: bold; margin: 0;"">Is there a person in this image?</p>
                    </div>
                </div>","0","main_experiment_trial","7","visiting_cities_semantic","semantic_sequence","chronological","","","","","","",""
"","","","","","html-keyboard-response","31","171492","0.0-31.0","5EBF332C075D45F79B182475C7704A38","019d0643-c7d1-7164-a7ee-5324a4b0c922","019d0640-0a2d-7740-a972-9c73365b2dcb","","null","
                <div class=""stimulus-container"">
                    <img src=""images/semantic_sequence/visiting_cities_semantic/visiting_cities_semantic_8.png"" class=""exp-image"">
                    <div class=""question-area""></div> 
                </div>","null","","","","","","","","","","","",""
"","","","","","html-button-response","32","172223","0.0-32.0","5EBF332C075D45F79B182475C7704A38","019d0643-c7d1-7164-a7ee-5324a4b0c922","019d0640-0a2d-7740-a972-9c73365b2dcb","","729","
                <div class=""stimulus-container"">
                    <img src=""images/semantic_sequence/visiting_cities_semantic/visiting_cities_semantic_8.png"" class=""exp-image"">
                    <div class=""question-area"">
                        <p style=""font-size: 20px; font-weight: bold; margin: 0;"">Is there a person in this image?</p>
                    </div>
                </div>","0","main_experiment_trial","8","visiting_cities_semantic","semantic_sequence","chronological","","","","","","",""
"","","","","","html-keyboard-response","33","177226","0.0-33.0","5EBF332C075D45F79B182475C7704A38","019d0643-c7d1-7164-a7ee-5324a4b0c922","019d0640-0a2d-7740-a972-9c73365b2dcb","","null","
                <div class=""stimulus-container"">
                    <img src=""images/semantic_sequence/visiting_cities_semantic/visiting_cities_semantic_9.png"" class=""exp-image"">
                    <div class=""question-area""></div> 
                </div>","null","","","","","","","","","","","",""
"","","","","","html-button-response","34","178340","0.0-34.0","5EBF332C075D45F79B182475C7704A38","019d0643-c7d1-7164-a7ee-5324a4b0c922","019d0640-0a2d-7740-a972-9c73365b2dcb","","1112","
                <div class=""stimulus-container"">
                    <img src=""images/semantic_sequence/visiting_cities_semantic/visiting_cities_semantic_9.png"" class=""exp-image"">
                    <div class=""question-area"">
                        <p style=""font-size: 20px; font-weight: bold; margin: 0;"">Is there a person in this image?</p>
                    </div>
                </div>","0","main_experiment_trial","9","visiting_cities_semantic","semantic_sequence","chronological","","","","","","",""
"","","","","","html-keyboard-response","35","183343","0.0-35.0","5EBF332C075D45F79B182475C7704A38","019d0643-c7d1-7164-a7ee-5324a4b0c922","019d0640-0a2d-7740-a972-9c73365b2dcb","","null","
                <div class=""stimulus-container"">
                    <img src=""images/semantic_sequence/visiting_cities_semantic/visiting_cities_semantic_ten.png"" class=""exp-image"">
                    <div class=""question-area""></div> 
                </div>","null","","","","","","","","","","","",""
"","","","","","html-button-response","36","186345","0.0-36.0","5EBF332C075D45F79B182475C7704A38","019d0643-c7d1-7164-a7ee-5324a4b0c922","019d0640-0a2d-7740-a972-9c73365b2dcb","","null","
                <div class=""stimulus-container"">
                    <img src=""images/semantic_sequence/visiting_cities_semantic/visiting_cities_semantic_ten.png"" class=""exp-image"">
                    <div class=""question-area"">
                        <p style=""font-size: 20px; font-weight: bold; margin: 0;"">Is there a person in this image?</p>
                    </div>
                </div>","null","main_experiment_trial","ten","visiting_cities_semantic","semantic_sequence","chronological","","","","","","",""
"","","","","","html-keyboard-response","37","191347","0.0-37.0","5EBF332C075D45F79B182475C7704A38","019d0643-c7d1-7164-a7ee-5324a4b0c922","019d0640-0a2d-7740-a972-9c73365b2dcb","","null","<div style=""background-color: white; width: 100vw; height: 100vh;""></div>","null","","","","","","","","","","","",""
"","","","","","html-keyboard-response","38","196349","0.0-38.0","5EBF332C075D45F79B182475C7704A38","019d0643-c7d1-7164-a7ee-5324a4b0c922","019d0640-0a2d-7740-a972-9c73365b2dcb","","null","
                <div class=""stimulus-container"">
                    <img src=""images/schematic_sequence/hotel_scheme/hotel_scheme_1.png"" class=""exp-image"">
                    <div class=""question-area""></div> 
                </div>","null","","","","","","","","","","","",""
"","","","","","html-button-response","39","197306","0.0-39.0","5EBF332C075D45F79B182475C7704A38","019d0643-c7d1-7164-a7ee-5324a4b0c922","019d0640-0a2d-7740-a972-9c73365b2dcb","","956","
                <div class=""stimulus-container"">
                    <img src=""images/schematic_sequence/hotel_scheme/hotel_scheme_1.png"" class=""exp-image"">
                    <div class=""question-area"">
                        <p style=""font-size: 20px; font-weight: bold; margin: 0;"">Is there a person in this image?</p>
                    </div>
                </div>","1","main_experiment_trial","1","hotel_scheme","schematic_sequence","chronological","","","","","","",""
"","","","","","html-keyboard-response","40","202308","0.0-40.0","5EBF332C075D45F79B182475C7704A38","019d0643-c7d1-7164-a7ee-5324a4b0c922","019d0640-0a2d-7740-a972-9c73365b2dcb","","null","
                <div class=""stimulus-container"">
                    <img src=""images/schematic_sequence/hotel_scheme/hotel_scheme_2.png"" class=""exp-image"">
                    <div class=""question-area""></div> 
                </div>","null","","","","","","","","","","","",""
"","","","","","html-button-response","41","203156","0.0-41.0","5EBF332C075D45F79B182475C7704A38","019d0643-c7d1-7164-a7ee-5324a4b0c922","019d0640-0a2d-7740-a972-9c73365b2dcb","","847","
                <div class=""stimulus-container"">
                    <img src=""images/schematic_sequence/hotel_scheme/hotel_scheme_2.png"" class=""exp-image"">
                    <div class=""question-area"">
                        <p style=""font-size: 20px; font-weight: bold; margin: 0;"">Is there a person in this image?</p>
                    </div>
                </div>","0","main_experiment_trial","2","hotel_scheme","schematic_sequence","chronological","","","","","","",""
"","","","","","html-keyboard-response","42","208159","0.0-42.0","5EBF332C075D45F79B182475C7704A38","019d0643-c7d1-7164-a7ee-5324a4b0c922","019d0640-0a2d-7740-a972-9c73365b2dcb","","null","
                <div class=""stimulus-container"">
                    <img src=""images/schematic_sequence/hotel_scheme/hotel_scheme_3.png"" class=""exp-image"">
                    <div class=""question-area""></div> 
                </div>","null","","","","","","","","","","","",""
"","","","","","html-button-response","43","208990","0.0-43.0","5EBF332C075D45F79B182475C7704A38","019d0643-c7d1-7164-a7ee-5324a4b0c922","019d0640-0a2d-7740-a972-9c73365b2dcb","","829","
                <div class=""stimulus-container"">
                    <img src=""images/schematic_sequence/hotel_scheme/hotel_scheme_3.png"" class=""exp-image"">
                    <div class=""question-area"">
                        <p style=""font-size: 20px; font-weight: bold; margin: 0;"">Is there a person in this image?</p>
                    </div>
                </div>","0","main_experiment_trial","3","hotel_scheme","schematic_sequence","chronological","","","","","","",""
"","","","","","html-keyboard-response","44","213993","0.0-44.0","5EBF332C075D45F79B182475C7704A38","019d0643-c7d1-7164-a7ee-5324a4b0c922","019d0640-0a2d-7740-a972-9c73365b2dcb","","null","
                <div class=""stimulus-container"">
                    <img src=""images/schematic_sequence/hotel_scheme/hotel_scheme_4.png"" class=""exp-image"">
                    <div class=""question-area""></div> 
                </div>","null","","","","","","","","","","","",""
"","","","","","html-button-response","45","214842","0.0-45.0","5EBF332C075D45F79B182475C7704A38","019d0643-c7d1-7164-a7ee-5324a4b0c922","019d0640-0a2d-7740-a972-9c73365b2dcb","","847","
                <div class=""stimulus-container"">
                    <img src=""images/schematic_sequence/hotel_scheme/hotel_scheme_4.png"" class=""exp-image"">
                    <div class=""question-area"">
                        <p style=""font-size: 20px; font-weight: bold; margin: 0;"">Is there a person in this image?</p>
                    </div>
                </div>","1","main_experiment_trial","4","hotel_scheme","schematic_sequence","chronological","","","","","","",""
"","","","","","html-keyboard-response","46","219844","0.0-46.0","5EBF332C075D45F79B182475C7704A38","019d0643-c7d1-7164-a7ee-5324a4b0c922","019d0640-0a2d-7740-a972-9c73365b2dcb","","null","
                <div class=""stimulus-container"">
                    <img src=""images/schematic_sequence/hotel_scheme/hotel_scheme_5.png"" class=""exp-image"">
                    <div class=""question-area""></div> 
                </div>","null","","","","","","","","","","","",""
"","","","","","html-button-response","47","220623","0.0-47.0","5EBF332C075D45F79B182475C7704A38","019d0643-c7d1-7164-a7ee-5324a4b0c922","019d0640-0a2d-7740-a972-9c73365b2dcb","","778","
                <div class=""stimulus-container"">
                    <img src=""images/schematic_sequence/hotel_scheme/hotel_scheme_5.png"" class=""exp-image"">
                    <div class=""question-area"">
                        <p style=""font-size: 20px; font-weight: bold; margin: 0;"">Is there a person in this image?</p>
                    </div>
                </div>","0","main_experiment_trial","5","hotel_scheme","schematic_sequence","chronological","","","","","","",""
"","","","","","html-keyboard-response","48","225625","0.0-48.0","5EBF332C075D45F79B182475C7704A38","019d0643-c7d1-7164-a7ee-5324a4b0c922","019d0640-0a2d-7740-a972-9c73365b2dcb","","null","
                <div class=""stimulus-container"">
                    <img src=""images/schematic_sequence/hotel_scheme/hotel_scheme_6.png"" class=""exp-image"">
                    <div class=""question-area""></div> 
                </div>","null","","","","","","","","","","","",""
"","","","","","html-button-response","49","226573","0.0-49.0","5EBF332C075D45F79B182475C7704A38","019d0643-c7d1-7164-a7ee-5324a4b0c922","019d0640-0a2d-7740-a972-9c73365b2dcb","","946","
                <div class=""stimulus-container"">
                    <img src=""images/schematic_sequence/hotel_scheme/hotel_scheme_6.png"" class=""exp-image"">
                    <div class=""question-area"">
                        <p style=""font-size: 20px; font-weight: bold; margin: 0;"">Is there a person in this image?</p>
                    </div>
                </div>","0","main_experiment_trial","6","hotel_scheme","schematic_sequence","chronological","","","","","","",""
"","","","","","html-keyboard-response","50","231575","0.0-50.0","5EBF332C075D45F79B182475C7704A38","019d0643-c7d1-7164-a7ee-5324a4b0c922","019d0640-0a2d-7740-a972-9c73365b2dcb","","null","
                <div class=""stimulus-container"">
                    <img src=""images/schematic_sequence/hotel_scheme/hotel_scheme_7.png"" class=""exp-image"">
                    <div class=""question-area""></div> 
                </div>","null","","","","","","","","","","","",""
"","","","","","html-button-response","51","232573","0.0-51.0","5EBF332C075D45F79B182475C7704A38","019d0643-c7d1-7164-a7ee-5324a4b0c922","019d0640-0a2d-7740-a972-9c73365b2dcb","","997","
                <div class=""stimulus-container"">
                    <img src=""images/schematic_sequence/hotel_scheme/hotel_scheme_7.png"" class=""exp-image"">
                    <div class=""question-area"">
                        <p style=""font-size: 20px; font-weight: bold; margin: 0;"">Is there a person in this image?</p>
                    </div>
                </div>","0","main_experiment_trial","7","hotel_scheme","schematic_sequence","chronological","","","","","","",""
"","","","","","html-keyboard-response","52","237576","0.0-52.0","5EBF332C075D45F79B182475C7704A38","019d0643-c7d1-7164-a7ee-5324a4b0c922","019d0640-0a2d-7740-a972-9c73365b2dcb","","null","
                <div class=""stimulus-container"">
                    <img src=""images/schematic_sequence/hotel_scheme/hotel_scheme_8.png"" class=""exp-image"">
                    <div class=""question-area""></div> 
                </div>","null","","","","","","","","","","","",""
"","","","","","html-button-response","53","238592","0.0-53.0","5EBF332C075D45F79B182475C7704A38","019d0643-c7d1-7164-a7ee-5324a4b0c922","019d0640-0a2d-7740-a972-9c73365b2dcb","","1014","
                <div class=""stimulus-container"">
                    <img src=""images/schematic_sequence/hotel_scheme/hotel_scheme_8.png"" class=""exp-image"">
                    <div class=""question-area"">
                        <p style=""font-size: 20px; font-weight: bold; margin: 0;"">Is there a person in this image?</p>
                    </div>
                </div>","0","main_experiment_trial","8","hotel_scheme","schematic_sequence","chronological","","","","","","",""
"","","","","","html-keyboard-response","54","243595","0.0-54.0","5EBF332C075D45F79B182475C7704A38","019d0643-c7d1-7164-a7ee-5324a4b0c922","019d0640-0a2d-7740-a972-9c73365b2dcb","","null","
                <div class=""stimulus-container"">
                    <img src=""images/schematic_sequence/hotel_scheme/hotel_scheme_9.png"" class=""exp-image"">
                    <div class=""question-area""></div> 
                </div>","null","","","","","","","","","","","",""
"","","","","","html-button-response","55","244342","0.0-55.0","5EBF332C075D45F79B182475C7704A38","019d0643-c7d1-7164-a7ee-5324a4b0c922","019d0640-0a2d-7740-a972-9c73365b2dcb","","746","
                <div class=""stimulus-container"">
                    <img src=""images/schematic_sequence/hotel_scheme/hotel_scheme_9.png"" class=""exp-image"">
                    <div class=""question-area"">
                        <p style=""font-size: 20px; font-weight: bold; margin: 0;"">Is there a person in this image?</p>
                    </div>
                </div>","0","main_experiment_trial","9","hotel_scheme","schematic_sequence","chronological","","","","","","",""
"","","","","","html-keyboard-response","56","249345","0.0-56.0","5EBF332C075D45F79B182475C7704A38","019d0643-c7d1-7164-a7ee-5324a4b0c922","019d0640-0a2d-7740-a972-9c73365b2dcb","","null","
                <div class=""stimulus-container"">
                    <img src=""images/schematic_sequence/hotel_scheme/hotel_scheme_ten.png"" class=""exp-image"">
                    <div class=""question-area""></div> 
                </div>","null","","","","","","","","","","","",""
"","","","","","html-button-response","57","250108","0.0-57.0","5EBF332C075D45F79B182475C7704A38","019d0643-c7d1-7164-a7ee-5324a4b0c922","019d0640-0a2d-7740-a972-9c73365b2dcb","","762","
                <div class=""stimulus-container"">
                    <img src=""images/schematic_sequence/hotel_scheme/hotel_scheme_ten.png"" class=""exp-image"">
                    <div class=""question-area"">
                        <p style=""font-size: 20px; font-weight: bold; margin: 0;"">Is there a person in this image?</p>
                    </div>
                </div>","0","main_experiment_trial","ten","hotel_scheme","schematic_sequence","chronological","","","","","","",""
"","","","","","html-keyboard-response","58","255110","0.0-58.0","5EBF332C075D45F79B182475C7704A38","019d0643-c7d1-7164-a7ee-5324a4b0c922","019d0640-0a2d-7740-a972-9c73365b2dcb","","null","<div style=""background-color: white; width: 100vw; height: 100vh;""></div>","null","","","","","","","","","","","",""
"","","","","","html-keyboard-response","59","260114","0.0-59.0","5EBF332C075D45F79B182475C7704A38","019d0643-c7d1-7164-a7ee-5324a4b0c922","019d0640-0a2d-7740-a972-9c73365b2dcb","","null","
                <div class=""stimulus-container"">
                    <img src=""images/schematic_sequence/restaurant_scheme/restaurant_scheme_1.png"" class=""exp-image"">
                    <div class=""question-area""></div> 
                </div>","null","","","","","","","","","","","",""
"","","","","","html-button-response","60","261207","0.0-60.0","5EBF332C075D45F79B182475C7704A38","019d0643-c7d1-7164-a7ee-5324a4b0c922","019d0640-0a2d-7740-a972-9c73365b2dcb","","1092","
                <div class=""stimulus-container"">
                    <img src=""images/schematic_sequence/restaurant_scheme/restaurant_scheme_1.png"" class=""exp-image"">
                    <div class=""question-area"">
                        <p style=""font-size: 20px; font-weight: bold; margin: 0;"">Is there a person in this image?</p>
                    </div>
                </div>","0","main_experiment_trial","1","restaurant_scheme","schematic_sequence","chronological","","","","","","",""
"","","","","","html-keyboard-response","61","266210","0.0-61.0","5EBF332C075D45F79B182475C7704A38","019d0643-c7d1-7164-a7ee-5324a4b0c922","019d0640-0a2d-7740-a972-9c73365b2dcb","","null","
                <div class=""stimulus-container"">
                    <img src=""images/schematic_sequence/restaurant_scheme/restaurant_scheme_2.png"" class=""exp-image"">
                    <div class=""question-area""></div> 
                </div>","null","","","","","","","","","","","",""
"","","","","","html-button-response","62","267357","0.0-62.0","5EBF332C075D45F79B182475C7704A38","019d0643-c7d1-7164-a7ee-5324a4b0c922","019d0640-0a2d-7740-a972-9c73365b2dcb","","1145","
                <div class=""stimulus-container"">
                    <img src=""images/schematic_sequence/restaurant_scheme/restaurant_scheme_2.png"" class=""exp-image"">
                    <div class=""question-area"">
                        <p style=""font-size: 20px; font-weight: bold; margin: 0;"">Is there a person in this image?</p>
                    </div>
                </div>","1","main_experiment_trial","2","restaurant_scheme","schematic_sequence","chronological","","","","","","",""
"","","","","","html-keyboard-response","63","272361","0.0-63.0","5EBF332C075D45F79B182475C7704A38","019d0643-c7d1-7164-a7ee-5324a4b0c922","019d0640-0a2d-7740-a972-9c73365b2dcb","","null","
                <div class=""stimulus-container"">
                    <img src=""images/schematic_sequence/restaurant_scheme/restaurant_scheme_3.png"" class=""exp-image"">
                    <div class=""question-area""></div> 
                </div>","null","","","","","","","","","","","",""
"","","","","","html-button-response","64","273990","0.0-64.0","5EBF332C075D45F79B182475C7704A38","019d0643-c7d1-7164-a7ee-5324a4b0c922","019d0640-0a2d-7740-a972-9c73365b2dcb","","1628","
                <div class=""stimulus-container"">
                    <img src=""images/schematic_sequence/restaurant_scheme/restaurant_scheme_3.png"" class=""exp-image"">
                    <div class=""question-area"">
                        <p style=""font-size: 20px; font-weight: bold; margin: 0;"">Is there a person in this image?</p>
                    </div>
                </div>","1","main_experiment_trial","3","restaurant_scheme","schematic_sequence","chronological","","","","","","",""
"","","","","","html-keyboard-response","65","278992","0.0-65.0","5EBF332C075D45F79B182475C7704A38","019d0643-c7d1-7164-a7ee-5324a4b0c922","019d0640-0a2d-7740-a972-9c73365b2dcb","","null","
                <div class=""stimulus-container"">
                    <img src=""images/schematic_sequence/restaurant_scheme/restaurant_scheme_4.png"" class=""exp-image"">
                    <div class=""question-area""></div> 
                </div>","null","","","","","","","","","","","",""
"","","","","","html-button-response","66","279940","0.0-66.0","5EBF332C075D45F79B182475C7704A38","019d0643-c7d1-7164-a7ee-5324a4b0c922","019d0640-0a2d-7740-a972-9c73365b2dcb","","946","
                <div class=""stimulus-container"">
                    <img src=""images/schematic_sequence/restaurant_scheme/restaurant_scheme_4.png"" class=""exp-image"">
                    <div class=""question-area"">
                        <p style=""font-size: 20px; font-weight: bold; margin: 0;"">Is there a person in this image?</p>
                    </div>
                </div>","0","main_experiment_trial","4","restaurant_scheme","schematic_sequence","chronological","","","","","","",""
"","","","","","html-keyboard-response","67","284941","0.0-67.0","5EBF332C075D45F79B182475C7704A38","019d0643-c7d1-7164-a7ee-5324a4b0c922","019d0640-0a2d-7740-a972-9c73365b2dcb","","null","
                <div class=""stimulus-container"">
                    <img src=""images/schematic_sequence/restaurant_scheme/restaurant_scheme_5.png"" class=""exp-image"">
                    <div class=""question-area""></div> 
                </div>","null","","","","","","","","","","","",""
"","","","","","html-button-response","68","286957","0.0-68.0","5EBF332C075D45F79B182475C7704A38","019d0643-c7d1-7164-a7ee-5324a4b0c922","019d0640-0a2d-7740-a972-9c73365b2dcb","","2014","
                <div class=""stimulus-container"">
                    <img src=""images/schematic_sequence/restaurant_scheme/restaurant_scheme_5.png"" class=""exp-image"">
                    <div class=""question-area"">
                        <p style=""font-size: 20px; font-weight: bold; margin: 0;"">Is there a person in this image?</p>
                    </div>
                </div>","0","main_experiment_trial","5","restaurant_scheme","schematic_sequence","chronological","","","","","","",""
"","","","","","html-keyboard-response","69","291959","0.0-69.0","5EBF332C075D45F79B182475C7704A38","019d0643-c7d1-7164-a7ee-5324a4b0c922","019d0640-0a2d-7740-a972-9c73365b2dcb","","null","
                <div class=""stimulus-container"">
                    <img src=""images/schematic_sequence/restaurant_scheme/restaurant_scheme_6.png"" class=""exp-image"">
                    <div class=""question-area""></div> 
                </div>","null","","","","","","","","","","","",""
"","","","","","html-button-response","70","292775","0.0-70.0","5EBF332C075D45F79B182475C7704A38","019d0643-c7d1-7164-a7ee-5324a4b0c922","019d0640-0a2d-7740-a972-9c73365b2dcb","","815","
                <div class=""stimulus-container"">
                    <img src=""images/schematic_sequence/restaurant_scheme/restaurant_scheme_6.png"" class=""exp-image"">
                    <div class=""question-area"">
                        <p style=""font-size: 20px; font-weight: bold; margin: 0;"">Is there a person in this image?</p>
                    </div>
                </div>","1","main_experiment_trial","6","restaurant_scheme","schematic_sequence","chronological","","","","","","",""
"","","","","","html-keyboard-response","71","297778","0.0-71.0","5EBF332C075D45F79B182475C7704A38","019d0643-c7d1-7164-a7ee-5324a4b0c922","019d0640-0a2d-7740-a972-9c73365b2dcb","","null","
                <div class=""stimulus-container"">
                    <img src=""images/schematic_sequence/restaurant_scheme/restaurant_scheme_7.png"" class=""exp-image"">
                    <div class=""question-area""></div> 
                </div>","null","","","","","","","","","","","",""
"","","","","","html-button-response","72","298559","0.0-72.0","5EBF332C075D45F79B182475C7704A38","019d0643-c7d1-7164-a7ee-5324a4b0c922","019d0640-0a2d-7740-a972-9c73365b2dcb","","779","
                <div class=""stimulus-container"">
                    <img src=""images/schematic_sequence/restaurant_scheme/restaurant_scheme_7.png"" class=""exp-image"">
                    <div class=""question-area"">
                        <p style=""font-size: 20px; font-weight: bold; margin: 0;"">Is there a person in this image?</p>
                    </div>
                </div>","1","main_experiment_trial","7","restaurant_scheme","schematic_sequence","chronological","","","","","","",""
"","","","","","html-keyboard-response","73","303561","0.0-73.0","5EBF332C075D45F79B182475C7704A38","019d0643-c7d1-7164-a7ee-5324a4b0c922","019d0640-0a2d-7740-a972-9c73365b2dcb","","null","
                <div class=""stimulus-container"">
                    <img src=""images/schematic_sequence/restaurant_scheme/restaurant_scheme_8.png"" class=""exp-image"">
                    <div class=""question-area""></div> 
                </div>","null","","","","","","","","","","","",""
"","","","","","html-button-response","74","304374","0.0-74.0","5EBF332C075D45F79B182475C7704A38","019d0643-c7d1-7164-a7ee-5324a4b0c922","019d0640-0a2d-7740-a972-9c73365b2dcb","","811","
                <div class=""stimulus-container"">
                    <img src=""images/schematic_sequence/restaurant_scheme/restaurant_scheme_8.png"" class=""exp-image"">
                    <div class=""question-area"">
                        <p style=""font-size: 20px; font-weight: bold; margin: 0;"">Is there a person in this image?</p>
                    </div>
                </div>","1","main_experiment_trial","8","restaurant_scheme","schematic_sequence","chronological","","","","","","",""
"","","","","","html-keyboard-response","75","309376","0.0-75.0","5EBF332C075D45F79B182475C7704A38","019d0643-c7d1-7164-a7ee-5324a4b0c922","019d0640-0a2d-7740-a972-9c73365b2dcb","","null","
                <div class=""stimulus-container"">
                    <img src=""images/schematic_sequence/restaurant_scheme/restaurant_scheme_9.png"" class=""exp-image"">
                    <div class=""question-area""></div> 
                </div>","null","","","","","","","","","","","",""
"","","","","","html-button-response","76","310060","0.0-76.0","5EBF332C075D45F79B182475C7704A38","019d0643-c7d1-7164-a7ee-5324a4b0c922","019d0640-0a2d-7740-a972-9c73365b2dcb","","681","
                <div class=""stimulus-container"">
                    <img src=""images/schematic_sequence/restaurant_scheme/restaurant_scheme_9.png"" class=""exp-image"">
                    <div class=""question-area"">
                        <p style=""font-size: 20px; font-weight: bold; margin: 0;"">Is there a person in this image?</p>
                    </div>
                </div>","0","main_experiment_trial","9","restaurant_scheme","schematic_sequence","chronological","","","","","","",""
"","","","","","html-keyboard-response","77","315063","0.0-77.0","5EBF332C075D45F79B182475C7704A38","019d0643-c7d1-7164-a7ee-5324a4b0c922","019d0640-0a2d-7740-a972-9c73365b2dcb","","null","
                <div class=""stimulus-container"">
                    <img src=""images/schematic_sequence/restaurant_scheme/restaurant_scheme_ten.png"" class=""exp-image"">
                    <div class=""question-area""></div> 
                </div>","null","","","","","","","","","","","",""
"","","","","","html-button-response","78","316040","0.0-78.0","5EBF332C075D45F79B182475C7704A38","019d0643-c7d1-7164-a7ee-5324a4b0c922","019d0640-0a2d-7740-a972-9c73365b2dcb","","976","
                <div class=""stimulus-container"">
                    <img src=""images/schematic_sequence/restaurant_scheme/restaurant_scheme_ten.png"" class=""exp-image"">
                    <div class=""question-area"">
                        <p style=""font-size: 20px; font-weight: bold; margin: 0;"">Is there a person in this image?</p>
                    </div>
                </div>","0","main_experiment_trial","ten","restaurant_scheme","schematic_sequence","chronological","","","","","","",""
"","","","","","html-keyboard-response","79","321043","0.0-79.0","5EBF332C075D45F79B182475C7704A38","019d0643-c7d1-7164-a7ee-5324a4b0c922","019d0640-0a2d-7740-a972-9c73365b2dcb","","null","<div style=""background-color: white; width: 100vw; height: 100vh;""></div>","null","","","","","","","","","","","",""
"","","","","","html-keyboard-response","80","326048","0.0-80.0","5EBF332C075D45F79B182475C7704A38","019d0643-c7d1-7164-a7ee-5324a4b0c922","019d0640-0a2d-7740-a972-9c73365b2dcb","","null","
                <div class=""stimulus-container"">
                    <img src=""images/semantic_sequence/self_care_activities_semantic/self_care_activities_semantic_1.png"" class=""exp-image"">
                    <div class=""question-area""></div> 
                </div>","null","","","","","","","","","","","",""
"","","","","","html-button-response","81","327374","0.0-81.0","5EBF332C075D45F79B182475C7704A38","019d0643-c7d1-7164-a7ee-5324a4b0c922","019d0640-0a2d-7740-a972-9c73365b2dcb","","1324","
                <div class=""stimulus-container"">
                    <img src=""images/semantic_sequence/self_care_activities_semantic/self_care_activities_semantic_1.png"" class=""exp-image"">
                    <div class=""question-area"">
                        <p style=""font-size: 20px; font-weight: bold; margin: 0;"">Is there a person in this image?</p>
                    </div>
                </div>","0","main_experiment_trial","1","self_care_activities_semantic","semantic_sequence","chronological","","","","","","",""
"","","","","","html-keyboard-response","82","332375","0.0-82.0","5EBF332C075D45F79B182475C7704A38","019d0643-c7d1-7164-a7ee-5324a4b0c922","019d0640-0a2d-7740-a972-9c73365b2dcb","","null","
                <div class=""stimulus-container"">
                    <img src=""images/semantic_sequence/self_care_activities_semantic/self_care_activities_semantic_2.png"" class=""exp-image"">
                    <div class=""question-area""></div> 
                </div>","null","","","","","","","","","","","",""
"","","","","","html-button-response","83","332924","0.0-83.0","5EBF332C075D45F79B182475C7704A38","019d0643-c7d1-7164-a7ee-5324a4b0c922","019d0640-0a2d-7740-a972-9c73365b2dcb","","547","
                <div class=""stimulus-container"">
                    <img src=""images/semantic_sequence/self_care_activities_semantic/self_care_activities_semantic_2.png"" class=""exp-image"">
                    <div class=""question-area"">
                        <p style=""font-size: 20px; font-weight: bold; margin: 0;"">Is there a person in this image?</p>
                    </div>
                </div>","0","main_experiment_trial","2","self_care_activities_semantic","semantic_sequence","chronological","","","","","","",""
"","","","","","html-keyboard-response","84","337927","0.0-84.0","5EBF332C075D45F79B182475C7704A38","019d0643-c7d1-7164-a7ee-5324a4b0c922","019d0640-0a2d-7740-a972-9c73365b2dcb","","null","
                <div class=""stimulus-container"">
                    <img src=""images/semantic_sequence/self_care_activities_semantic/self_care_activities_semantic_3.png"" class=""exp-image"">
                    <div class=""question-area""></div> 
                </div>","null","","","","","","","","","","","",""
"","","","","","html-button-response","85","338841","0.0-85.0","5EBF332C075D45F79B182475C7704A38","019d0643-c7d1-7164-a7ee-5324a4b0c922","019d0640-0a2d-7740-a972-9c73365b2dcb","","912","
                <div class=""stimulus-container"">
                    <img src=""images/semantic_sequence/self_care_activities_semantic/self_care_activities_semantic_3.png"" class=""exp-image"">
                    <div class=""question-area"">
                        <p style=""font-size: 20px; font-weight: bold; margin: 0;"">Is there a person in this image?</p>
                    </div>
                </div>","0","main_experiment_trial","3","self_care_activities_semantic","semantic_sequence","chronological","","","","","","",""
"","","","","","html-keyboard-response","86","343844","0.0-86.0","5EBF332C075D45F79B182475C7704A38","019d0643-c7d1-7164-a7ee-5324a4b0c922","019d0640-0a2d-7740-a972-9c73365b2dcb","","null","
                <div class=""stimulus-container"">
                    <img src=""images/semantic_sequence/self_care_activities_semantic/self_care_activities_semantic_4.png"" class=""exp-image"">
                    <div class=""question-area""></div> 
                </div>","null","","","","","","","","","","","",""
"","","","","","html-button-response","87","345025","0.0-87.0","5EBF332C075D45F79B182475C7704A38","019d0643-c7d1-7164-a7ee-5324a4b0c922","019d0640-0a2d-7740-a972-9c73365b2dcb","","1179","
                <div class=""stimulus-container"">
                    <img src=""images/semantic_sequence/self_care_activities_semantic/self_care_activities_semantic_4.png"" class=""exp-image"">
                    <div class=""question-area"">
                        <p style=""font-size: 20px; font-weight: bold; margin: 0;"">Is there a person in this image?</p>
                    </div>
                </div>","0","main_experiment_trial","4","self_care_activities_semantic","semantic_sequence","chronological","","","","","","",""
"","","","","","html-keyboard-response","88","350027","0.0-88.0","5EBF332C075D45F79B182475C7704A38","019d0643-c7d1-7164-a7ee-5324a4b0c922","019d0640-0a2d-7740-a972-9c73365b2dcb","","null","
                <div class=""stimulus-container"">
                    <img src=""images/semantic_sequence/self_care_activities_semantic/self_care_activities_semantic_5.png"" class=""exp-image"">
                    <div class=""question-area""></div> 
                </div>","null","","","","","","","","","","","",""
"","","","","","html-button-response","89","351040","0.0-89.0","5EBF332C075D45F79B182475C7704A38","019d0643-c7d1-7164-a7ee-5324a4b0c922","019d0640-0a2d-7740-a972-9c73365b2dcb","","1012","
                <div class=""stimulus-container"">
                    <img src=""images/semantic_sequence/self_care_activities_semantic/self_care_activities_semantic_5.png"" class=""exp-image"">
                    <div class=""question-area"">
                        <p style=""font-size: 20px; font-weight: bold; margin: 0;"">Is there a person in this image?</p>
                    </div>
                </div>","0","main_experiment_trial","5","self_care_activities_semantic","semantic_sequence","chronological","","","","","","",""
"","","","","","html-keyboard-response","90","356043","0.0-90.0","5EBF332C075D45F79B182475C7704A38","019d0643-c7d1-7164-a7ee-5324a4b0c922","019d0640-0a2d-7740-a972-9c73365b2dcb","","null","
                <div class=""stimulus-container"">
                    <img src=""images/semantic_sequence/self_care_activities_semantic/self_care_activities_semantic_6.png"" class=""exp-image"">
                    <div class=""question-area""></div> 
                </div>","null","","","","","","","","","","","",""
"","","","","","html-button-response","91","356858","0.0-91.0","5EBF332C075D45F79B182475C7704A38","019d0643-c7d1-7164-a7ee-5324a4b0c922","019d0640-0a2d-7740-a972-9c73365b2dcb","","813","
                <div class=""stimulus-container"">
                    <img src=""images/semantic_sequence/self_care_activities_semantic/self_care_activities_semantic_6.png"" class=""exp-image"">
                    <div class=""question-area"">
                        <p style=""font-size: 20px; font-weight: bold; margin: 0;"">Is there a person in this image?</p>
                    </div>
                </div>","1","main_experiment_trial","6","self_care_activities_semantic","semantic_sequence","chronological","","","","","","",""
"","","","","","html-keyboard-response","92","361860","0.0-92.0","5EBF332C075D45F79B182475C7704A38","019d0643-c7d1-7164-a7ee-5324a4b0c922","019d0640-0a2d-7740-a972-9c73365b2dcb","","null","
                <div class=""stimulus-container"">
                    <img src=""images/semantic_sequence/self_care_activities_semantic/self_care_activities_semantic_7.png"" class=""exp-image"">
                    <div class=""question-area""></div> 
                </div>","null","","","","","","","","","","","",""
"","","","","","html-button-response","93","363591","0.0-93.0","5EBF332C075D45F79B182475C7704A38","019d0643-c7d1-7164-a7ee-5324a4b0c922","019d0640-0a2d-7740-a972-9c73365b2dcb","","1729","
                <div class=""stimulus-container"">
                    <img src=""images/semantic_sequence/self_care_activities_semantic/self_care_activities_semantic_7.png"" class=""exp-image"">
                    <div class=""question-area"">
                        <p style=""font-size: 20px; font-weight: bold; margin: 0;"">Is there a person in this image?</p>
                    </div>
                </div>","0","main_experiment_trial","7","self_care_activities_semantic","semantic_sequence","chronological","","","","","","",""
"","","","","","html-keyboard-response","94","368593","0.0-94.0","5EBF332C075D45F79B182475C7704A38","019d0643-c7d1-7164-a7ee-5324a4b0c922","019d0640-0a2d-7740-a972-9c73365b2dcb","","null","
                <div class=""stimulus-container"">
                    <img src=""images/semantic_sequence/self_care_activities_semantic/self_care_activities_semantic_8.png"" class=""exp-image"">
                    <div class=""question-area""></div> 
                </div>","null","","","","","","","","","","","",""
"","","","","","html-button-response","95","370157","0.0-95.0","5EBF332C075D45F79B182475C7704A38","019d0643-c7d1-7164-a7ee-5324a4b0c922","019d0640-0a2d-7740-a972-9c73365b2dcb","","1563","
                <div class=""stimulus-container"">
                    <img src=""images/semantic_sequence/self_care_activities_semantic/self_care_activities_semantic_8.png"" class=""exp-image"">
                    <div class=""question-area"">
                        <p style=""font-size: 20px; font-weight: bold; margin: 0;"">Is there a person in this image?</p>
                    </div>
                </div>","0","main_experiment_trial","8","self_care_activities_semantic","semantic_sequence","chronological","","","","","","",""
"","","","","","html-keyboard-response","96","375161","0.0-96.0","5EBF332C075D45F79B182475C7704A38","019d0643-c7d1-7164-a7ee-5324a4b0c922","019d0640-0a2d-7740-a972-9c73365b2dcb","","null","
                <div class=""stimulus-container"">
                    <img src=""images/semantic_sequence/self_care_activities_semantic/self_care_activities_semantic_9.png"" class=""exp-image"">
                    <div class=""question-area""></div> 
                </div>","null","","","","","","","","","","","",""
"","","","","","html-button-response","97","376808","0.0-97.0","5EBF332C075D45F79B182475C7704A38","019d0643-c7d1-7164-a7ee-5324a4b0c922","019d0640-0a2d-7740-a972-9c73365b2dcb","","1646","
                <div class=""stimulus-container"">
                    <img src=""images/semantic_sequence/self_care_activities_semantic/self_care_activities_semantic_9.png"" class=""exp-image"">
                    <div class=""question-area"">
                        <p style=""font-size: 20px; font-weight: bold; margin: 0;"">Is there a person in this image?</p>
                    </div>
                </div>","0","main_experiment_trial","9","self_care_activities_semantic","semantic_sequence","chronological","","","","","","",""
"","","","","","html-keyboard-response","98","381811","0.0-98.0","5EBF332C075D45F79B182475C7704A38","019d0643-c7d1-7164-a7ee-5324a4b0c922","019d0640-0a2d-7740-a972-9c73365b2dcb","","null","
                <div class=""stimulus-container"">
                    <img src=""images/semantic_sequence/self_care_activities_semantic/self_care_activities_semantic_ten.png"" class=""exp-image"">
                    <div class=""question-area""></div> 
                </div>","null","","","","","","","","","","","",""
"","","","","","html-button-response","99","382809","0.0-99.0","5EBF332C075D45F79B182475C7704A38","019d0643-c7d1-7164-a7ee-5324a4b0c922","019d0640-0a2d-7740-a972-9c73365b2dcb","","996","
                <div class=""stimulus-container"">
                    <img src=""images/semantic_sequence/self_care_activities_semantic/self_care_activities_semantic_ten.png"" class=""exp-image"">
                    <div class=""question-area"">
                        <p style=""font-size: 20px; font-weight: bold; margin: 0;"">Is there a person in this image?</p>
                    </div>
                </div>","0","main_experiment_trial","ten","self_care_activities_semantic","semantic_sequence","chronological","","","","","","",""
"","","","","","html-keyboard-response","100","387810","0.0-100.0","5EBF332C075D45F79B182475C7704A38","019d0643-c7d1-7164-a7ee-5324a4b0c922","019d0640-0a2d-7740-a972-9c73365b2dcb","","null","<div style=""background-color: white; width: 100vw; height: 100vh;""></div>","null","","","","","","","","","","","",""
"","","","","","html-keyboard-response","101","392812","0.0-101.0","5EBF332C075D45F79B182475C7704A38","019d0643-c7d1-7164-a7ee-5324a4b0c922","019d0640-0a2d-7740-a972-9c73365b2dcb","","null","
                <div class=""stimulus-container"">
                    <img src=""images/causal_sequence/the_performance_causal/the_performance_causal_1.png"" class=""exp-image"">
                    <div class=""question-area""></div> 
                </div>","null","","","","","","","","","","","",""
"","","","","","html-button-response","102","395815","0.0-102.0","5EBF332C075D45F79B182475C7704A38","019d0643-c7d1-7164-a7ee-5324a4b0c922","019d0640-0a2d-7740-a972-9c73365b2dcb","","null","
                <div class=""stimulus-container"">
                    <img src=""images/causal_sequence/the_performance_causal/the_performance_causal_1.png"" class=""exp-image"">
                    <div class=""question-area"">
                        <p style=""font-size: 20px; font-weight: bold; margin: 0;"">Is there a person in this image?</p>
                    </div>
                </div>","null","main_experiment_trial","1","the_performance_causal","causal_sequence","chronological","","","","","","",""
"","","","","","html-keyboard-response","103","400818","0.0-103.0","5EBF332C075D45F79B182475C7704A38","019d0643-c7d1-7164-a7ee-5324a4b0c922","019d0640-0a2d-7740-a972-9c73365b2dcb","","null","
                <div class=""stimulus-container"">
                    <img src=""images/causal_sequence/the_performance_causal/the_performance_causal_2.png"" class=""exp-image"">
                    <div class=""question-area""></div> 
                </div>","null","","","","","","","","","","","",""
"","","","","","html-button-response","104","402741","0.0-104.0","5EBF332C075D45F79B182475C7704A38","019d0643-c7d1-7164-a7ee-5324a4b0c922","019d0640-0a2d-7740-a972-9c73365b2dcb","","1922","
                <div class=""stimulus-container"">
                    <img src=""images/causal_sequence/the_performance_causal/the_performance_causal_2.png"" class=""exp-image"">
                    <div class=""question-area"">
                        <p style=""font-size: 20px; font-weight: bold; margin: 0;"">Is there a person in this image?</p>
                    </div>
                </div>","0","main_experiment_trial","2","the_performance_causal","causal_sequence","chronological","","","","","","",""
"","","","","","html-keyboard-response","105","407742","0.0-105.0","5EBF332C075D45F79B182475C7704A38","019d0643-c7d1-7164-a7ee-5324a4b0c922","019d0640-0a2d-7740-a972-9c73365b2dcb","","null","
                <div class=""stimulus-container"">
                    <img src=""images/causal_sequence/the_performance_causal/the_performance_causal_3.png"" class=""exp-image"">
                    <div class=""question-area""></div> 
                </div>","null","","","","","","","","","","","",""
"","","","","","html-button-response","106","408957","0.0-106.0","5EBF332C075D45F79B182475C7704A38","019d0643-c7d1-7164-a7ee-5324a4b0c922","019d0640-0a2d-7740-a972-9c73365b2dcb","","1213","
                <div class=""stimulus-container"">
                    <img src=""images/causal_sequence/the_performance_causal/the_performance_causal_3.png"" class=""exp-image"">
                    <div class=""question-area"">
                        <p style=""font-size: 20px; font-weight: bold; margin: 0;"">Is there a person in this image?</p>
                    </div>
                </div>","0","main_experiment_trial","3","the_performance_causal","causal_sequence","chronological","","","","","","",""
"","","","","","html-keyboard-response","107","413959","0.0-107.0","5EBF332C075D45F79B182475C7704A38","019d0643-c7d1-7164-a7ee-5324a4b0c922","019d0640-0a2d-7740-a972-9c73365b2dcb","","null","
                <div class=""stimulus-container"">
                    <img src=""images/causal_sequence/the_performance_causal/the_performance_causal_4.png"" class=""exp-image"">
                    <div class=""question-area""></div> 
                </div>","null","","","","","","","","","","","",""
"","","","","","html-button-response","108","414624","0.0-108.0","5EBF332C075D45F79B182475C7704A38","019d0643-c7d1-7164-a7ee-5324a4b0c922","019d0640-0a2d-7740-a972-9c73365b2dcb","","664","
                <div class=""stimulus-container"">
                    <img src=""images/causal_sequence/the_performance_causal/the_performance_causal_4.png"" class=""exp-image"">
                    <div class=""question-area"">
                        <p style=""font-size: 20px; font-weight: bold; margin: 0;"">Is there a person in this image?</p>
                    </div>
                </div>","0","main_experiment_trial","4","the_performance_causal","causal_sequence","chronological","","","","","","",""
"","","","","","html-keyboard-response","109","419626","0.0-109.0","5EBF332C075D45F79B182475C7704A38","019d0643-c7d1-7164-a7ee-5324a4b0c922","019d0640-0a2d-7740-a972-9c73365b2dcb","","null","
                <div class=""stimulus-container"">
                    <img src=""images/causal_sequence/the_performance_causal/the_performance_causal_5.png"" class=""exp-image"">
                    <div class=""question-area""></div> 
                </div>","null","","","","","","","","","","","",""
"","","","","","html-button-response","110","420641","0.0-110.0","5EBF332C075D45F79B182475C7704A38","019d0643-c7d1-7164-a7ee-5324a4b0c922","019d0640-0a2d-7740-a972-9c73365b2dcb","","1013","
                <div class=""stimulus-container"">
                    <img src=""images/causal_sequence/the_performance_causal/the_performance_causal_5.png"" class=""exp-image"">
                    <div class=""question-area"">
                        <p style=""font-size: 20px; font-weight: bold; margin: 0;"">Is there a person in this image?</p>
                    </div>
                </div>","0","main_experiment_trial","5","the_performance_causal","causal_sequence","chronological","","","","","","",""
"","","","","","html-keyboard-response","111","425644","0.0-111.0","5EBF332C075D45F79B182475C7704A38","019d0643-c7d1-7164-a7ee-5324a4b0c922","019d0640-0a2d-7740-a972-9c73365b2dcb","","null","
                <div class=""stimulus-container"">
                    <img src=""images/causal_sequence/the_performance_causal/the_performance_causal_6.png"" class=""exp-image"">
                    <div class=""question-area""></div> 
                </div>","null","","","","","","","","","","","",""
"","","","","","html-button-response","112","427841","0.0-112.0","5EBF332C075D45F79B182475C7704A38","019d0643-c7d1-7164-a7ee-5324a4b0c922","019d0640-0a2d-7740-a972-9c73365b2dcb","","2196","
                <div class=""stimulus-container"">
                    <img src=""images/causal_sequence/the_performance_causal/the_performance_causal_6.png"" class=""exp-image"">
                    <div class=""question-area"">
                        <p style=""font-size: 20px; font-weight: bold; margin: 0;"">Is there a person in this image?</p>
                    </div>
                </div>","0","main_experiment_trial","6","the_performance_causal","causal_sequence","chronological","","","","","","",""
"","","","","","html-keyboard-response","113","432842","0.0-113.0","5EBF332C075D45F79B182475C7704A38","019d0643-c7d1-7164-a7ee-5324a4b0c922","019d0640-0a2d-7740-a972-9c73365b2dcb","","null","
                <div class=""stimulus-container"">
                    <img src=""images/causal_sequence/the_performance_causal/the_performance_causal_7.png"" class=""exp-image"">
                    <div class=""question-area""></div> 
                </div>","null","","","","","","","","","","","",""
"","","","","","html-button-response","114","433575","0.0-114.0","5EBF332C075D45F79B182475C7704A38","019d0643-c7d1-7164-a7ee-5324a4b0c922","019d0640-0a2d-7740-a972-9c73365b2dcb","","731","
                <div class=""stimulus-container"">
                    <img src=""images/causal_sequence/the_performance_causal/the_performance_causal_7.png"" class=""exp-image"">
                    <div class=""question-area"">
                        <p style=""font-size: 20px; font-weight: bold; margin: 0;"">Is there a person in this image?</p>
                    </div>
                </div>","0","main_experiment_trial","7","the_performance_causal","causal_sequence","chronological","","","","","","",""
"","","","","","html-keyboard-response","115","438577","0.0-115.0","5EBF332C075D45F79B182475C7704A38","019d0643-c7d1-7164-a7ee-5324a4b0c922","019d0640-0a2d-7740-a972-9c73365b2dcb","","null","
                <div class=""stimulus-container"">
                    <img src=""images/causal_sequence/the_performance_causal/the_performance_causal_8.png"" class=""exp-image"">
                    <div class=""question-area""></div> 
                </div>","null","","","","","","","","","","","",""
"","","","","","html-button-response","116","441575","0.0-116.0","5EBF332C075D45F79B182475C7704A38","019d0643-c7d1-7164-a7ee-5324a4b0c922","019d0640-0a2d-7740-a972-9c73365b2dcb","","2996","
                <div class=""stimulus-container"">
                    <img src=""images/causal_sequence/the_performance_causal/the_performance_causal_8.png"" class=""exp-image"">
                    <div class=""question-area"">
                        <p style=""font-size: 20px; font-weight: bold; margin: 0;"">Is there a person in this image?</p>
                    </div>
                </div>","0","main_experiment_trial","8","the_performance_causal","causal_sequence","chronological","","","","","","",""
"","","","","","html-keyboard-response","117","446576","0.0-117.0","5EBF332C075D45F79B182475C7704A38","019d0643-c7d1-7164-a7ee-5324a4b0c922","019d0640-0a2d-7740-a972-9c73365b2dcb","","null","
                <div class=""stimulus-container"">
                    <img src=""images/causal_sequence/the_performance_causal/the_performance_causal_9.png"" class=""exp-image"">
                    <div class=""question-area""></div> 
                </div>","null","","","","","","","","","","","",""
"","","","","","html-button-response","118","447842","0.0-118.0","5EBF332C075D45F79B182475C7704A38","019d0643-c7d1-7164-a7ee-5324a4b0c922","019d0640-0a2d-7740-a972-9c73365b2dcb","","1264","
                <div class=""stimulus-container"">
                    <img src=""images/causal_sequence/the_performance_causal/the_performance_causal_9.png"" class=""exp-image"">
                    <div class=""question-area"">
                        <p style=""font-size: 20px; font-weight: bold; margin: 0;"">Is there a person in this image?</p>
                    </div>
                </div>","0","main_experiment_trial","9","the_performance_causal","causal_sequence","chronological","","","","","","",""
"","","","","","html-keyboard-response","119","452844","0.0-119.0","5EBF332C075D45F79B182475C7704A38","019d0643-c7d1-7164-a7ee-5324a4b0c922","019d0640-0a2d-7740-a972-9c73365b2dcb","","null","
                <div class=""stimulus-container"">
                    <img src=""images/causal_sequence/the_performance_causal/the_performance_causal_ten.png"" class=""exp-image"">
                    <div class=""question-area""></div> 
                </div>","null","","","","","","","","","","","",""
"","","","","","html-button-response","120","454208","0.0-120.0","5EBF332C075D45F79B182475C7704A38","019d0643-c7d1-7164-a7ee-5324a4b0c922","019d0640-0a2d-7740-a972-9c73365b2dcb","","1363","
                <div class=""stimulus-container"">
                    <img src=""images/causal_sequence/the_performance_causal/the_performance_causal_ten.png"" class=""exp-image"">
                    <div class=""question-area"">
                        <p style=""font-size: 20px; font-weight: bold; margin: 0;"">Is there a person in this image?</p>
                    </div>
                </div>","0","main_experiment_trial","ten","the_performance_causal","causal_sequence","chronological","","","","","","",""
"","","","","","html-keyboard-response","121","459211","0.0-121.0","5EBF332C075D45F79B182475C7704A38","019d0643-c7d1-7164-a7ee-5324a4b0c922","019d0640-0a2d-7740-a972-9c73365b2dcb","","null","<div style=""background-color: white; width: 100vw; height: 100vh;""></div>","null","","","","","","","","","","","",""
"","","","","","html-keyboard-response","122","464214","0.0-122.0","5EBF332C075D45F79B182475C7704A38","019d0643-c7d1-7164-a7ee-5324a4b0c922","019d0640-0a2d-7740-a972-9c73365b2dcb","","null","
                <div class=""stimulus-container"">
                    <img src=""images/causal_sequence/museum_causal/museum_causal_1.png"" class=""exp-image"">
                    <div class=""question-area""></div> 
                </div>","null","","","","","","","","","","","",""
"","","","","","html-button-response","123","466892","0.0-123.0","5EBF332C075D45F79B182475C7704A38","019d0643-c7d1-7164-a7ee-5324a4b0c922","019d0640-0a2d-7740-a972-9c73365b2dcb","","2676","
                <div class=""stimulus-container"">
                    <img src=""images/causal_sequence/museum_causal/museum_causal_1.png"" class=""exp-image"">
                    <div class=""question-area"">
                        <p style=""font-size: 20px; font-weight: bold; margin: 0;"">Is there a person in this image?</p>
                    </div>
                </div>","0","main_experiment_trial","1","museum_causal","causal_sequence","chronological","","","","","","",""
"","","","","","html-keyboard-response","124","471895","0.0-124.0","5EBF332C075D45F79B182475C7704A38","019d0643-c7d1-7164-a7ee-5324a4b0c922","019d0640-0a2d-7740-a972-9c73365b2dcb","","null","
                <div class=""stimulus-container"">
                    <img src=""images/causal_sequence/museum_causal/museum_causal_2.png"" class=""exp-image"">
                    <div class=""question-area""></div> 
                </div>","null","","","","","","","","","","","",""
"","","","","","html-button-response","125","474898","0.0-125.0","5EBF332C075D45F79B182475C7704A38","019d0643-c7d1-7164-a7ee-5324a4b0c922","019d0640-0a2d-7740-a972-9c73365b2dcb","","null","
                <div class=""stimulus-container"">
                    <img src=""images/causal_sequence/museum_causal/museum_causal_2.png"" class=""exp-image"">
                    <div class=""question-area"">
                        <p style=""font-size: 20px; font-weight: bold; margin: 0;"">Is there a person in this image?</p>
                    </div>
                </div>","null","main_experiment_trial","2","museum_causal","causal_sequence","chronological","","","","","","",""
"","","","","","html-keyboard-response","126","479900","0.0-126.0","5EBF332C075D45F79B182475C7704A38","019d0643-c7d1-7164-a7ee-5324a4b0c922","019d0640-0a2d-7740-a972-9c73365b2dcb","","null","
                <div class=""stimulus-container"">
                    <img src=""images/causal_sequence/museum_causal/museum_causal_3.png"" class=""exp-image"">
                    <div class=""question-area""></div> 
                </div>","null","","","","","","","","","","","",""
"","","","","","html-button-response","127","481108","0.0-127.0","5EBF332C075D45F79B182475C7704A38","019d0643-c7d1-7164-a7ee-5324a4b0c922","019d0640-0a2d-7740-a972-9c73365b2dcb","","1207","
                <div class=""stimulus-container"">
                    <img src=""images/causal_sequence/museum_causal/museum_causal_3.png"" class=""exp-image"">
                    <div class=""question-area"">
                        <p style=""font-size: 20px; font-weight: bold; margin: 0;"">Is there a person in this image?</p>
                    </div>
                </div>","1","main_experiment_trial","3","museum_causal","causal_sequence","chronological","","","","","","",""
"","","","","","html-keyboard-response","128","486111","0.0-128.0","5EBF332C075D45F79B182475C7704A38","019d0643-c7d1-7164-a7ee-5324a4b0c922","019d0640-0a2d-7740-a972-9c73365b2dcb","","null","
                <div class=""stimulus-container"">
                    <img src=""images/causal_sequence/museum_causal/museum_causal_4.png"" class=""exp-image"">
                    <div class=""question-area""></div> 
                </div>","null","","","","","","","","","","","",""
"","","","","","html-button-response","129","486927","0.0-129.0","5EBF332C075D45F79B182475C7704A38","019d0643-c7d1-7164-a7ee-5324a4b0c922","019d0640-0a2d-7740-a972-9c73365b2dcb","","814","
                <div class=""stimulus-container"">
                    <img src=""images/causal_sequence/museum_causal/museum_causal_4.png"" class=""exp-image"">
                    <div class=""question-area"">
                        <p style=""font-size: 20px; font-weight: bold; margin: 0;"">Is there a person in this image?</p>
                    </div>
                </div>","1","main_experiment_trial","4","museum_causal","causal_sequence","chronological","","","","","","",""
"","","","","","html-keyboard-response","130","491929","0.0-130.0","5EBF332C075D45F79B182475C7704A38","019d0643-c7d1-7164-a7ee-5324a4b0c922","019d0640-0a2d-7740-a972-9c73365b2dcb","","null","
                <div class=""stimulus-container"">
                    <img src=""images/causal_sequence/museum_causal/museum_causal_5.png"" class=""exp-image"">
                    <div class=""question-area""></div> 
                </div>","null","","","","","","","","","","","",""
"","","","","","html-button-response","131","492492","0.0-131.0","5EBF332C075D45F79B182475C7704A38","019d0643-c7d1-7164-a7ee-5324a4b0c922","019d0640-0a2d-7740-a972-9c73365b2dcb","","561","
                <div class=""stimulus-container"">
                    <img src=""images/causal_sequence/museum_causal/museum_causal_5.png"" class=""exp-image"">
                    <div class=""question-area"">
                        <p style=""font-size: 20px; font-weight: bold; margin: 0;"">Is there a person in this image?</p>
                    </div>
                </div>","0","main_experiment_trial","5","museum_causal","causal_sequence","chronological","","","","","","",""
"","","","","","html-keyboard-response","132","497494","0.0-132.0","5EBF332C075D45F79B182475C7704A38","019d0643-c7d1-7164-a7ee-5324a4b0c922","019d0640-0a2d-7740-a972-9c73365b2dcb","","null","
                <div class=""stimulus-container"">
                    <img src=""images/causal_sequence/museum_causal/museum_causal_6.png"" class=""exp-image"">
                    <div class=""question-area""></div> 
                </div>","null","","","","","","","","","","","",""
"","","","","","html-button-response","133","498142","0.0-133.0","5EBF332C075D45F79B182475C7704A38","019d0643-c7d1-7164-a7ee-5324a4b0c922","019d0640-0a2d-7740-a972-9c73365b2dcb","","646","
                <div class=""stimulus-container"">
                    <img src=""images/causal_sequence/museum_causal/museum_causal_6.png"" class=""exp-image"">
                    <div class=""question-area"">
                        <p style=""font-size: 20px; font-weight: bold; margin: 0;"">Is there a person in this image?</p>
                    </div>
                </div>","0","main_experiment_trial","6","museum_causal","causal_sequence","chronological","","","","","","",""
"","","","","","html-keyboard-response","134","503143","0.0-134.0","5EBF332C075D45F79B182475C7704A38","019d0643-c7d1-7164-a7ee-5324a4b0c922","019d0640-0a2d-7740-a972-9c73365b2dcb","","null","
                <div class=""stimulus-container"">
                    <img src=""images/causal_sequence/museum_causal/museum_causal_7.png"" class=""exp-image"">
                    <div class=""question-area""></div> 
                </div>","null","","","","","","","","","","","",""
"","","","","","html-button-response","135","503959","0.0-135.0","5EBF332C075D45F79B182475C7704A38","019d0643-c7d1-7164-a7ee-5324a4b0c922","019d0640-0a2d-7740-a972-9c73365b2dcb","","814","
                <div class=""stimulus-container"">
                    <img src=""images/causal_sequence/museum_causal/museum_causal_7.png"" class=""exp-image"">
                    <div class=""question-area"">
                        <p style=""font-size: 20px; font-weight: bold; margin: 0;"">Is there a person in this image?</p>
                    </div>
                </div>","1","main_experiment_trial","7","museum_causal","causal_sequence","chronological","","","","","","",""
"","","","","","html-keyboard-response","136","508962","0.0-136.0","5EBF332C075D45F79B182475C7704A38","019d0643-c7d1-7164-a7ee-5324a4b0c922","019d0640-0a2d-7740-a972-9c73365b2dcb","","null","
                <div class=""stimulus-container"">
                    <img src=""images/causal_sequence/museum_causal/museum_causal_8.png"" class=""exp-image"">
                    <div class=""question-area""></div> 
                </div>","null","","","","","","","","","","","",""
"","","","","","html-button-response","137","509877","0.0-137.0","5EBF332C075D45F79B182475C7704A38","019d0643-c7d1-7164-a7ee-5324a4b0c922","019d0640-0a2d-7740-a972-9c73365b2dcb","","914","
                <div class=""stimulus-container"">
                    <img src=""images/causal_sequence/museum_causal/museum_causal_8.png"" class=""exp-image"">
                    <div class=""question-area"">
                        <p style=""font-size: 20px; font-weight: bold; margin: 0;"">Is there a person in this image?</p>
                    </div>
                </div>","0","main_experiment_trial","8","museum_causal","causal_sequence","chronological","","","","","","",""
"","","","","","html-keyboard-response","138","514880","0.0-138.0","5EBF332C075D45F79B182475C7704A38","019d0643-c7d1-7164-a7ee-5324a4b0c922","019d0640-0a2d-7740-a972-9c73365b2dcb","","null","
                <div class=""stimulus-container"">
                    <img src=""images/causal_sequence/museum_causal/museum_causal_9.png"" class=""exp-image"">
                    <div class=""question-area""></div> 
                </div>","null","","","","","","","","","","","",""
"","","","","","html-button-response","139","516192","0.0-139.0","5EBF332C075D45F79B182475C7704A38","019d0643-c7d1-7164-a7ee-5324a4b0c922","019d0640-0a2d-7740-a972-9c73365b2dcb","","1311","
                <div class=""stimulus-container"">
                    <img src=""images/causal_sequence/museum_causal/museum_causal_9.png"" class=""exp-image"">
                    <div class=""question-area"">
                        <p style=""font-size: 20px; font-weight: bold; margin: 0;"">Is there a person in this image?</p>
                    </div>
                </div>","1","main_experiment_trial","9","museum_causal","causal_sequence","chronological","","","","","","",""
"","","","","","html-keyboard-response","140","521195","0.0-140.0","5EBF332C075D45F79B182475C7704A38","019d0643-c7d1-7164-a7ee-5324a4b0c922","019d0640-0a2d-7740-a972-9c73365b2dcb","","null","
                <div class=""stimulus-container"">
                    <img src=""images/causal_sequence/museum_causal/museum_causal_ten.png"" class=""exp-image"">
                    <div class=""question-area""></div> 
                </div>","null","","","","","","","","","","","",""
"","","","","","html-button-response","141","521809","0.0-141.0","5EBF332C075D45F79B182475C7704A38","019d0643-c7d1-7164-a7ee-5324a4b0c922","019d0640-0a2d-7740-a972-9c73365b2dcb","","612","
                <div class=""stimulus-container"">
                    <img src=""images/causal_sequence/museum_causal/museum_causal_ten.png"" class=""exp-image"">
                    <div class=""question-area"">
                        <p style=""font-size: 20px; font-weight: bold; margin: 0;"">Is there a person in this image?</p>
                    </div>
                </div>","0","main_experiment_trial","ten","museum_causal","causal_sequence","chronological","","","","","","",""
"","","","","","html-keyboard-response","142","526811","0.0-142.0","5EBF332C075D45F79B182475C7704A38","019d0643-c7d1-7164-a7ee-5324a4b0c922","019d0640-0a2d-7740-a972-9c73365b2dcb","","null","<div style=""background-color: white; width: 100vw; height: 100vh;""></div>","null","","","","","","","","","","","",""
"","","","","","html-keyboard-response","143","531814","0.0-143.0","5EBF332C075D45F79B182475C7704A38","019d0643-c7d1-7164-a7ee-5324a4b0c922","019d0640-0a2d-7740-a972-9c73365b2dcb","","null","
                <div class=""stimulus-container"">
                    <img src=""images/causal_sequence/dog_causal/dog_causal_1.png"" class=""exp-image"">
                    <div class=""question-area""></div> 
                </div>","null","","","","","","","","","","","",""
"","","","","","html-button-response","144","532592","0.0-144.0","5EBF332C075D45F79B182475C7704A38","019d0643-c7d1-7164-a7ee-5324a4b0c922","019d0640-0a2d-7740-a972-9c73365b2dcb","","776","
                <div class=""stimulus-container"">
                    <img src=""images/causal_sequence/dog_causal/dog_causal_1.png"" class=""exp-image"">
                    <div class=""question-area"">
                        <p style=""font-size: 20px; font-weight: bold; margin: 0;"">Is there a person in this image?</p>
                    </div>
                </div>","0","main_experiment_trial","1","dog_causal","causal_sequence","chronological","","","","","","",""
"","","","","","html-keyboard-response","145","537595","0.0-145.0","5EBF332C075D45F79B182475C7704A38","019d0643-c7d1-7164-a7ee-5324a4b0c922","019d0640-0a2d-7740-a972-9c73365b2dcb","","null","
                <div class=""stimulus-container"">
                    <img src=""images/causal_sequence/dog_causal/dog_causal_2.png"" class=""exp-image"">
                    <div class=""question-area""></div> 
                </div>","null","","","","","","","","","","","",""
"","","","","","html-button-response","146","538242","0.0-146.0","5EBF332C075D45F79B182475C7704A38","019d0643-c7d1-7164-a7ee-5324a4b0c922","019d0640-0a2d-7740-a972-9c73365b2dcb","","646","
                <div class=""stimulus-container"">
                    <img src=""images/causal_sequence/dog_causal/dog_causal_2.png"" class=""exp-image"">
                    <div class=""question-area"">
                        <p style=""font-size: 20px; font-weight: bold; margin: 0;"">Is there a person in this image?</p>
                    </div>
                </div>","0","main_experiment_trial","2","dog_causal","causal_sequence","chronological","","","","","","",""
"","","","","","html-keyboard-response","147","543244","0.0-147.0","5EBF332C075D45F79B182475C7704A38","019d0643-c7d1-7164-a7ee-5324a4b0c922","019d0640-0a2d-7740-a972-9c73365b2dcb","","null","
                <div class=""stimulus-container"">
                    <img src=""images/causal_sequence/dog_causal/dog_causal_3.png"" class=""exp-image"">
                    <div class=""question-area""></div> 
                </div>","null","","","","","","","","","","","",""
"","","","","","html-button-response","148","544059","0.0-148.0","5EBF332C075D45F79B182475C7704A38","019d0643-c7d1-7164-a7ee-5324a4b0c922","019d0640-0a2d-7740-a972-9c73365b2dcb","","813","
                <div class=""stimulus-container"">
                    <img src=""images/causal_sequence/dog_causal/dog_causal_3.png"" class=""exp-image"">
                    <div class=""question-area"">
                        <p style=""font-size: 20px; font-weight: bold; margin: 0;"">Is there a person in this image?</p>
                    </div>
                </div>","0","main_experiment_trial","3","dog_causal","causal_sequence","chronological","","","","","","",""
"","","","","","html-keyboard-response","149","549061","0.0-149.0","5EBF332C075D45F79B182475C7704A38","019d0643-c7d1-7164-a7ee-5324a4b0c922","019d0640-0a2d-7740-a972-9c73365b2dcb","","null","
                <div class=""stimulus-container"">
                    <img src=""images/causal_sequence/dog_causal/dog_causal_4.png"" class=""exp-image"">
                    <div class=""question-area""></div> 
                </div>","null","","","","","","","","","","","",""
"","","","","","html-button-response","150","549611","0.0-150.0","5EBF332C075D45F79B182475C7704A38","019d0643-c7d1-7164-a7ee-5324a4b0c922","019d0640-0a2d-7740-a972-9c73365b2dcb","","548","
                <div class=""stimulus-container"">
                    <img src=""images/causal_sequence/dog_causal/dog_causal_4.png"" class=""exp-image"">
                    <div class=""question-area"">
                        <p style=""font-size: 20px; font-weight: bold; margin: 0;"">Is there a person in this image?</p>
                    </div>
                </div>","0","main_experiment_trial","4","dog_causal","causal_sequence","chronological","","","","","","",""
"","","","","","html-keyboard-response","151","554613","0.0-151.0","5EBF332C075D45F79B182475C7704A38","019d0643-c7d1-7164-a7ee-5324a4b0c922","019d0640-0a2d-7740-a972-9c73365b2dcb","","null","
                <div class=""stimulus-container"">
                    <img src=""images/causal_sequence/dog_causal/dog_causal_5.png"" class=""exp-image"">
                    <div class=""question-area""></div> 
                </div>","null","","","","","","","","","","","",""
"","","","","","html-button-response","152","556359","0.0-152.0","5EBF332C075D45F79B182475C7704A38","019d0643-c7d1-7164-a7ee-5324a4b0c922","019d0640-0a2d-7740-a972-9c73365b2dcb","","1744","
                <div class=""stimulus-container"">
                    <img src=""images/causal_sequence/dog_causal/dog_causal_5.png"" class=""exp-image"">
                    <div class=""question-area"">
                        <p style=""font-size: 20px; font-weight: bold; margin: 0;"">Is there a person in this image?</p>
                    </div>
                </div>","0","main_experiment_trial","5","dog_causal","causal_sequence","chronological","","","","","","",""
"","","","","","html-keyboard-response","153","561362","0.0-153.0","5EBF332C075D45F79B182475C7704A38","019d0643-c7d1-7164-a7ee-5324a4b0c922","019d0640-0a2d-7740-a972-9c73365b2dcb","","null","
                <div class=""stimulus-container"">
                    <img src=""images/causal_sequence/dog_causal/dog_causal_6.png"" class=""exp-image"">
                    <div class=""question-area""></div> 
                </div>","null","","","","","","","","","","","",""
"","","","","","html-button-response","154","562426","0.0-154.0","5EBF332C075D45F79B182475C7704A38","019d0643-c7d1-7164-a7ee-5324a4b0c922","019d0640-0a2d-7740-a972-9c73365b2dcb","","1063","
                <div class=""stimulus-container"">
                    <img src=""images/causal_sequence/dog_causal/dog_causal_6.png"" class=""exp-image"">
                    <div class=""question-area"">
                        <p style=""font-size: 20px; font-weight: bold; margin: 0;"">Is there a person in this image?</p>
                    </div>
                </div>","0","main_experiment_trial","6","dog_causal","causal_sequence","chronological","","","","","","",""
"","","","","","html-keyboard-response","155","567429","0.0-155.0","5EBF332C075D45F79B182475C7704A38","019d0643-c7d1-7164-a7ee-5324a4b0c922","019d0640-0a2d-7740-a972-9c73365b2dcb","","null","
                <div class=""stimulus-container"">
                    <img src=""images/causal_sequence/dog_causal/dog_causal_7.png"" class=""exp-image"">
                    <div class=""question-area""></div> 
                </div>","null","","","","","","","","","","","",""
"","","","","","html-button-response","156","568293","0.0-156.0","5EBF332C075D45F79B182475C7704A38","019d0643-c7d1-7164-a7ee-5324a4b0c922","019d0640-0a2d-7740-a972-9c73365b2dcb","","862","
                <div class=""stimulus-container"">
                    <img src=""images/causal_sequence/dog_causal/dog_causal_7.png"" class=""exp-image"">
                    <div class=""question-area"">
                        <p style=""font-size: 20px; font-weight: bold; margin: 0;"">Is there a person in this image?</p>
                    </div>
                </div>","0","main_experiment_trial","7","dog_causal","causal_sequence","chronological","","","","","","",""
"","","","","","html-keyboard-response","157","573295","0.0-157.0","5EBF332C075D45F79B182475C7704A38","019d0643-c7d1-7164-a7ee-5324a4b0c922","019d0640-0a2d-7740-a972-9c73365b2dcb","","null","
                <div class=""stimulus-container"">
                    <img src=""images/causal_sequence/dog_causal/dog_causal_8.png"" class=""exp-image"">
                    <div class=""question-area""></div> 
                </div>","null","","","","","","","","","","","",""
"","","","","","html-button-response","158","574010","0.0-158.0","5EBF332C075D45F79B182475C7704A38","019d0643-c7d1-7164-a7ee-5324a4b0c922","019d0640-0a2d-7740-a972-9c73365b2dcb","","713","
                <div class=""stimulus-container"">
                    <img src=""images/causal_sequence/dog_causal/dog_causal_8.png"" class=""exp-image"">
                    <div class=""question-area"">
                        <p style=""font-size: 20px; font-weight: bold; margin: 0;"">Is there a person in this image?</p>
                    </div>
                </div>","0","main_experiment_trial","8","dog_causal","causal_sequence","chronological","","","","","","",""
"","","","","","html-keyboard-response","159","579011","0.0-159.0","5EBF332C075D45F79B182475C7704A38","019d0643-c7d1-7164-a7ee-5324a4b0c922","019d0640-0a2d-7740-a972-9c73365b2dcb","","null","
                <div class=""stimulus-container"">
                    <img src=""images/causal_sequence/dog_causal/dog_causal_9.png"" class=""exp-image"">
                    <div class=""question-area""></div> 
                </div>","null","","","","","","","","","","","",""
"","","","","","html-button-response","160","579761","0.0-160.0","5EBF332C075D45F79B182475C7704A38","019d0643-c7d1-7164-a7ee-5324a4b0c922","019d0640-0a2d-7740-a972-9c73365b2dcb","","749","
                <div class=""stimulus-container"">
                    <img src=""images/causal_sequence/dog_causal/dog_causal_9.png"" class=""exp-image"">
                    <div class=""question-area"">
                        <p style=""font-size: 20px; font-weight: bold; margin: 0;"">Is there a person in this image?</p>
                    </div>
                </div>","0","main_experiment_trial","9","dog_causal","causal_sequence","chronological","","","","","","",""
"","","","","","html-keyboard-response","161","584763","0.0-161.0","5EBF332C075D45F79B182475C7704A38","019d0643-c7d1-7164-a7ee-5324a4b0c922","019d0640-0a2d-7740-a972-9c73365b2dcb","","null","
                <div class=""stimulus-container"">
                    <img src=""images/causal_sequence/dog_causal/dog_causal_ten.png"" class=""exp-image"">
                    <div class=""question-area""></div> 
                </div>","null","","","","","","","","","","","",""
"","","","","","html-button-response","162","585492","0.0-162.0","5EBF332C075D45F79B182475C7704A38","019d0643-c7d1-7164-a7ee-5324a4b0c922","019d0640-0a2d-7740-a972-9c73365b2dcb","","728","
                <div class=""stimulus-container"">
                    <img src=""images/causal_sequence/dog_causal/dog_causal_ten.png"" class=""exp-image"">
                    <div class=""question-area"">
                        <p style=""font-size: 20px; font-weight: bold; margin: 0;"">Is there a person in this image?</p>
                    </div>
                </div>","0","main_experiment_trial","ten","dog_causal","causal_sequence","chronological","","","","","","",""
"","","","","","html-keyboard-response","163","590494","0.0-163.0","5EBF332C075D45F79B182475C7704A38","019d0643-c7d1-7164-a7ee-5324a4b0c922","019d0640-0a2d-7740-a972-9c73365b2dcb","","null","<div style=""background-color: white; width: 100vw; height: 100vh;""></div>","null","","","","","","","","","","","",""
"","","","","","html-keyboard-response","164","595497","0.0-164.0","5EBF332C075D45F79B182475C7704A38","019d0643-c7d1-7164-a7ee-5324a4b0c922","019d0640-0a2d-7740-a972-9c73365b2dcb","","null","
                <div class=""stimulus-container"">
                    <img src=""images/schematic_sequence/flight_scheme/flight_scheme_1.png"" class=""exp-image"">
                    <div class=""question-area""></div> 
                </div>","null","","","","","","","","","","","",""
"","","","","","html-button-response","165","596859","0.0-165.0","5EBF332C075D45F79B182475C7704A38","019d0643-c7d1-7164-a7ee-5324a4b0c922","019d0640-0a2d-7740-a972-9c73365b2dcb","","1361","
                <div class=""stimulus-container"">
                    <img src=""images/schematic_sequence/flight_scheme/flight_scheme_1.png"" class=""exp-image"">
                    <div class=""question-area"">
                        <p style=""font-size: 20px; font-weight: bold; margin: 0;"">Is there a person in this image?</p>
                    </div>
                </div>","0","main_experiment_trial","1","flight_scheme","schematic_sequence","chronological","","","","","","",""
"","","","","","html-keyboard-response","166","601861","0.0-166.0","5EBF332C075D45F79B182475C7704A38","019d0643-c7d1-7164-a7ee-5324a4b0c922","019d0640-0a2d-7740-a972-9c73365b2dcb","","null","
                <div class=""stimulus-container"">
                    <img src=""images/schematic_sequence/flight_scheme/flight_scheme_2.png"" class=""exp-image"">
                    <div class=""question-area""></div> 
                </div>","null","","","","","","","","","","","",""
"","","","","","html-button-response","167","603126","0.0-167.0","5EBF332C075D45F79B182475C7704A38","019d0643-c7d1-7164-a7ee-5324a4b0c922","019d0640-0a2d-7740-a972-9c73365b2dcb","","1263","
                <div class=""stimulus-container"">
                    <img src=""images/schematic_sequence/flight_scheme/flight_scheme_2.png"" class=""exp-image"">
                    <div class=""question-area"">
                        <p style=""font-size: 20px; font-weight: bold; margin: 0;"">Is there a person in this image?</p>
                    </div>
                </div>","1","main_experiment_trial","2","flight_scheme","schematic_sequence","chronological","","","","","","",""
"","","","","","html-keyboard-response","168","608128","0.0-168.0","5EBF332C075D45F79B182475C7704A38","019d0643-c7d1-7164-a7ee-5324a4b0c922","019d0640-0a2d-7740-a972-9c73365b2dcb","","null","
                <div class=""stimulus-container"">
                    <img src=""images/schematic_sequence/flight_scheme/flight_scheme_3.png"" class=""exp-image"">
                    <div class=""question-area""></div> 
                </div>","null","","","","","","","","","","","",""
"","","","","","html-button-response","169","609128","0.0-169.0","5EBF332C075D45F79B182475C7704A38","019d0643-c7d1-7164-a7ee-5324a4b0c922","019d0640-0a2d-7740-a972-9c73365b2dcb","","999","
                <div class=""stimulus-container"">
                    <img src=""images/schematic_sequence/flight_scheme/flight_scheme_3.png"" class=""exp-image"">
                    <div class=""question-area"">
                        <p style=""font-size: 20px; font-weight: bold; margin: 0;"">Is there a person in this image?</p>
                    </div>
                </div>","0","main_experiment_trial","3","flight_scheme","schematic_sequence","chronological","","","","","","",""
"","","","","","html-keyboard-response","170","614131","0.0-170.0","5EBF332C075D45F79B182475C7704A38","019d0643-c7d1-7164-a7ee-5324a4b0c922","019d0640-0a2d-7740-a972-9c73365b2dcb","","null","
                <div class=""stimulus-container"">
                    <img src=""images/schematic_sequence/flight_scheme/flight_scheme_4.png"" class=""exp-image"">
                    <div class=""question-area""></div> 
                </div>","null","","","","","","","","","","","",""
"","","","","","html-button-response","171","615345","0.0-171.0","5EBF332C075D45F79B182475C7704A38","019d0643-c7d1-7164-a7ee-5324a4b0c922","019d0640-0a2d-7740-a972-9c73365b2dcb","","1213","
                <div class=""stimulus-container"">
                    <img src=""images/schematic_sequence/flight_scheme/flight_scheme_4.png"" class=""exp-image"">
                    <div class=""question-area"">
                        <p style=""font-size: 20px; font-weight: bold; margin: 0;"">Is there a person in this image?</p>
                    </div>
                </div>","0","main_experiment_trial","4","flight_scheme","schematic_sequence","chronological","","","","","","",""
"","","","","","html-keyboard-response","172","620348","0.0-172.0","5EBF332C075D45F79B182475C7704A38","019d0643-c7d1-7164-a7ee-5324a4b0c922","019d0640-0a2d-7740-a972-9c73365b2dcb","","null","
                <div class=""stimulus-container"">
                    <img src=""images/schematic_sequence/flight_scheme/flight_scheme_5.png"" class=""exp-image"">
                    <div class=""question-area""></div> 
                </div>","null","","","","","","","","","","","",""
"","","","","","html-button-response","173","621461","0.0-173.0","5EBF332C075D45F79B182475C7704A38","019d0643-c7d1-7164-a7ee-5324a4b0c922","019d0640-0a2d-7740-a972-9c73365b2dcb","","1112","
                <div class=""stimulus-container"">
                    <img src=""images/schematic_sequence/flight_scheme/flight_scheme_5.png"" class=""exp-image"">
                    <div class=""question-area"">
                        <p style=""font-size: 20px; font-weight: bold; margin: 0;"">Is there a person in this image?</p>
                    </div>
                </div>","0","main_experiment_trial","5","flight_scheme","schematic_sequence","chronological","","","","","","",""
"","","","","","html-keyboard-response","174","626464","0.0-174.0","5EBF332C075D45F79B182475C7704A38","019d0643-c7d1-7164-a7ee-5324a4b0c922","019d0640-0a2d-7740-a972-9c73365b2dcb","","null","
                <div class=""stimulus-container"">
                    <img src=""images/schematic_sequence/flight_scheme/flight_scheme_6.png"" class=""exp-image"">
                    <div class=""question-area""></div> 
                </div>","null","","","","","","","","","","","",""
"","","","","","html-button-response","175","627943","0.0-175.0","5EBF332C075D45F79B182475C7704A38","019d0643-c7d1-7164-a7ee-5324a4b0c922","019d0640-0a2d-7740-a972-9c73365b2dcb","","1478","
                <div class=""stimulus-container"">
                    <img src=""images/schematic_sequence/flight_scheme/flight_scheme_6.png"" class=""exp-image"">
                    <div class=""question-area"">
                        <p style=""font-size: 20px; font-weight: bold; margin: 0;"">Is there a person in this image?</p>
                    </div>
                </div>","1","main_experiment_trial","6","flight_scheme","schematic_sequence","chronological","","","","","","",""
"","","","","","html-keyboard-response","176","632946","0.0-176.0","5EBF332C075D45F79B182475C7704A38","019d0643-c7d1-7164-a7ee-5324a4b0c922","019d0640-0a2d-7740-a972-9c73365b2dcb","","null","
                <div class=""stimulus-container"">
                    <img src=""images/schematic_sequence/flight_scheme/flight_scheme_7.png"" class=""exp-image"">
                    <div class=""question-area""></div> 
                </div>","null","","","","","","","","","","","",""
"","","","","","html-button-response","177","633843","0.0-177.0","5EBF332C075D45F79B182475C7704A38","019d0643-c7d1-7164-a7ee-5324a4b0c922","019d0640-0a2d-7740-a972-9c73365b2dcb","","895","
                <div class=""stimulus-container"">
                    <img src=""images/schematic_sequence/flight_scheme/flight_scheme_7.png"" class=""exp-image"">
                    <div class=""question-area"">
