"success","timeout","failed_images","failed_audio","failed_video","trial_type","trial_index","time_elapsed","internal_node_id","subject_id","study_id","session_id","view_history","rt","stimulus","response","task","image_index","folder","sequence_type","valuable_image_index","reward_type","chosen_image_index","target_X","correct_choice"
"true","false","[]","[]","[]","preload","0","16304","0.0-0.0","0F07CDB90B904FB79C385106E46337DE","019cf540-eb8d-74ae-82c5-c66974c07507","019cf509-e3f1-72d9-bf6b-e2f1118fdaab","","","","","","","","","","","","",""
"","","","","","instructions","1","125596","0.0-1.0","0F07CDB90B904FB79C385106E46337DE","019cf540-eb8d-74ae-82c5-c66974c07507","019cf509-e3f1-72d9-bf6b-e2f1118fdaab","[{""page_index"":0,""viewing_time"":109291}]","109291","","","","","","","","","","",""
"","","","","","instructions","2","128265","0.0-2.0","0F07CDB90B904FB79C385106E46337DE","019cf540-eb8d-74ae-82c5-c66974c07507","019cf509-e3f1-72d9-bf6b-e2f1118fdaab","[{""page_index"":0,""viewing_time"":2666}]","2666","","","","","","","","","","",""
"true","","","","","fullscreen","3","132148","0.0-3.0","0F07CDB90B904FB79C385106E46337DE","019cf540-eb8d-74ae-82c5-c66974c07507","019cf509-e3f1-72d9-bf6b-e2f1118fdaab","","2879","","","","","","","","","","",""
"","","","","","instructions","4","154777","0.0-4.0","0F07CDB90B904FB79C385106E46337DE","019cf540-eb8d-74ae-82c5-c66974c07507","019cf509-e3f1-72d9-bf6b-e2f1118fdaab","[{""page_index"":0,""viewing_time"":22628}]","22628","","","","","","","","","","",""
"","","","","","instructions","5","255160","0.0-5.0","0F07CDB90B904FB79C385106E46337DE","019cf540-eb8d-74ae-82c5-c66974c07507","019cf509-e3f1-72d9-bf6b-e2f1118fdaab","[{""page_index"":0,""viewing_time"":100382}]","100382","","","","","","","","","","",""
"","","","","","html-keyboard-response","6","259169","0.0-6.0","0F07CDB90B904FB79C385106E46337DE","019cf540-eb8d-74ae-82c5-c66974c07507","019cf509-e3f1-72d9-bf6b-e2f1118fdaab","","null","
                <div class=""stimulus-container"">
                    <img src=""images/instructions/movie_1.png"" class=""exp-image"">
                    <div class=""question-area""></div> 
                </div>","null","","","","","","","","",""
"","","","","","html-button-response","7","260992","0.0-7.0","0F07CDB90B904FB79C385106E46337DE","019cf540-eb8d-74ae-82c5-c66974c07507","019cf509-e3f1-72d9-bf6b-e2f1118fdaab","","1821","
                <div class=""stimulus-container"">
                    <img src=""images/instructions/movie_1.png"" class=""exp-image"">
                    <div class=""question-area"">
                        <p style=""font-size: 20px; font-weight: bold; margin: 0;"">Was there a person in this image?</p>
                    </div>
                </div>","0","example_question","1","","","","","","",""
"","","","","","html-keyboard-response","8","265000","0.0-8.0","0F07CDB90B904FB79C385106E46337DE","019cf540-eb8d-74ae-82c5-c66974c07507","019cf509-e3f1-72d9-bf6b-e2f1118fdaab","","null","
                <div class=""stimulus-container"">
                    <img src=""images/instructions/movie_2.png"" class=""exp-image"">
                    <div class=""question-area""></div> 
                </div>","null","","","","","","","","",""
"","","","","","html-button-response","9","266336","0.0-9.0","0F07CDB90B904FB79C385106E46337DE","019cf540-eb8d-74ae-82c5-c66974c07507","019cf509-e3f1-72d9-bf6b-e2f1118fdaab","","1335","
                <div class=""stimulus-container"">
                    <img src=""images/instructions/movie_2.png"" class=""exp-image"">
                    <div class=""question-area"">
                        <p style=""font-size: 20px; font-weight: bold; margin: 0;"">Was there a person in this image?</p>
                    </div>
                </div>","0","example_question","2","","","","","","",""
"","","","","","html-keyboard-response","10","270343","0.0-10.0","0F07CDB90B904FB79C385106E46337DE","019cf540-eb8d-74ae-82c5-c66974c07507","019cf509-e3f1-72d9-bf6b-e2f1118fdaab","","null","
                <div class=""stimulus-container"">
                    <img src=""images/instructions/movie_3.png"" class=""exp-image"">
                    <div class=""question-area""></div> 
                </div>","null","","","","","","","","",""
"","","","","","html-button-response","11","271056","0.0-11.0","0F07CDB90B904FB79C385106E46337DE","019cf540-eb8d-74ae-82c5-c66974c07507","019cf509-e3f1-72d9-bf6b-e2f1118fdaab","","712","
                <div class=""stimulus-container"">
                    <img src=""images/instructions/movie_3.png"" class=""exp-image"">
                    <div class=""question-area"">
                        <p style=""font-size: 20px; font-weight: bold; margin: 0;"">Was there a person in this image?</p>
                    </div>
                </div>","0","example_question","3","","","","","","",""
"","","","","","html-keyboard-response","12","275070","0.0-12.0","0F07CDB90B904FB79C385106E46337DE","019cf540-eb8d-74ae-82c5-c66974c07507","019cf509-e3f1-72d9-bf6b-e2f1118fdaab","","null","
                <div class=""stimulus-container"">
                    <img src=""images/instructions/movie_4.png"" class=""exp-image"">
                    <div class=""question-area""></div> 
                </div>","null","","","","","","","","",""
"","","","","","html-button-response","13","276168","0.0-13.0","0F07CDB90B904FB79C385106E46337DE","019cf540-eb8d-74ae-82c5-c66974c07507","019cf509-e3f1-72d9-bf6b-e2f1118fdaab","","1096","
                <div class=""stimulus-container"">
                    <img src=""images/instructions/movie_4.png"" class=""exp-image"">
                    <div class=""question-area"">
                        <p style=""font-size: 20px; font-weight: bold; margin: 0;"">Was there a person in this image?</p>
                    </div>
                </div>","0","example_question","4","","","","","","",""
"","","","","","instructions","14","279408","0.0-14.0","0F07CDB90B904FB79C385106E46337DE","019cf540-eb8d-74ae-82c5-c66974c07507","019cf509-e3f1-72d9-bf6b-e2f1118fdaab","[{""page_index"":0,""viewing_time"":3239}]","3240","","","","","","","","","","",""
"","","","","","instructions","15","296279","0.0-15.0","0F07CDB90B904FB79C385106E46337DE","019cf540-eb8d-74ae-82c5-c66974c07507","019cf509-e3f1-72d9-bf6b-e2f1118fdaab","[{""page_index"":0,""viewing_time"":16871}]","16871","","","","","","","","","","",""
"","","","","","html-keyboard-response","16","297282","0.0-16.0","0F07CDB90B904FB79C385106E46337DE","019cf540-eb8d-74ae-82c5-c66974c07507","019cf509-e3f1-72d9-bf6b-e2f1118fdaab","","null","<div style=""background-color: white; width: 100vw; height: 100vh;""></div>","null","","","","","","","","",""
"","","","","","html-keyboard-response","17","302288","0.0-17.0","0F07CDB90B904FB79C385106E46337DE","019cf540-eb8d-74ae-82c5-c66974c07507","019cf509-e3f1-72d9-bf6b-e2f1118fdaab","","null","
                <div class=""stimulus-container"">
                    <img src=""images/schematic_sequence/dinner_party_scheme/dinner_party_scheme_1.png"" class=""exp-image"">
                    <div class=""question-area""></div> 
                </div>","null","","","","","","","","",""
"","","","","","html-button-response","18","304311","0.0-18.0","0F07CDB90B904FB79C385106E46337DE","019cf540-eb8d-74ae-82c5-c66974c07507","019cf509-e3f1-72d9-bf6b-e2f1118fdaab","","2022","
                <div class=""stimulus-container"">
                    <img src=""images/schematic_sequence/dinner_party_scheme/dinner_party_scheme_1.png"" class=""exp-image"">
                    <div class=""question-area"">
                        <p style=""font-size: 20px; font-weight: bold; margin: 0;"">Is there a person in this image?</p>
                    </div>
                </div>","0","main_experiment_trial","1","dinner_party_scheme","schematic_sequence","","","","",""
"","","","","","html-keyboard-response","19","309318","0.0-19.0","0F07CDB90B904FB79C385106E46337DE","019cf540-eb8d-74ae-82c5-c66974c07507","019cf509-e3f1-72d9-bf6b-e2f1118fdaab","","null","
                <div class=""stimulus-container"">
                    <img src=""images/schematic_sequence/dinner_party_scheme/dinner_party_scheme_2.png"" class=""exp-image"">
                    <div class=""question-area""></div> 
                </div>","null","","","","","","","","",""
"","","","","","html-button-response","20","310103","0.0-20.0","0F07CDB90B904FB79C385106E46337DE","019cf540-eb8d-74ae-82c5-c66974c07507","019cf509-e3f1-72d9-bf6b-e2f1118fdaab","","784","
                <div class=""stimulus-container"">
                    <img src=""images/schematic_sequence/dinner_party_scheme/dinner_party_scheme_2.png"" class=""exp-image"">
                    <div class=""question-area"">
                        <p style=""font-size: 20px; font-weight: bold; margin: 0;"">Is there a person in this image?</p>
                    </div>
                </div>","0","main_experiment_trial","2","dinner_party_scheme","schematic_sequence","","","","",""
"","","","","","html-keyboard-response","21","315106","0.0-21.0","0F07CDB90B904FB79C385106E46337DE","019cf540-eb8d-74ae-82c5-c66974c07507","019cf509-e3f1-72d9-bf6b-e2f1118fdaab","","null","
                <div class=""stimulus-container"">
                    <img src=""images/schematic_sequence/dinner_party_scheme/dinner_party_scheme_3.png"" class=""exp-image"">
                    <div class=""question-area""></div> 
                </div>","null","","","","","","","","",""
"","","","","","html-button-response","22","316671","0.0-22.0","0F07CDB90B904FB79C385106E46337DE","019cf540-eb8d-74ae-82c5-c66974c07507","019cf509-e3f1-72d9-bf6b-e2f1118fdaab","","1565","
                <div class=""stimulus-container"">
                    <img src=""images/schematic_sequence/dinner_party_scheme/dinner_party_scheme_3.png"" class=""exp-image"">
                    <div class=""question-area"">
                        <p style=""font-size: 20px; font-weight: bold; margin: 0;"">Is there a person in this image?</p>
                    </div>
                </div>","0","main_experiment_trial","3","dinner_party_scheme","schematic_sequence","","","","",""
"","","","","","html-keyboard-response","23","321680","0.0-23.0","0F07CDB90B904FB79C385106E46337DE","019cf540-eb8d-74ae-82c5-c66974c07507","019cf509-e3f1-72d9-bf6b-e2f1118fdaab","","null","
                <div class=""stimulus-container"">
                    <img src=""images/schematic_sequence/dinner_party_scheme/dinner_party_scheme_4.png"" class=""exp-image"">
                    <div class=""question-area""></div> 
                </div>","null","","","","","","","","",""
"","","","","","html-button-response","24","322151","0.0-24.0","0F07CDB90B904FB79C385106E46337DE","019cf540-eb8d-74ae-82c5-c66974c07507","019cf509-e3f1-72d9-bf6b-e2f1118fdaab","","471","
                <div class=""stimulus-container"">
                    <img src=""images/schematic_sequence/dinner_party_scheme/dinner_party_scheme_4.png"" class=""exp-image"">
                    <div class=""question-area"">
                        <p style=""font-size: 20px; font-weight: bold; margin: 0;"">Is there a person in this image?</p>
                    </div>
                </div>","0","main_experiment_trial","4","dinner_party_scheme","schematic_sequence","","","","",""
"","","","","","html-keyboard-response","25","327157","0.0-25.0","0F07CDB90B904FB79C385106E46337DE","019cf540-eb8d-74ae-82c5-c66974c07507","019cf509-e3f1-72d9-bf6b-e2f1118fdaab","","null","
                <div class=""stimulus-container"">
                    <img src=""images/schematic_sequence/dinner_party_scheme/dinner_party_scheme_5.png"" class=""exp-image"">
                    <div class=""question-area""></div> 
                </div>","null","","","","","","","","",""
"","","","","","html-button-response","26","327695","0.0-26.0","0F07CDB90B904FB79C385106E46337DE","019cf540-eb8d-74ae-82c5-c66974c07507","019cf509-e3f1-72d9-bf6b-e2f1118fdaab","","537","
                <div class=""stimulus-container"">
                    <img src=""images/schematic_sequence/dinner_party_scheme/dinner_party_scheme_5.png"" class=""exp-image"">
                    <div class=""question-area"">
                        <p style=""font-size: 20px; font-weight: bold; margin: 0;"">Is there a person in this image?</p>
                    </div>
                </div>","0","main_experiment_trial","5","dinner_party_scheme","schematic_sequence","","","","",""
"","","","","","html-keyboard-response","27","332697","0.0-27.0","0F07CDB90B904FB79C385106E46337DE","019cf540-eb8d-74ae-82c5-c66974c07507","019cf509-e3f1-72d9-bf6b-e2f1118fdaab","","null","
                <div class=""stimulus-container"">
                    <img src=""images/schematic_sequence/dinner_party_scheme/dinner_party_scheme_6.png"" class=""exp-image"">
                    <div class=""question-area""></div> 
                </div>","null","","","","","","","","",""
"","","","","","html-button-response","28","333647","0.0-28.0","0F07CDB90B904FB79C385106E46337DE","019cf540-eb8d-74ae-82c5-c66974c07507","019cf509-e3f1-72d9-bf6b-e2f1118fdaab","","949","
                <div class=""stimulus-container"">
                    <img src=""images/schematic_sequence/dinner_party_scheme/dinner_party_scheme_6.png"" class=""exp-image"">
                    <div class=""question-area"">
                        <p style=""font-size: 20px; font-weight: bold; margin: 0;"">Is there a person in this image?</p>
                    </div>
                </div>","0","main_experiment_trial","6","dinner_party_scheme","schematic_sequence","","","","",""
"","","","","","html-keyboard-response","29","338659","0.0-29.0","0F07CDB90B904FB79C385106E46337DE","019cf540-eb8d-74ae-82c5-c66974c07507","019cf509-e3f1-72d9-bf6b-e2f1118fdaab","","null","
                <div class=""stimulus-container"">
                    <img src=""images/schematic_sequence/dinner_party_scheme/dinner_party_scheme_7.png"" class=""exp-image"">
                    <div class=""question-area""></div> 
                </div>","null","","","","","","","","",""
"","","","","","html-button-response","30","339135","0.0-30.0","0F07CDB90B904FB79C385106E46337DE","019cf540-eb8d-74ae-82c5-c66974c07507","019cf509-e3f1-72d9-bf6b-e2f1118fdaab","","474","
                <div class=""stimulus-container"">
                    <img src=""images/schematic_sequence/dinner_party_scheme/dinner_party_scheme_7.png"" class=""exp-image"">
                    <div class=""question-area"">
                        <p style=""font-size: 20px; font-weight: bold; margin: 0;"">Is there a person in this image?</p>
                    </div>
                </div>","0","main_experiment_trial","7","dinner_party_scheme","schematic_sequence","","","","",""
"","","","","","html-keyboard-response","31","344136","0.0-31.0","0F07CDB90B904FB79C385106E46337DE","019cf540-eb8d-74ae-82c5-c66974c07507","019cf509-e3f1-72d9-bf6b-e2f1118fdaab","","null","
                <div class=""stimulus-container"">
                    <img src=""images/schematic_sequence/dinner_party_scheme/dinner_party_scheme_8.png"" class=""exp-image"">
                    <div class=""question-area""></div> 
                </div>","null","","","","","","","","",""
"","","","","","html-button-response","32","344559","0.0-32.0","0F07CDB90B904FB79C385106E46337DE","019cf540-eb8d-74ae-82c5-c66974c07507","019cf509-e3f1-72d9-bf6b-e2f1118fdaab","","422","
                <div class=""stimulus-container"">
                    <img src=""images/schematic_sequence/dinner_party_scheme/dinner_party_scheme_8.png"" class=""exp-image"">
                    <div class=""question-area"">
                        <p style=""font-size: 20px; font-weight: bold; margin: 0;"">Is there a person in this image?</p>
                    </div>
                </div>","0","main_experiment_trial","8","dinner_party_scheme","schematic_sequence","","","","",""
"","","","","","html-keyboard-response","33","349571","0.0-33.0","0F07CDB90B904FB79C385106E46337DE","019cf540-eb8d-74ae-82c5-c66974c07507","019cf509-e3f1-72d9-bf6b-e2f1118fdaab","","null","
                <div class=""stimulus-container"">
                    <img src=""images/schematic_sequence/dinner_party_scheme/dinner_party_scheme_9.png"" class=""exp-image"">
                    <div class=""question-area""></div> 
                </div>","null","","","","","","","","",""
"","","","","","html-button-response","34","350710","0.0-34.0","0F07CDB90B904FB79C385106E46337DE","019cf540-eb8d-74ae-82c5-c66974c07507","019cf509-e3f1-72d9-bf6b-e2f1118fdaab","","1138","
                <div class=""stimulus-container"">
                    <img src=""images/schematic_sequence/dinner_party_scheme/dinner_party_scheme_9.png"" class=""exp-image"">
                    <div class=""question-area"">
                        <p style=""font-size: 20px; font-weight: bold; margin: 0;"">Is there a person in this image?</p>
                    </div>
                </div>","0","main_experiment_trial","9","dinner_party_scheme","schematic_sequence","","","","",""
"","","","","","html-keyboard-response","35","355717","0.0-35.0","0F07CDB90B904FB79C385106E46337DE","019cf540-eb8d-74ae-82c5-c66974c07507","019cf509-e3f1-72d9-bf6b-e2f1118fdaab","","null","
                <div class=""stimulus-container"">
                    <img src=""images/schematic_sequence/dinner_party_scheme/dinner_party_scheme_ten.png"" class=""exp-image"">
                    <div class=""question-area""></div> 
                </div>","null","","","","","","","","",""
"","","","","","html-button-response","36","356359","0.0-36.0","0F07CDB90B904FB79C385106E46337DE","019cf540-eb8d-74ae-82c5-c66974c07507","019cf509-e3f1-72d9-bf6b-e2f1118fdaab","","641","
                <div class=""stimulus-container"">
                    <img src=""images/schematic_sequence/dinner_party_scheme/dinner_party_scheme_ten.png"" class=""exp-image"">
                    <div class=""question-area"">
                        <p style=""font-size: 20px; font-weight: bold; margin: 0;"">Is there a person in this image?</p>
                    </div>
                </div>","0","main_experiment_trial","ten","dinner_party_scheme","schematic_sequence","","","","",""
"","","","","","html-keyboard-response","37","357360","0.0-37.0","0F07CDB90B904FB79C385106E46337DE","019cf540-eb8d-74ae-82c5-c66974c07507","019cf509-e3f1-72d9-bf6b-e2f1118fdaab","","null","<div style=""background-color: white; width: 100vw; height: 100vh;""></div>","null","","","","","","","","",""
"","","","","","html-keyboard-response","38","362369","0.0-38.0","0F07CDB90B904FB79C385106E46337DE","019cf540-eb8d-74ae-82c5-c66974c07507","019cf509-e3f1-72d9-bf6b-e2f1118fdaab","","null","
                <div class=""stimulus-container"">
                    <img src=""images/causal_sequence/dog_causal/dog_causal_1.png"" class=""exp-image"">
                    <div class=""question-area""></div> 
                </div>","null","","","","","","","","",""
"","","","","","html-button-response","39","363191","0.0-39.0","0F07CDB90B904FB79C385106E46337DE","019cf540-eb8d-74ae-82c5-c66974c07507","019cf509-e3f1-72d9-bf6b-e2f1118fdaab","","821","
                <div class=""stimulus-container"">
                    <img src=""images/causal_sequence/dog_causal/dog_causal_1.png"" class=""exp-image"">
                    <div class=""question-area"">
                        <p style=""font-size: 20px; font-weight: bold; margin: 0;"">Is there a person in this image?</p>
                    </div>
                </div>","0","main_experiment_trial","1","dog_causal","causal_sequence","","","","",""
"","","","","","html-keyboard-response","40","368207","0.0-40.0","0F07CDB90B904FB79C385106E46337DE","019cf540-eb8d-74ae-82c5-c66974c07507","019cf509-e3f1-72d9-bf6b-e2f1118fdaab","","null","
                <div class=""stimulus-container"">
                    <img src=""images/causal_sequence/dog_causal/dog_causal_2.png"" class=""exp-image"">
                    <div class=""question-area""></div> 
                </div>","null","","","","","","","","",""
"","","","","","html-button-response","41","368639","0.0-41.0","0F07CDB90B904FB79C385106E46337DE","019cf540-eb8d-74ae-82c5-c66974c07507","019cf509-e3f1-72d9-bf6b-e2f1118fdaab","","431","
                <div class=""stimulus-container"">
                    <img src=""images/causal_sequence/dog_causal/dog_causal_2.png"" class=""exp-image"">
                    <div class=""question-area"">
                        <p style=""font-size: 20px; font-weight: bold; margin: 0;"">Is there a person in this image?</p>
                    </div>
                </div>","0","main_experiment_trial","2","dog_causal","causal_sequence","","","","",""
"","","","","","html-keyboard-response","42","373649","0.0-42.0","0F07CDB90B904FB79C385106E46337DE","019cf540-eb8d-74ae-82c5-c66974c07507","019cf509-e3f1-72d9-bf6b-e2f1118fdaab","","null","
                <div class=""stimulus-container"">
                    <img src=""images/causal_sequence/dog_causal/dog_causal_3.png"" class=""exp-image"">
                    <div class=""question-area""></div> 
                </div>","null","","","","","","","","",""
"","","","","","html-button-response","43","374406","0.0-43.0","0F07CDB90B904FB79C385106E46337DE","019cf540-eb8d-74ae-82c5-c66974c07507","019cf509-e3f1-72d9-bf6b-e2f1118fdaab","","756","
                <div class=""stimulus-container"">
                    <img src=""images/causal_sequence/dog_causal/dog_causal_3.png"" class=""exp-image"">
                    <div class=""question-area"">
                        <p style=""font-size: 20px; font-weight: bold; margin: 0;"">Is there a person in this image?</p>
                    </div>
                </div>","0","main_experiment_trial","3","dog_causal","causal_sequence","","","","",""
"","","","","","html-keyboard-response","44","379418","0.0-44.0","0F07CDB90B904FB79C385106E46337DE","019cf540-eb8d-74ae-82c5-c66974c07507","019cf509-e3f1-72d9-bf6b-e2f1118fdaab","","null","
                <div class=""stimulus-container"">
                    <img src=""images/causal_sequence/dog_causal/dog_causal_4.png"" class=""exp-image"">
                    <div class=""question-area""></div> 
                </div>","null","","","","","","","","",""
"","","","","","html-button-response","45","380310","0.0-45.0","0F07CDB90B904FB79C385106E46337DE","019cf540-eb8d-74ae-82c5-c66974c07507","019cf509-e3f1-72d9-bf6b-e2f1118fdaab","","891","
                <div class=""stimulus-container"">
                    <img src=""images/causal_sequence/dog_causal/dog_causal_4.png"" class=""exp-image"">
                    <div class=""question-area"">
                        <p style=""font-size: 20px; font-weight: bold; margin: 0;"">Is there a person in this image?</p>
                    </div>
                </div>","0","main_experiment_trial","4","dog_causal","causal_sequence","","","","",""
"","","","","","html-keyboard-response","46","385311","0.0-46.0","0F07CDB90B904FB79C385106E46337DE","019cf540-eb8d-74ae-82c5-c66974c07507","019cf509-e3f1-72d9-bf6b-e2f1118fdaab","","null","
                <div class=""stimulus-container"">
                    <img src=""images/causal_sequence/dog_causal/dog_causal_5.png"" class=""exp-image"">
                    <div class=""question-area""></div> 
                </div>","null","","","","","","","","",""
"","","","","","html-button-response","47","385982","0.0-47.0","0F07CDB90B904FB79C385106E46337DE","019cf540-eb8d-74ae-82c5-c66974c07507","019cf509-e3f1-72d9-bf6b-e2f1118fdaab","","670","
                <div class=""stimulus-container"">
                    <img src=""images/causal_sequence/dog_causal/dog_causal_5.png"" class=""exp-image"">
                    <div class=""question-area"">
                        <p style=""font-size: 20px; font-weight: bold; margin: 0;"">Is there a person in this image?</p>
                    </div>
                </div>","0","main_experiment_trial","5","dog_causal","causal_sequence","","","","",""
"","","","","","html-keyboard-response","48","390993","0.0-48.0","0F07CDB90B904FB79C385106E46337DE","019cf540-eb8d-74ae-82c5-c66974c07507","019cf509-e3f1-72d9-bf6b-e2f1118fdaab","","null","
                <div class=""stimulus-container"">
                    <img src=""images/causal_sequence/dog_causal/dog_causal_6.png"" class=""exp-image"">
                    <div class=""question-area""></div> 
                </div>","null","","","","","","","","",""
"","","","","","html-button-response","49","391758","0.0-49.0","0F07CDB90B904FB79C385106E46337DE","019cf540-eb8d-74ae-82c5-c66974c07507","019cf509-e3f1-72d9-bf6b-e2f1118fdaab","","765","
                <div class=""stimulus-container"">
                    <img src=""images/causal_sequence/dog_causal/dog_causal_6.png"" class=""exp-image"">
                    <div class=""question-area"">
                        <p style=""font-size: 20px; font-weight: bold; margin: 0;"">Is there a person in this image?</p>
                    </div>
                </div>","0","main_experiment_trial","6","dog_causal","causal_sequence","","","","",""
"","","","","","html-keyboard-response","50","396768","0.0-50.0","0F07CDB90B904FB79C385106E46337DE","019cf540-eb8d-74ae-82c5-c66974c07507","019cf509-e3f1-72d9-bf6b-e2f1118fdaab","","null","
                <div class=""stimulus-container"">
                    <img src=""images/causal_sequence/dog_causal/dog_causal_7.png"" class=""exp-image"">
                    <div class=""question-area""></div> 
                </div>","null","","","","","","","","",""
"","","","","","html-button-response","51","397270","0.0-51.0","0F07CDB90B904FB79C385106E46337DE","019cf540-eb8d-74ae-82c5-c66974c07507","019cf509-e3f1-72d9-bf6b-e2f1118fdaab","","501","
                <div class=""stimulus-container"">
                    <img src=""images/causal_sequence/dog_causal/dog_causal_7.png"" class=""exp-image"">
                    <div class=""question-area"">
                        <p style=""font-size: 20px; font-weight: bold; margin: 0;"">Is there a person in this image?</p>
                    </div>
                </div>","0","main_experiment_trial","7","dog_causal","causal_sequence","","","","",""
"","","","","","html-keyboard-response","52","402278","0.0-52.0","0F07CDB90B904FB79C385106E46337DE","019cf540-eb8d-74ae-82c5-c66974c07507","019cf509-e3f1-72d9-bf6b-e2f1118fdaab","","null","
                <div class=""stimulus-container"">
                    <img src=""images/causal_sequence/dog_causal/dog_causal_8.png"" class=""exp-image"">
                    <div class=""question-area""></div> 
                </div>","null","","","","","","","","",""
"","","","","","html-button-response","53","402854","0.0-53.0","0F07CDB90B904FB79C385106E46337DE","019cf540-eb8d-74ae-82c5-c66974c07507","019cf509-e3f1-72d9-bf6b-e2f1118fdaab","","576","
                <div class=""stimulus-container"">
                    <img src=""images/causal_sequence/dog_causal/dog_causal_8.png"" class=""exp-image"">
                    <div class=""question-area"">
                        <p style=""font-size: 20px; font-weight: bold; margin: 0;"">Is there a person in this image?</p>
                    </div>
                </div>","0","main_experiment_trial","8","dog_causal","causal_sequence","","","","",""
"","","","","","html-keyboard-response","54","407864","0.0-54.0","0F07CDB90B904FB79C385106E46337DE","019cf540-eb8d-74ae-82c5-c66974c07507","019cf509-e3f1-72d9-bf6b-e2f1118fdaab","","null","
                <div class=""stimulus-container"">
                    <img src=""images/causal_sequence/dog_causal/dog_causal_9.png"" class=""exp-image"">
                    <div class=""question-area""></div> 
                </div>","null","","","","","","","","",""
"","","","","","html-button-response","55","408462","0.0-55.0","0F07CDB90B904FB79C385106E46337DE","019cf540-eb8d-74ae-82c5-c66974c07507","019cf509-e3f1-72d9-bf6b-e2f1118fdaab","","597","
                <div class=""stimulus-container"">
                    <img src=""images/causal_sequence/dog_causal/dog_causal_9.png"" class=""exp-image"">
                    <div class=""question-area"">
                        <p style=""font-size: 20px; font-weight: bold; margin: 0;"">Is there a person in this image?</p>
                    </div>
                </div>","0","main_experiment_trial","9","dog_causal","causal_sequence","","","","",""
"","","","","","html-keyboard-response","56","413467","0.0-56.0","0F07CDB90B904FB79C385106E46337DE","019cf540-eb8d-74ae-82c5-c66974c07507","019cf509-e3f1-72d9-bf6b-e2f1118fdaab","","null","
                <div class=""stimulus-container"">
                    <img src=""images/causal_sequence/dog_causal/dog_causal_ten.png"" class=""exp-image"">
                    <div class=""question-area""></div> 
                </div>","null","","","","","","","","",""
"","","","","","html-button-response","57","414166","0.0-57.0","0F07CDB90B904FB79C385106E46337DE","019cf540-eb8d-74ae-82c5-c66974c07507","019cf509-e3f1-72d9-bf6b-e2f1118fdaab","","698","
                <div class=""stimulus-container"">
                    <img src=""images/causal_sequence/dog_causal/dog_causal_ten.png"" class=""exp-image"">
                    <div class=""question-area"">
                        <p style=""font-size: 20px; font-weight: bold; margin: 0;"">Is there a person in this image?</p>
                    </div>
                </div>","0","main_experiment_trial","ten","dog_causal","causal_sequence","","","","",""
"","","","","","html-keyboard-response","58","415172","0.0-58.0","0F07CDB90B904FB79C385106E46337DE","019cf540-eb8d-74ae-82c5-c66974c07507","019cf509-e3f1-72d9-bf6b-e2f1118fdaab","","null","<div style=""background-color: white; width: 100vw; height: 100vh;""></div>","null","","","","","","","","",""
"","","","","","html-keyboard-response","59","420180","0.0-59.0","0F07CDB90B904FB79C385106E46337DE","019cf540-eb8d-74ae-82c5-c66974c07507","019cf509-e3f1-72d9-bf6b-e2f1118fdaab","","null","
                <div class=""stimulus-container"">
                    <img src=""images/causal_sequence/the_performance_causal/the_performance_causal_1.png"" class=""exp-image"">
                    <div class=""question-area""></div> 
                </div>","null","","","","","","","","",""
"","","","","","html-button-response","60","420862","0.0-60.0","0F07CDB90B904FB79C385106E46337DE","019cf540-eb8d-74ae-82c5-c66974c07507","019cf509-e3f1-72d9-bf6b-e2f1118fdaab","","681","
                <div class=""stimulus-container"">
                    <img src=""images/causal_sequence/the_performance_causal/the_performance_causal_1.png"" class=""exp-image"">
                    <div class=""question-area"">
                        <p style=""font-size: 20px; font-weight: bold; margin: 0;"">Is there a person in this image?</p>
                    </div>
                </div>","0","main_experiment_trial","1","the_performance_causal","causal_sequence","","","","",""
"","","","","","html-keyboard-response","61","425869","0.0-61.0","0F07CDB90B904FB79C385106E46337DE","019cf540-eb8d-74ae-82c5-c66974c07507","019cf509-e3f1-72d9-bf6b-e2f1118fdaab","","null","
                <div class=""stimulus-container"">
                    <img src=""images/causal_sequence/the_performance_causal/the_performance_causal_2.png"" class=""exp-image"">
                    <div class=""question-area""></div> 
                </div>","null","","","","","","","","",""
"","","","","","html-button-response","62","426430","0.0-62.0","0F07CDB90B904FB79C385106E46337DE","019cf540-eb8d-74ae-82c5-c66974c07507","019cf509-e3f1-72d9-bf6b-e2f1118fdaab","","560","
                <div class=""stimulus-container"">
                    <img src=""images/causal_sequence/the_performance_causal/the_performance_causal_2.png"" class=""exp-image"">
                    <div class=""question-area"">
                        <p style=""font-size: 20px; font-weight: bold; margin: 0;"">Is there a person in this image?</p>
                    </div>
                </div>","0","main_experiment_trial","2","the_performance_causal","causal_sequence","","","","",""
"","","","","","html-keyboard-response","63","431434","0.0-63.0","0F07CDB90B904FB79C385106E46337DE","019cf540-eb8d-74ae-82c5-c66974c07507","019cf509-e3f1-72d9-bf6b-e2f1118fdaab","","null","
                <div class=""stimulus-container"">
                    <img src=""images/causal_sequence/the_performance_causal/the_performance_causal_3.png"" class=""exp-image"">
                    <div class=""question-area""></div> 
                </div>","null","","","","","","","","",""
"","","","","","html-button-response","64","432038","0.0-64.0","0F07CDB90B904FB79C385106E46337DE","019cf540-eb8d-74ae-82c5-c66974c07507","019cf509-e3f1-72d9-bf6b-e2f1118fdaab","","603","
                <div class=""stimulus-container"">
                    <img src=""images/causal_sequence/the_performance_causal/the_performance_causal_3.png"" class=""exp-image"">
                    <div class=""question-area"">
                        <p style=""font-size: 20px; font-weight: bold; margin: 0;"">Is there a person in this image?</p>
                    </div>
                </div>","0","main_experiment_trial","3","the_performance_causal","causal_sequence","","","","",""
"","","","","","html-keyboard-response","65","437051","0.0-65.0","0F07CDB90B904FB79C385106E46337DE","019cf540-eb8d-74ae-82c5-c66974c07507","019cf509-e3f1-72d9-bf6b-e2f1118fdaab","","null","
                <div class=""stimulus-container"">
                    <img src=""images/causal_sequence/the_performance_causal/the_performance_causal_4.png"" class=""exp-image"">
                    <div class=""question-area""></div> 
                </div>","null","","","","","","","","",""
"","","","","","html-button-response","66","437766","0.0-66.0","0F07CDB90B904FB79C385106E46337DE","019cf540-eb8d-74ae-82c5-c66974c07507","019cf509-e3f1-72d9-bf6b-e2f1118fdaab","","714","
                <div class=""stimulus-container"">
                    <img src=""images/causal_sequence/the_performance_causal/the_performance_causal_4.png"" class=""exp-image"">
                    <div class=""question-area"">
                        <p style=""font-size: 20px; font-weight: bold; margin: 0;"">Is there a person in this image?</p>
                    </div>
                </div>","0","main_experiment_trial","4","the_performance_causal","causal_sequence","","","","",""
"","","","","","html-keyboard-response","67","442780","0.0-67.0","0F07CDB90B904FB79C385106E46337DE","019cf540-eb8d-74ae-82c5-c66974c07507","019cf509-e3f1-72d9-bf6b-e2f1118fdaab","","null","
                <div class=""stimulus-container"">
                    <img src=""images/causal_sequence/the_performance_causal/the_performance_causal_5.png"" class=""exp-image"">
                    <div class=""question-area""></div> 
                </div>","null","","","","","","","","",""
"","","","","","html-button-response","68","443398","0.0-68.0","0F07CDB90B904FB79C385106E46337DE","019cf540-eb8d-74ae-82c5-c66974c07507","019cf509-e3f1-72d9-bf6b-e2f1118fdaab","","617","
                <div class=""stimulus-container"">
                    <img src=""images/causal_sequence/the_performance_causal/the_performance_causal_5.png"" class=""exp-image"">
                    <div class=""question-area"">
                        <p style=""font-size: 20px; font-weight: bold; margin: 0;"">Is there a person in this image?</p>
                    </div>
                </div>","0","main_experiment_trial","5","the_performance_causal","causal_sequence","","","","",""
"","","","","","html-keyboard-response","69","448400","0.0-69.0","0F07CDB90B904FB79C385106E46337DE","019cf540-eb8d-74ae-82c5-c66974c07507","019cf509-e3f1-72d9-bf6b-e2f1118fdaab","","null","
                <div class=""stimulus-container"">
                    <img src=""images/causal_sequence/the_performance_causal/the_performance_causal_6.png"" class=""exp-image"">
                    <div class=""question-area""></div> 
                </div>","null","","","","","","","","",""
"","","","","","html-button-response","70","449038","0.0-70.0","0F07CDB90B904FB79C385106E46337DE","019cf540-eb8d-74ae-82c5-c66974c07507","019cf509-e3f1-72d9-bf6b-e2f1118fdaab","","637","
                <div class=""stimulus-container"">
                    <img src=""images/causal_sequence/the_performance_causal/the_performance_causal_6.png"" class=""exp-image"">
                    <div class=""question-area"">
                        <p style=""font-size: 20px; font-weight: bold; margin: 0;"">Is there a person in this image?</p>
                    </div>
                </div>","0","main_experiment_trial","6","the_performance_causal","causal_sequence","","","","",""
"","","","","","html-keyboard-response","71","454050","0.0-71.0","0F07CDB90B904FB79C385106E46337DE","019cf540-eb8d-74ae-82c5-c66974c07507","019cf509-e3f1-72d9-bf6b-e2f1118fdaab","","null","
                <div class=""stimulus-container"">
                    <img src=""images/causal_sequence/the_performance_causal/the_performance_causal_7.png"" class=""exp-image"">
                    <div class=""question-area""></div> 
                </div>","null","","","","","","","","",""
"","","","","","html-button-response","72","454645","0.0-72.0","0F07CDB90B904FB79C385106E46337DE","019cf540-eb8d-74ae-82c5-c66974c07507","019cf509-e3f1-72d9-bf6b-e2f1118fdaab","","595","
                <div class=""stimulus-container"">
                    <img src=""images/causal_sequence/the_performance_causal/the_performance_causal_7.png"" class=""exp-image"">
                    <div class=""question-area"">
                        <p style=""font-size: 20px; font-weight: bold; margin: 0;"">Is there a person in this image?</p>
                    </div>
                </div>","0","main_experiment_trial","7","the_performance_causal","causal_sequence","","","","",""
"","","","","","html-keyboard-response","73","459653","0.0-73.0","0F07CDB90B904FB79C385106E46337DE","019cf540-eb8d-74ae-82c5-c66974c07507","019cf509-e3f1-72d9-bf6b-e2f1118fdaab","","null","
                <div class=""stimulus-container"">
                    <img src=""images/causal_sequence/the_performance_causal/the_performance_causal_8.png"" class=""exp-image"">
                    <div class=""question-area""></div> 
                </div>","null","","","","","","","","",""
"","","","","","html-button-response","74","460357","0.0-74.0","0F07CDB90B904FB79C385106E46337DE","019cf540-eb8d-74ae-82c5-c66974c07507","019cf509-e3f1-72d9-bf6b-e2f1118fdaab","","704","
                <div class=""stimulus-container"">
                    <img src=""images/causal_sequence/the_performance_causal/the_performance_causal_8.png"" class=""exp-image"">
                    <div class=""question-area"">
                        <p style=""font-size: 20px; font-weight: bold; margin: 0;"">Is there a person in this image?</p>
                    </div>
                </div>","0","main_experiment_trial","8","the_performance_causal","causal_sequence","","","","",""
"","","","","","html-keyboard-response","75","465366","0.0-75.0","0F07CDB90B904FB79C385106E46337DE","019cf540-eb8d-74ae-82c5-c66974c07507","019cf509-e3f1-72d9-bf6b-e2f1118fdaab","","null","
                <div class=""stimulus-container"">
                    <img src=""images/causal_sequence/the_performance_causal/the_performance_causal_9.png"" class=""exp-image"">
                    <div class=""question-area""></div> 
                </div>","null","","","","","","","","",""
"","","","","","html-button-response","76","466253","0.0-76.0","0F07CDB90B904FB79C385106E46337DE","019cf540-eb8d-74ae-82c5-c66974c07507","019cf509-e3f1-72d9-bf6b-e2f1118fdaab","","886","
                <div class=""stimulus-container"">
                    <img src=""images/causal_sequence/the_performance_causal/the_performance_causal_9.png"" class=""exp-image"">
                    <div class=""question-area"">
                        <p style=""font-size: 20px; font-weight: bold; margin: 0;"">Is there a person in this image?</p>
                    </div>
                </div>","0","main_experiment_trial","9","the_performance_causal","causal_sequence","","","","",""
"","","","","","html-keyboard-response","77","471266","0.0-77.0","0F07CDB90B904FB79C385106E46337DE","019cf540-eb8d-74ae-82c5-c66974c07507","019cf509-e3f1-72d9-bf6b-e2f1118fdaab","","null","
                <div class=""stimulus-container"">
                    <img src=""images/causal_sequence/the_performance_causal/the_performance_causal_ten.png"" class=""exp-image"">
                    <div class=""question-area""></div> 
                </div>","null","","","","","","","","",""
"","","","","","html-button-response","78","471886","0.0-78.0","0F07CDB90B904FB79C385106E46337DE","019cf540-eb8d-74ae-82c5-c66974c07507","019cf509-e3f1-72d9-bf6b-e2f1118fdaab","","619","
                <div class=""stimulus-container"">
                    <img src=""images/causal_sequence/the_performance_causal/the_performance_causal_ten.png"" class=""exp-image"">
                    <div class=""question-area"">
                        <p style=""font-size: 20px; font-weight: bold; margin: 0;"">Is there a person in this image?</p>
                    </div>
                </div>","0","main_experiment_trial","ten","the_performance_causal","causal_sequence","","","","",""
"","","","","","html-keyboard-response","79","472893","0.0-79.0","0F07CDB90B904FB79C385106E46337DE","019cf540-eb8d-74ae-82c5-c66974c07507","019cf509-e3f1-72d9-bf6b-e2f1118fdaab","","null","<div style=""background-color: white; width: 100vw; height: 100vh;""></div>","null","","","","","","","","",""
"","","","","","html-keyboard-response","80","477902","0.0-80.0","0F07CDB90B904FB79C385106E46337DE","019cf540-eb8d-74ae-82c5-c66974c07507","019cf509-e3f1-72d9-bf6b-e2f1118fdaab","","null","
                <div class=""stimulus-container"">
                    <img src=""images/schematic_sequence/hotel_scheme/hotel_scheme_1.png"" class=""exp-image"">
                    <div class=""question-area""></div> 
                </div>","null","","","","","","","","",""
"","","","","","html-button-response","81","478453","0.0-81.0","0F07CDB90B904FB79C385106E46337DE","019cf540-eb8d-74ae-82c5-c66974c07507","019cf509-e3f1-72d9-bf6b-e2f1118fdaab","","550","
                <div class=""stimulus-container"">
                    <img src=""images/schematic_sequence/hotel_scheme/hotel_scheme_1.png"" class=""exp-image"">
                    <div class=""question-area"">
                        <p style=""font-size: 20px; font-weight: bold; margin: 0;"">Is there a person in this image?</p>
                    </div>
                </div>","1","main_experiment_trial","1","hotel_scheme","schematic_sequence","","","","",""
"","","","","","html-keyboard-response","82","483459","0.0-82.0","0F07CDB90B904FB79C385106E46337DE","019cf540-eb8d-74ae-82c5-c66974c07507","019cf509-e3f1-72d9-bf6b-e2f1118fdaab","","null","
                <div class=""stimulus-container"">
                    <img src=""images/schematic_sequence/hotel_scheme/hotel_scheme_2.png"" class=""exp-image"">
                    <div class=""question-area""></div> 
                </div>","null","","","","","","","","",""
"","","","","","html-button-response","83","484085","0.0-83.0","0F07CDB90B904FB79C385106E46337DE","019cf540-eb8d-74ae-82c5-c66974c07507","019cf509-e3f1-72d9-bf6b-e2f1118fdaab","","625","
                <div class=""stimulus-container"">
                    <img src=""images/schematic_sequence/hotel_scheme/hotel_scheme_2.png"" class=""exp-image"">
                    <div class=""question-area"">
                        <p style=""font-size: 20px; font-weight: bold; margin: 0;"">Is there a person in this image?</p>
                    </div>
                </div>","0","main_experiment_trial","2","hotel_scheme","schematic_sequence","","","","",""
"","","","","","html-keyboard-response","84","489086","0.0-84.0","0F07CDB90B904FB79C385106E46337DE","019cf540-eb8d-74ae-82c5-c66974c07507","019cf509-e3f1-72d9-bf6b-e2f1118fdaab","","null","
                <div class=""stimulus-container"">
                    <img src=""images/schematic_sequence/hotel_scheme/hotel_scheme_3.png"" class=""exp-image"">
                    <div class=""question-area""></div> 
                </div>","null","","","","","","","","",""
"","","","","","html-button-response","85","489581","0.0-85.0","0F07CDB90B904FB79C385106E46337DE","019cf540-eb8d-74ae-82c5-c66974c07507","019cf509-e3f1-72d9-bf6b-e2f1118fdaab","","494","
                <div class=""stimulus-container"">
                    <img src=""images/schematic_sequence/hotel_scheme/hotel_scheme_3.png"" class=""exp-image"">
                    <div class=""question-area"">
                        <p style=""font-size: 20px; font-weight: bold; margin: 0;"">Is there a person in this image?</p>
                    </div>
                </div>","0","main_experiment_trial","3","hotel_scheme","schematic_sequence","","","","",""
"","","","","","html-keyboard-response","86","494588","0.0-86.0","0F07CDB90B904FB79C385106E46337DE","019cf540-eb8d-74ae-82c5-c66974c07507","019cf509-e3f1-72d9-bf6b-e2f1118fdaab","","null","
                <div class=""stimulus-container"">
                    <img src=""images/schematic_sequence/hotel_scheme/hotel_scheme_4.png"" class=""exp-image"">
                    <div class=""question-area""></div> 
                </div>","null","","","","","","","","",""
"","","","","","html-button-response","87","495181","0.0-87.0","0F07CDB90B904FB79C385106E46337DE","019cf540-eb8d-74ae-82c5-c66974c07507","019cf509-e3f1-72d9-bf6b-e2f1118fdaab","","592","
                <div class=""stimulus-container"">
                    <img src=""images/schematic_sequence/hotel_scheme/hotel_scheme_4.png"" class=""exp-image"">
                    <div class=""question-area"">
                        <p style=""font-size: 20px; font-weight: bold; margin: 0;"">Is there a person in this image?</p>
                    </div>
                </div>","1","main_experiment_trial","4","hotel_scheme","schematic_sequence","","","","",""
"","","","","","html-keyboard-response","88","500187","0.0-88.0","0F07CDB90B904FB79C385106E46337DE","019cf540-eb8d-74ae-82c5-c66974c07507","019cf509-e3f1-72d9-bf6b-e2f1118fdaab","","null","
                <div class=""stimulus-container"">
                    <img src=""images/schematic_sequence/hotel_scheme/hotel_scheme_5.png"" class=""exp-image"">
                    <div class=""question-area""></div> 
                </div>","null","","","","","","","","",""
"","","","","","html-button-response","89","500949","0.0-89.0","0F07CDB90B904FB79C385106E46337DE","019cf540-eb8d-74ae-82c5-c66974c07507","019cf509-e3f1-72d9-bf6b-e2f1118fdaab","","761","
                <div class=""stimulus-container"">
                    <img src=""images/schematic_sequence/hotel_scheme/hotel_scheme_5.png"" class=""exp-image"">
                    <div class=""question-area"">
                        <p style=""font-size: 20px; font-weight: bold; margin: 0;"">Is there a person in this image?</p>
                    </div>
                </div>","0","main_experiment_trial","5","hotel_scheme","schematic_sequence","","","","",""
"","","","","","html-keyboard-response","90","505956","0.0-90.0","0F07CDB90B904FB79C385106E46337DE","019cf540-eb8d-74ae-82c5-c66974c07507","019cf509-e3f1-72d9-bf6b-e2f1118fdaab","","null","
                <div class=""stimulus-container"">
                    <img src=""images/schematic_sequence/hotel_scheme/hotel_scheme_6.png"" class=""exp-image"">
                    <div class=""question-area""></div> 
                </div>","null","","","","","","","","",""
"","","","","","html-button-response","91","506653","0.0-91.0","0F07CDB90B904FB79C385106E46337DE","019cf540-eb8d-74ae-82c5-c66974c07507","019cf509-e3f1-72d9-bf6b-e2f1118fdaab","","697","
                <div class=""stimulus-container"">
                    <img src=""images/schematic_sequence/hotel_scheme/hotel_scheme_6.png"" class=""exp-image"">
                    <div class=""question-area"">
                        <p style=""font-size: 20px; font-weight: bold; margin: 0;"">Is there a person in this image?</p>
                    </div>
                </div>","0","main_experiment_trial","6","hotel_scheme","schematic_sequence","","","","",""
"","","","","","html-keyboard-response","92","511663","0.0-92.0","0F07CDB90B904FB79C385106E46337DE","019cf540-eb8d-74ae-82c5-c66974c07507","019cf509-e3f1-72d9-bf6b-e2f1118fdaab","","null","
                <div class=""stimulus-container"">
                    <img src=""images/schematic_sequence/hotel_scheme/hotel_scheme_7.png"" class=""exp-image"">
                    <div class=""question-area""></div> 
                </div>","null","","","","","","","","",""
"","","","","","html-button-response","93","512285","0.0-93.0","0F07CDB90B904FB79C385106E46337DE","019cf540-eb8d-74ae-82c5-c66974c07507","019cf509-e3f1-72d9-bf6b-e2f1118fdaab","","621","
                <div class=""stimulus-container"">
                    <img src=""images/schematic_sequence/hotel_scheme/hotel_scheme_7.png"" class=""exp-image"">
                    <div class=""question-area"">
                        <p style=""font-size: 20px; font-weight: bold; margin: 0;"">Is there a person in this image?</p>
                    </div>
                </div>","0","main_experiment_trial","7","hotel_scheme","schematic_sequence","","","","",""
"","","","","","html-keyboard-response","94","517294","0.0-94.0","0F07CDB90B904FB79C385106E46337DE","019cf540-eb8d-74ae-82c5-c66974c07507","019cf509-e3f1-72d9-bf6b-e2f1118fdaab","","null","
                <div class=""stimulus-container"">
                    <img src=""images/schematic_sequence/hotel_scheme/hotel_scheme_8.png"" class=""exp-image"">
                    <div class=""question-area""></div> 
                </div>","null","","","","","","","","",""
"","","","","","html-button-response","95","517917","0.0-95.0","0F07CDB90B904FB79C385106E46337DE","019cf540-eb8d-74ae-82c5-c66974c07507","019cf509-e3f1-72d9-bf6b-e2f1118fdaab","","622","
                <div class=""stimulus-container"">
                    <img src=""images/schematic_sequence/hotel_scheme/hotel_scheme_8.png"" class=""exp-image"">
                    <div class=""question-area"">
                        <p style=""font-size: 20px; font-weight: bold; margin: 0;"">Is there a person in this image?</p>
                    </div>
                </div>","0","main_experiment_trial","8","hotel_scheme","schematic_sequence","","","","",""
"","","","","","html-keyboard-response","96","522928","0.0-96.0","0F07CDB90B904FB79C385106E46337DE","019cf540-eb8d-74ae-82c5-c66974c07507","019cf509-e3f1-72d9-bf6b-e2f1118fdaab","","null","
                <div class=""stimulus-container"">
                    <img src=""images/schematic_sequence/hotel_scheme/hotel_scheme_9.png"" class=""exp-image"">
                    <div class=""question-area""></div> 
                </div>","null","","","","","","","","",""
"","","","","","html-button-response","97","523477","0.0-97.0","0F07CDB90B904FB79C385106E46337DE","019cf540-eb8d-74ae-82c5-c66974c07507","019cf509-e3f1-72d9-bf6b-e2f1118fdaab","","548","
                <div class=""stimulus-container"">
                    <img src=""images/schematic_sequence/hotel_scheme/hotel_scheme_9.png"" class=""exp-image"">
                    <div class=""question-area"">
                        <p style=""font-size: 20px; font-weight: bold; margin: 0;"">Is there a person in this image?</p>
                    </div>
                </div>","0","main_experiment_trial","9","hotel_scheme","schematic_sequence","","","","",""
"","","","","","html-keyboard-response","98","528485","0.0-98.0","0F07CDB90B904FB79C385106E46337DE","019cf540-eb8d-74ae-82c5-c66974c07507","019cf509-e3f1-72d9-bf6b-e2f1118fdaab","","null","
                <div class=""stimulus-container"">
                    <img src=""images/schematic_sequence/hotel_scheme/hotel_scheme_ten.png"" class=""exp-image"">
                    <div class=""question-area""></div> 
                </div>","null","","","","","","","","",""
"","","","","","html-button-response","99","529589","0.0-99.0","0F07CDB90B904FB79C385106E46337DE","019cf540-eb8d-74ae-82c5-c66974c07507","019cf509-e3f1-72d9-bf6b-e2f1118fdaab","","1102","
                <div class=""stimulus-container"">
                    <img src=""images/schematic_sequence/hotel_scheme/hotel_scheme_ten.png"" class=""exp-image"">
                    <div class=""question-area"">
                        <p style=""font-size: 20px; font-weight: bold; margin: 0;"">Is there a person in this image?</p>
                    </div>
                </div>","0","main_experiment_trial","ten","hotel_scheme","schematic_sequence","","","","",""
"","","","","","html-keyboard-response","100","530604","0.0-100.0","0F07CDB90B904FB79C385106E46337DE","019cf540-eb8d-74ae-82c5-c66974c07507","019cf509-e3f1-72d9-bf6b-e2f1118fdaab","","null","<div style=""background-color: white; width: 100vw; height: 100vh;""></div>","null","","","","","","","","",""
"","","","","","html-keyboard-response","101","535620","0.0-101.0","0F07CDB90B904FB79C385106E46337DE","019cf540-eb8d-74ae-82c5-c66974c07507","019cf509-e3f1-72d9-bf6b-e2f1118fdaab","","null","
                <div class=""stimulus-container"">
                    <img src=""images/causal_sequence/saving_a_cat_causal/saving_a_cat_causal_1.png"" class=""exp-image"">
                    <div class=""question-area""></div> 
                </div>","null","","","","","","","","",""
"","","","","","html-button-response","102","536149","0.0-102.0","0F07CDB90B904FB79C385106E46337DE","019cf540-eb8d-74ae-82c5-c66974c07507","019cf509-e3f1-72d9-bf6b-e2f1118fdaab","","528","
                <div class=""stimulus-container"">
                    <img src=""images/causal_sequence/saving_a_cat_causal/saving_a_cat_causal_1.png"" class=""exp-image"">
                    <div class=""question-area"">
                        <p style=""font-size: 20px; font-weight: bold; margin: 0;"">Is there a person in this image?</p>
                    </div>
                </div>","0","main_experiment_trial","1","saving_a_cat_causal","causal_sequence","","","","",""
"","","","","","html-keyboard-response","103","541155","0.0-103.0","0F07CDB90B904FB79C385106E46337DE","019cf540-eb8d-74ae-82c5-c66974c07507","019cf509-e3f1-72d9-bf6b-e2f1118fdaab","","null","
                <div class=""stimulus-container"">
                    <img src=""images/causal_sequence/saving_a_cat_causal/saving_a_cat_causal_2.png"" class=""exp-image"">
                    <div class=""question-area""></div> 
                </div>","null","","","","","","","","",""
"","","","","","html-button-response","104","542053","0.0-104.0","0F07CDB90B904FB79C385106E46337DE","019cf540-eb8d-74ae-82c5-c66974c07507","019cf509-e3f1-72d9-bf6b-e2f1118fdaab","","897","
                <div class=""stimulus-container"">
                    <img src=""images/causal_sequence/saving_a_cat_causal/saving_a_cat_causal_2.png"" class=""exp-image"">
                    <div class=""question-area"">
                        <p style=""font-size: 20px; font-weight: bold; margin: 0;"">Is there a person in this image?</p>
                    </div>
                </div>","1","main_experiment_trial","2","saving_a_cat_causal","causal_sequence","","","","",""
"","","","","","html-keyboard-response","105","547060","0.0-105.0","0F07CDB90B904FB79C385106E46337DE","019cf540-eb8d-74ae-82c5-c66974c07507","019cf509-e3f1-72d9-bf6b-e2f1118fdaab","","null","
                <div class=""stimulus-container"">
                    <img src=""images/causal_sequence/saving_a_cat_causal/saving_a_cat_causal_3.png"" class=""exp-image"">
                    <div class=""question-area""></div> 
                </div>","null","","","","","","","","",""
"","","","","","html-button-response","106","547653","0.0-106.0","0F07CDB90B904FB79C385106E46337DE","019cf540-eb8d-74ae-82c5-c66974c07507","019cf509-e3f1-72d9-bf6b-e2f1118fdaab","","591","
                <div class=""stimulus-container"">
                    <img src=""images/causal_sequence/saving_a_cat_causal/saving_a_cat_causal_3.png"" class=""exp-image"">
                    <div class=""question-area"">
                        <p style=""font-size: 20px; font-weight: bold; margin: 0;"">Is there a person in this image?</p>
                    </div>
                </div>","1","main_experiment_trial","3","saving_a_cat_causal","causal_sequence","","","","",""
"","","","","","html-keyboard-response","107","552661","0.0-107.0","0F07CDB90B904FB79C385106E46337DE","019cf540-eb8d-74ae-82c5-c66974c07507","019cf509-e3f1-72d9-bf6b-e2f1118fdaab","","null","
                <div class=""stimulus-container"">
                    <img src=""images/causal_sequence/saving_a_cat_causal/saving_a_cat_causal_4.png"" class=""exp-image"">
                    <div class=""question-area""></div> 
                </div>","null","","","","","","","","",""
"","","","","","html-button-response","108","553380","0.0-108.0","0F07CDB90B904FB79C385106E46337DE","019cf540-eb8d-74ae-82c5-c66974c07507","019cf509-e3f1-72d9-bf6b-e2f1118fdaab","","718","
                <div class=""stimulus-container"">
                    <img src=""images/causal_sequence/saving_a_cat_causal/saving_a_cat_causal_4.png"" class=""exp-image"">
                    <div class=""question-area"">
                        <p style=""font-size: 20px; font-weight: bold; margin: 0;"">Is there a person in this image?</p>
                    </div>
                </div>","0","main_experiment_trial","4","saving_a_cat_causal","causal_sequence","","","","",""
"","","","","","html-keyboard-response","109","558390","0.0-109.0","0F07CDB90B904FB79C385106E46337DE","019cf540-eb8d-74ae-82c5-c66974c07507","019cf509-e3f1-72d9-bf6b-e2f1118fdaab","","null","
                <div class=""stimulus-container"">
                    <img src=""images/causal_sequence/saving_a_cat_causal/saving_a_cat_causal_5.png"" class=""exp-image"">
                    <div class=""question-area""></div> 
                </div>","null","","","","","","","","",""
"","","","","","html-button-response","110","559012","0.0-110.0","0F07CDB90B904FB79C385106E46337DE","019cf540-eb8d-74ae-82c5-c66974c07507","019cf509-e3f1-72d9-bf6b-e2f1118fdaab","","621","
                <div class=""stimulus-container"">
                    <img src=""images/causal_sequence/saving_a_cat_causal/saving_a_cat_causal_5.png"" class=""exp-image"">
                    <div class=""question-area"">
                        <p style=""font-size: 20px; font-weight: bold; margin: 0;"">Is there a person in this image?</p>
                    </div>
                </div>","0","main_experiment_trial","5","saving_a_cat_causal","causal_sequence","","","","",""
"","","","","","html-keyboard-response","111","564024","0.0-111.0","0F07CDB90B904FB79C385106E46337DE","019cf540-eb8d-74ae-82c5-c66974c07507","019cf509-e3f1-72d9-bf6b-e2f1118fdaab","","null","
                <div class=""stimulus-container"">
                    <img src=""images/causal_sequence/saving_a_cat_causal/saving_a_cat_causal_6.png"" class=""exp-image"">
                    <div class=""question-area""></div> 
                </div>","null","","","","","","","","",""
"","","","","","html-button-response","112","564524","0.0-112.0","0F07CDB90B904FB79C385106E46337DE","019cf540-eb8d-74ae-82c5-c66974c07507","019cf509-e3f1-72d9-bf6b-e2f1118fdaab","","500","
                <div class=""stimulus-container"">
                    <img src=""images/causal_sequence/saving_a_cat_causal/saving_a_cat_causal_6.png"" class=""exp-image"">
                    <div class=""question-area"">
                        <p style=""font-size: 20px; font-weight: bold; margin: 0;"">Is there a person in this image?</p>
                    </div>
                </div>","0","main_experiment_trial","6","saving_a_cat_causal","causal_sequence","","","","",""
"","","","","","html-keyboard-response","113","569538","0.0-113.0","0F07CDB90B904FB79C385106E46337DE","019cf540-eb8d-74ae-82c5-c66974c07507","019cf509-e3f1-72d9-bf6b-e2f1118fdaab","","null","
                <div class=""stimulus-container"">
                    <img src=""images/causal_sequence/saving_a_cat_causal/saving_a_cat_causal_7.png"" class=""exp-image"">
                    <div class=""question-area""></div> 
                </div>","null","","","","","","","","",""
"","","","","","html-button-response","114","569964","0.0-114.0","0F07CDB90B904FB79C385106E46337DE","019cf540-eb8d-74ae-82c5-c66974c07507","019cf509-e3f1-72d9-bf6b-e2f1118fdaab","","425","
                <div class=""stimulus-container"">
                    <img src=""images/causal_sequence/saving_a_cat_causal/saving_a_cat_causal_7.png"" class=""exp-image"">
                    <div class=""question-area"">
                        <p style=""font-size: 20px; font-weight: bold; margin: 0;"">Is there a person in this image?</p>
                    </div>
                </div>","0","main_experiment_trial","7","saving_a_cat_causal","causal_sequence","","","","",""
"","","","","","html-keyboard-response","115","574977","0.0-115.0","0F07CDB90B904FB79C385106E46337DE","019cf540-eb8d-74ae-82c5-c66974c07507","019cf509-e3f1-72d9-bf6b-e2f1118fdaab","","null","
                <div class=""stimulus-container"">
                    <img src=""images/causal_sequence/saving_a_cat_causal/saving_a_cat_causal_8.png"" class=""exp-image"">
                    <div class=""question-area""></div> 
                </div>","null","","","","","","","","",""
"","","","","","html-button-response","116","576092","0.0-116.0","0F07CDB90B904FB79C385106E46337DE","019cf540-eb8d-74ae-82c5-c66974c07507","019cf509-e3f1-72d9-bf6b-e2f1118fdaab","","1114","
                <div class=""stimulus-container"">
                    <img src=""images/causal_sequence/saving_a_cat_causal/saving_a_cat_causal_8.png"" class=""exp-image"">
                    <div class=""question-area"">
                        <p style=""font-size: 20px; font-weight: bold; margin: 0;"">Is there a person in this image?</p>
                    </div>
                </div>","0","main_experiment_trial","8","saving_a_cat_causal","causal_sequence","","","","",""
"","","","","","html-keyboard-response","117","581105","0.0-117.0","0F07CDB90B904FB79C385106E46337DE","019cf540-eb8d-74ae-82c5-c66974c07507","019cf509-e3f1-72d9-bf6b-e2f1118fdaab","","null","
                <div class=""stimulus-container"">
                    <img src=""images/causal_sequence/saving_a_cat_causal/saving_a_cat_causal_9.png"" class=""exp-image"">
                    <div class=""question-area""></div> 
                </div>","null","","","","","","","","",""
"","","","","","html-button-response","118","581588","0.0-118.0","0F07CDB90B904FB79C385106E46337DE","019cf540-eb8d-74ae-82c5-c66974c07507","019cf509-e3f1-72d9-bf6b-e2f1118fdaab","","482","
                <div class=""stimulus-container"">
                    <img src=""images/causal_sequence/saving_a_cat_causal/saving_a_cat_causal_9.png"" class=""exp-image"">
                    <div class=""question-area"">
                        <p style=""font-size: 20px; font-weight: bold; margin: 0;"">Is there a person in this image?</p>
                    </div>
                </div>","0","main_experiment_trial","9","saving_a_cat_causal","causal_sequence","","","","",""
"","","","","","html-keyboard-response","119","586604","0.0-119.0","0F07CDB90B904FB79C385106E46337DE","019cf540-eb8d-74ae-82c5-c66974c07507","019cf509-e3f1-72d9-bf6b-e2f1118fdaab","","null","
                <div class=""stimulus-container"">
                    <img src=""images/causal_sequence/saving_a_cat_causal/saving_a_cat_causal_ten.png"" class=""exp-image"">
                    <div class=""question-area""></div> 
                </div>","null","","","","","","","","",""
"","","","","","html-button-response","120","587236","0.0-120.0","0F07CDB90B904FB79C385106E46337DE","019cf540-eb8d-74ae-82c5-c66974c07507","019cf509-e3f1-72d9-bf6b-e2f1118fdaab","","631","
                <div class=""stimulus-container"">
                    <img src=""images/causal_sequence/saving_a_cat_causal/saving_a_cat_causal_ten.png"" class=""exp-image"">
                    <div class=""question-area"">
                        <p style=""font-size: 20px; font-weight: bold; margin: 0;"">Is there a person in this image?</p>
                    </div>
                </div>","0","main_experiment_trial","ten","saving_a_cat_causal","causal_sequence","","","","",""
"","","","","","html-keyboard-response","121","588247","0.0-121.0","0F07CDB90B904FB79C385106E46337DE","019cf540-eb8d-74ae-82c5-c66974c07507","019cf509-e3f1-72d9-bf6b-e2f1118fdaab","","null","<div style=""background-color: white; width: 100vw; height: 100vh;""></div>","null","","","","","","","","",""
"","","","","","html-keyboard-response","122","593255","0.0-122.0","0F07CDB90B904FB79C385106E46337DE","019cf540-eb8d-74ae-82c5-c66974c07507","019cf509-e3f1-72d9-bf6b-e2f1118fdaab","","null","
                <div class=""stimulus-container"">
                    <img src=""images/causal_sequence/museum_causal/museum_causal_1.png"" class=""exp-image"">
                    <div class=""question-area""></div> 
                </div>","null","","","","","","","","",""
"","","","","","html-button-response","123","593796","0.0-123.0","0F07CDB90B904FB79C385106E46337DE","019cf540-eb8d-74ae-82c5-c66974c07507","019cf509-e3f1-72d9-bf6b-e2f1118fdaab","","540","
                <div class=""stimulus-container"">
                    <img src=""images/causal_sequence/museum_causal/museum_causal_1.png"" class=""exp-image"">
                    <div class=""question-area"">
                        <p style=""font-size: 20px; font-weight: bold; margin: 0;"">Is there a person in this image?</p>
                    </div>
                </div>","0","main_experiment_trial","1","museum_causal","causal_sequence","","","","",""
"","","","","","html-keyboard-response","124","598810","0.0-124.0","0F07CDB90B904FB79C385106E46337DE","019cf540-eb8d-74ae-82c5-c66974c07507","019cf509-e3f1-72d9-bf6b-e2f1118fdaab","","null","
                <div class=""stimulus-container"">
                    <img src=""images/causal_sequence/museum_causal/museum_causal_2.png"" class=""exp-image"">
                    <div class=""question-area""></div> 
                </div>","null","","","","","","","","",""
"","","","","","html-button-response","125","599812","0.0-125.0","0F07CDB90B904FB79C385106E46337DE","019cf540-eb8d-74ae-82c5-c66974c07507","019cf509-e3f1-72d9-bf6b-e2f1118fdaab","","1001","
                <div class=""stimulus-container"">
                    <img src=""images/causal_sequence/museum_causal/museum_causal_2.png"" class=""exp-image"">
                    <div class=""question-area"">
                        <p style=""font-size: 20px; font-weight: bold; margin: 0;"">Is there a person in this image?</p>
                    </div>
                </div>","0","main_experiment_trial","2","museum_causal","causal_sequence","","","","",""
"","","","","","html-keyboard-response","126","604820","0.0-126.0","0F07CDB90B904FB79C385106E46337DE","019cf540-eb8d-74ae-82c5-c66974c07507","019cf509-e3f1-72d9-bf6b-e2f1118fdaab","","null","
                <div class=""stimulus-container"">
                    <img src=""images/causal_sequence/museum_causal/museum_causal_3.png"" class=""exp-image"">
                    <div class=""question-area""></div> 
                </div>","null","","","","","","","","",""
"","","","","","html-button-response","127","605284","0.0-127.0","0F07CDB90B904FB79C385106E46337DE","019cf540-eb8d-74ae-82c5-c66974c07507","019cf509-e3f1-72d9-bf6b-e2f1118fdaab","","463","
                <div class=""stimulus-container"">
                    <img src=""images/causal_sequence/museum_causal/museum_causal_3.png"" class=""exp-image"">
                    <div class=""question-area"">
                        <p style=""font-size: 20px; font-weight: bold; margin: 0;"">Is there a person in this image?</p>
                    </div>
                </div>","0","main_experiment_trial","3","museum_causal","causal_sequence","","","","",""
"","","","","","html-keyboard-response","128","610287","0.0-128.0","0F07CDB90B904FB79C385106E46337DE","019cf540-eb8d-74ae-82c5-c66974c07507","019cf509-e3f1-72d9-bf6b-e2f1118fdaab","","null","
                <div class=""stimulus-container"">
                    <img src=""images/causal_sequence/museum_causal/museum_causal_4.png"" class=""exp-image"">
                    <div class=""question-area""></div> 
                </div>","null","","","","","","","","",""
"","","","","","html-button-response","129","610836","0.0-129.0","0F07CDB90B904FB79C385106E46337DE","019cf540-eb8d-74ae-82c5-c66974c07507","019cf509-e3f1-72d9-bf6b-e2f1118fdaab","","547","
                <div class=""stimulus-container"">
                    <img src=""images/causal_sequence/museum_causal/museum_causal_4.png"" class=""exp-image"">
                    <div class=""question-area"">
                        <p style=""font-size: 20px; font-weight: bold; margin: 0;"">Is there a person in this image?</p>
                    </div>
                </div>","1","main_experiment_trial","4","museum_causal","causal_sequence","","","","",""
"","","","","","html-keyboard-response","130","615837","0.0-130.0","0F07CDB90B904FB79C385106E46337DE","019cf540-eb8d-74ae-82c5-c66974c07507","019cf509-e3f1-72d9-bf6b-e2f1118fdaab","","null","
                <div class=""stimulus-container"">
                    <img src=""images/causal_sequence/museum_causal/museum_causal_5.png"" class=""exp-image"">
                    <div class=""question-area""></div> 
                </div>","null","","","","","","","","",""
"","","","","","html-button-response","131","616516","0.0-131.0","0F07CDB90B904FB79C385106E46337DE","019cf540-eb8d-74ae-82c5-c66974c07507","019cf509-e3f1-72d9-bf6b-e2f1118fdaab","","678","
                <div class=""stimulus-container"">
                    <img src=""images/causal_sequence/museum_causal/museum_causal_5.png"" class=""exp-image"">
                    <div class=""question-area"">
                        <p style=""font-size: 20px; font-weight: bold; margin: 0;"">Is there a person in this image?</p>
                    </div>
                </div>","0","main_experiment_trial","5","museum_causal","causal_sequence","","","","",""
"","","","","","html-keyboard-response","132","621521","0.0-132.0","0F07CDB90B904FB79C385106E46337DE","019cf540-eb8d-74ae-82c5-c66974c07507","019cf509-e3f1-72d9-bf6b-e2f1118fdaab","","null","
                <div class=""stimulus-container"">
                    <img src=""images/causal_sequence/museum_causal/museum_causal_6.png"" class=""exp-image"">
                    <div class=""question-area""></div> 
                </div>","null","","","","","","","","",""
"","","","","","html-button-response","133","622100","0.0-133.0","0F07CDB90B904FB79C385106E46337DE","019cf540-eb8d-74ae-82c5-c66974c07507","019cf509-e3f1-72d9-bf6b-e2f1118fdaab","","578","
                <div class=""stimulus-container"">
                    <img src=""images/causal_sequence/museum_causal/museum_causal_6.png"" class=""exp-image"">
                    <div class=""question-area"">
                        <p style=""font-size: 20px; font-weight: bold; margin: 0;"">Is there a person in this image?</p>
                    </div>
                </div>","0","main_experiment_trial","6","museum_causal","causal_sequence","","","","",""
"","","","","","html-keyboard-response","134","627105","0.0-134.0","0F07CDB90B904FB79C385106E46337DE","019cf540-eb8d-74ae-82c5-c66974c07507","019cf509-e3f1-72d9-bf6b-e2f1118fdaab","","null","
                <div class=""stimulus-container"">
                    <img src=""images/causal_sequence/museum_causal/museum_causal_7.png"" class=""exp-image"">
                    <div class=""question-area""></div> 
                </div>","null","","","","","","","","",""
"","","","","","html-button-response","135","627980","0.0-135.0","0F07CDB90B904FB79C385106E46337DE","019cf540-eb8d-74ae-82c5-c66974c07507","019cf509-e3f1-72d9-bf6b-e2f1118fdaab","","874","
                <div class=""stimulus-container"">
                    <img src=""images/causal_sequence/museum_causal/museum_causal_7.png"" class=""exp-image"">
                    <div class=""question-area"">
                        <p style=""font-size: 20px; font-weight: bold; margin: 0;"">Is there a person in this image?</p>
                    </div>
                </div>","1","main_experiment_trial","7","museum_causal","causal_sequence","","","","",""
"","","","","","html-keyboard-response","136","632981","0.0-136.0","0F07CDB90B904FB79C385106E46337DE","019cf540-eb8d-74ae-82c5-c66974c07507","019cf509-e3f1-72d9-bf6b-e2f1118fdaab","","null","
                <div class=""stimulus-container"">
                    <img src=""images/causal_sequence/museum_causal/museum_causal_8.png"" class=""exp-image"">
                    <div class=""question-area""></div> 
                </div>","null","","","","","","","","",""
"","","","","","html-button-response","137","633644","0.0-137.0","0F07CDB90B904FB79C385106E46337DE","019cf540-eb8d-74ae-82c5-c66974c07507","019cf509-e3f1-72d9-bf6b-e2f1118fdaab","","662","
                <div class=""stimulus-container"">
                    <img src=""images/causal_sequence/museum_causal/museum_causal_8.png"" class=""exp-image"">
                    <div class=""question-area"">
                        <p style=""font-size: 20px; font-weight: bold; margin: 0;"">Is there a person in this image?</p>
                    </div>
                </div>","0","main_experiment_trial","8","museum_causal","causal_sequence","","","","",""
"","","","","","html-keyboard-response","138","638646","0.0-138.0","0F07CDB90B904FB79C385106E46337DE","019cf540-eb8d-74ae-82c5-c66974c07507","019cf509-e3f1-72d9-bf6b-e2f1118fdaab","","null","
                <div class=""stimulus-container"">
                    <img src=""images/causal_sequence/museum_causal/museum_causal_9.png"" class=""exp-image"">
                    <div class=""question-area""></div> 
                </div>","null","","","","","","","","",""
"","","","","","html-button-response","139","639179","0.0-139.0","0F07CDB90B904FB79C385106E46337DE","019cf540-eb8d-74ae-82c5-c66974c07507","019cf509-e3f1-72d9-bf6b-e2f1118fdaab","","532","
                <div class=""stimulus-container"">
                    <img src=""images/causal_sequence/museum_causal/museum_causal_9.png"" class=""exp-image"">
                    <div class=""question-area"">
                        <p style=""font-size: 20px; font-weight: bold; margin: 0;"">Is there a person in this image?</p>
                    </div>
                </div>","1","main_experiment_trial","9","museum_causal","causal_sequence","","","","",""
"","","","","","html-keyboard-response","140","644193","0.0-140.0","0F07CDB90B904FB79C385106E46337DE","019cf540-eb8d-74ae-82c5-c66974c07507","019cf509-e3f1-72d9-bf6b-e2f1118fdaab","","null","
                <div class=""stimulus-container"">
                    <img src=""images/causal_sequence/museum_causal/museum_causal_ten.png"" class=""exp-image"">
                    <div class=""question-area""></div> 
                </div>","null","","","","","","","","",""
"","","","","","html-button-response","141","644787","0.0-141.0","0F07CDB90B904FB79C385106E46337DE","019cf540-eb8d-74ae-82c5-c66974c07507","019cf509-e3f1-72d9-bf6b-e2f1118fdaab","","594","
                <div class=""stimulus-container"">
                    <img src=""images/causal_sequence/museum_causal/museum_causal_ten.png"" class=""exp-image"">
                    <div class=""question-area"">
                        <p style=""font-size: 20px; font-weight: bold; margin: 0;"">Is there a person in this image?</p>
                    </div>
                </div>","0","main_experiment_trial","ten","museum_causal","causal_sequence","","","","",""
"","","","","","html-keyboard-response","142","645788","0.0-142.0","0F07CDB90B904FB79C385106E46337DE","019cf540-eb8d-74ae-82c5-c66974c07507","019cf509-e3f1-72d9-bf6b-e2f1118fdaab","","null","<div style=""background-color: white; width: 100vw; height: 100vh;""></div>","null","","","","","","","","",""
"","","","","","html-keyboard-response","143","650803","0.0-143.0","0F07CDB90B904FB79C385106E46337DE","019cf540-eb8d-74ae-82c5-c66974c07507","019cf509-e3f1-72d9-bf6b-e2f1118fdaab","","null","
                <div class=""stimulus-container"">
                    <img src=""images/causal_sequence/coin_causal/coin_causal_1.png"" class=""exp-image"">
                    <div class=""question-area""></div> 
                </div>","null","","","","","","","","",""
"","","","","","html-button-response","144","651284","0.0-144.0","0F07CDB90B904FB79C385106E46337DE","019cf540-eb8d-74ae-82c5-c66974c07507","019cf509-e3f1-72d9-bf6b-e2f1118fdaab","","479","
                <div class=""stimulus-container"">
                    <img src=""images/causal_sequence/coin_causal/coin_causal_1.png"" class=""exp-image"">
                    <div class=""question-area"">
                        <p style=""font-size: 20px; font-weight: bold; margin: 0;"">Is there a person in this image?</p>
                    </div>
                </div>","0","main_experiment_trial","1","coin_causal","causal_sequence","","","","",""
"","","","","","html-keyboard-response","145","656289","0.0-145.0","0F07CDB90B904FB79C385106E46337DE","019cf540-eb8d-74ae-82c5-c66974c07507","019cf509-e3f1-72d9-bf6b-e2f1118fdaab","","null","
                <div class=""stimulus-container"">
                    <img src=""images/causal_sequence/coin_causal/coin_causal_2.png"" class=""exp-image"">
                    <div class=""question-area""></div> 
                </div>","null","","","","","","","","",""
"","","","","","html-button-response","146","656876","0.0-146.0","0F07CDB90B904FB79C385106E46337DE","019cf540-eb8d-74ae-82c5-c66974c07507","019cf509-e3f1-72d9-bf6b-e2f1118fdaab","","586","
                <div class=""stimulus-container"">
                    <img src=""images/causal_sequence/coin_causal/coin_causal_2.png"" class=""exp-image"">
                    <div class=""question-area"">
                        <p style=""font-size: 20px; font-weight: bold; margin: 0;"">Is there a person in this image?</p>
                    </div>
                </div>","0","main_experiment_trial","2","coin_causal","causal_sequence","","","","",""
"","","","","","html-keyboard-response","147","661892","0.0-147.0","0F07CDB90B904FB79C385106E46337DE","019cf540-eb8d-74ae-82c5-c66974c07507","019cf509-e3f1-72d9-bf6b-e2f1118fdaab","","null","
                <div class=""stimulus-container"">
                    <img src=""images/causal_sequence/coin_causal/coin_causal_3.png"" class=""exp-image"">
                    <div class=""question-area""></div> 
                </div>","null","","","","","","","","",""
"","","","","","html-button-response","148","662356","0.0-148.0","0F07CDB90B904FB79C385106E46337DE","019cf540-eb8d-74ae-82c5-c66974c07507","019cf509-e3f1-72d9-bf6b-e2f1118fdaab","","463","
                <div class=""stimulus-container"">
                    <img src=""images/causal_sequence/coin_causal/coin_causal_3.png"" class=""exp-image"">
                    <div class=""question-area"">
                        <p style=""font-size: 20px; font-weight: bold; margin: 0;"">Is there a person in this image?</p>
                    </div>
                </div>","0","main_experiment_trial","3","coin_causal","causal_sequence","","","","",""
"","","","","","html-keyboard-response","149","667370","0.0-149.0","0F07CDB90B904FB79C385106E46337DE","019cf540-eb8d-74ae-82c5-c66974c07507","019cf509-e3f1-72d9-bf6b-e2f1118fdaab","","null","
                <div class=""stimulus-container"">
                    <img src=""images/causal_sequence/coin_causal/coin_causal_4.png"" class=""exp-image"">
                    <div class=""question-area""></div> 
                </div>","null","","","","","","","","",""
"","","","","","html-button-response","150","667811","0.0-150.0","0F07CDB90B904FB79C385106E46337DE","019cf540-eb8d-74ae-82c5-c66974c07507","019cf509-e3f1-72d9-bf6b-e2f1118fdaab","","440","
                <div class=""stimulus-container"">
                    <img src=""images/causal_sequence/coin_causal/coin_causal_4.png"" class=""exp-image"">
                    <div class=""question-area"">
                        <p style=""font-size: 20px; font-weight: bold; margin: 0;"">Is there a person in this image?</p>
                    </div>
                </div>","0","main_experiment_trial","4","coin_causal","causal_sequence","","","","",""
"","","","","","html-keyboard-response","151","672815","0.0-151.0","0F07CDB90B904FB79C385106E46337DE","019cf540-eb8d-74ae-82c5-c66974c07507","019cf509-e3f1-72d9-bf6b-e2f1118fdaab","","null","
                <div class=""stimulus-container"">
                    <img src=""images/causal_sequence/coin_causal/coin_causal_5.png"" class=""exp-image"">
                    <div class=""question-area""></div> 
                </div>","null","","","","","","","","",""
"","","","","","html-button-response","152","673347","0.0-152.0","0F07CDB90B904FB79C385106E46337DE","019cf540-eb8d-74ae-82c5-c66974c07507","019cf509-e3f1-72d9-bf6b-e2f1118fdaab","","531","
                <div class=""stimulus-container"">
                    <img src=""images/causal_sequence/coin_causal/coin_causal_5.png"" class=""exp-image"">
                    <div class=""question-area"">
                        <p style=""font-size: 20px; font-weight: bold; margin: 0;"">Is there a person in this image?</p>
                    </div>
                </div>","0","main_experiment_trial","5","coin_causal","causal_sequence","","","","",""
"","","","","","html-keyboard-response","153","678355","0.0-153.0","0F07CDB90B904FB79C385106E46337DE","019cf540-eb8d-74ae-82c5-c66974c07507","019cf509-e3f1-72d9-bf6b-e2f1118fdaab","","null","
                <div class=""stimulus-container"">
                    <img src=""images/causal_sequence/coin_causal/coin_causal_6.png"" class=""exp-image"">
                    <div class=""question-area""></div> 
                </div>","null","","","","","","","","",""
"","","","","","html-button-response","154","679011","0.0-154.0","0F07CDB90B904FB79C385106E46337DE","019cf540-eb8d-74ae-82c5-c66974c07507","019cf509-e3f1-72d9-bf6b-e2f1118fdaab","","654","
                <div class=""stimulus-container"">
                    <img src=""images/causal_sequence/coin_causal/coin_causal_6.png"" class=""exp-image"">
                    <div class=""question-area"">
                        <p style=""font-size: 20px; font-weight: bold; margin: 0;"">Is there a person in this image?</p>
                    </div>
                </div>","0","main_experiment_trial","6","coin_causal","causal_sequence","","","","",""
"","","","","","html-keyboard-response","155","684018","0.0-155.0","0F07CDB90B904FB79C385106E46337DE","019cf540-eb8d-74ae-82c5-c66974c07507","019cf509-e3f1-72d9-bf6b-e2f1118fdaab","","null","
                <div class=""stimulus-container"">
                    <img src=""images/causal_sequence/coin_causal/coin_causal_7.png"" class=""exp-image"">
                    <div class=""question-area""></div> 
                </div>","null","","","","","","","","",""
"","","","","","html-button-response","156","684531","0.0-156.0","0F07CDB90B904FB79C385106E46337DE","019cf540-eb8d-74ae-82c5-c66974c07507","019cf509-e3f1-72d9-bf6b-e2f1118fdaab","","512","
                <div class=""stimulus-container"">
                    <img src=""images/causal_sequence/coin_causal/coin_causal_7.png"" class=""exp-image"">
                    <div class=""question-area"">
                        <p style=""font-size: 20px; font-weight: bold; margin: 0;"">Is there a person in this image?</p>
                    </div>
                </div>","1","main_experiment_trial","7","coin_causal","causal_sequence","","","","",""
"","","","","","html-keyboard-response","157","689536","0.0-157.0","0F07CDB90B904FB79C385106E46337DE","019cf540-eb8d-74ae-82c5-c66974c07507","019cf509-e3f1-72d9-bf6b-e2f1118fdaab","","null","
                <div class=""stimulus-container"">
                    <img src=""images/causal_sequence/coin_causal/coin_causal_8.png"" class=""exp-image"">
                    <div class=""question-area""></div> 
                </div>","null","","","","","","","","",""
"","","","","","html-button-response","158","690475","0.0-158.0","0F07CDB90B904FB79C385106E46337DE","019cf540-eb8d-74ae-82c5-c66974c07507","019cf509-e3f1-72d9-bf6b-e2f1118fdaab","","937","
                <div class=""stimulus-container"">
                    <img src=""images/causal_sequence/coin_causal/coin_causal_8.png"" class=""exp-image"">
                    <div class=""question-area"">
                        <p style=""font-size: 20px; font-weight: bold; margin: 0;"">Is there a person in this image?</p>
                    </div>
                </div>","0","main_experiment_trial","8","coin_causal","causal_sequence","","","","",""
"","","","","","html-keyboard-response","159","695485","0.0-159.0","0F07CDB90B904FB79C385106E46337DE","019cf540-eb8d-74ae-82c5-c66974c07507","019cf509-e3f1-72d9-bf6b-e2f1118fdaab","","null","
                <div class=""stimulus-container"">
                    <img src=""images/causal_sequence/coin_causal/coin_causal_9.png"" class=""exp-image"">
                    <div class=""question-area""></div> 
                </div>","null","","","","","","","","",""
"","","","","","html-button-response","160","696139","0.0-160.0","0F07CDB90B904FB79C385106E46337DE","019cf540-eb8d-74ae-82c5-c66974c07507","019cf509-e3f1-72d9-bf6b-e2f1118fdaab","","652","
                <div class=""stimulus-container"">
                    <img src=""images/causal_sequence/coin_causal/coin_causal_9.png"" class=""exp-image"">
                    <div class=""question-area"">
                        <p style=""font-size: 20px; font-weight: bold; margin: 0;"">Is there a person in this image?</p>
                    </div>
                </div>","0","main_experiment_trial","9","coin_causal","causal_sequence","","","","",""
"","","","","","html-keyboard-response","161","701143","0.0-161.0","0F07CDB90B904FB79C385106E46337DE","019cf540-eb8d-74ae-82c5-c66974c07507","019cf509-e3f1-72d9-bf6b-e2f1118fdaab","","null","
                <div class=""stimulus-container"">
                    <img src=""images/causal_sequence/coin_causal/coin_causal_ten.png"" class=""exp-image"">
                    <div class=""question-area""></div> 
                </div>","null","","","","","","","","",""
"","","","","","html-button-response","162","701707","0.0-162.0","0F07CDB90B904FB79C385106E46337DE","019cf540-eb8d-74ae-82c5-c66974c07507","019cf509-e3f1-72d9-bf6b-e2f1118fdaab","","563","
                <div class=""stimulus-container"">
                    <img src=""images/causal_sequence/coin_causal/coin_causal_ten.png"" class=""exp-image"">
                    <div class=""question-area"">
                        <p style=""font-size: 20px; font-weight: bold; margin: 0;"">Is there a person in this image?</p>
                    </div>
                </div>","0","main_experiment_trial","ten","coin_causal","causal_sequence","","","","",""
"","","","","","html-keyboard-response","163","702723","0.0-163.0","0F07CDB90B904FB79C385106E46337DE","019cf540-eb8d-74ae-82c5-c66974c07507","019cf509-e3f1-72d9-bf6b-e2f1118fdaab","","null","<div style=""background-color: white; width: 100vw; height: 100vh;""></div>","null","","","","","","","","",""
"","","","","","html-keyboard-response","164","707732","0.0-164.0","0F07CDB90B904FB79C385106E46337DE","019cf540-eb8d-74ae-82c5-c66974c07507","019cf509-e3f1-72d9-bf6b-e2f1118fdaab","","null","
                <div class=""stimulus-container"">
                    <img src=""images/schematic_sequence/restaurant_scheme/restaurant_scheme_1.png"" class=""exp-image"">
                    <div class=""question-area""></div> 
                </div>","null","","","","","","","","",""
"","","","","","html-button-response","165","708163","0.0-165.0","0F07CDB90B904FB79C385106E46337DE","019cf540-eb8d-74ae-82c5-c66974c07507","019cf509-e3f1-72d9-bf6b-e2f1118fdaab","","430","
                <div class=""stimulus-container"">
                    <img src=""images/schematic_sequence/restaurant_scheme/restaurant_scheme_1.png"" class=""exp-image"">
                    <div class=""question-area"">
                        <p style=""font-size: 20px; font-weight: bold; margin: 0;"">Is there a person in this image?</p>
                    </div>
                </div>","0","main_experiment_trial","1","restaurant_scheme","schematic_sequence","","","","",""
"","","","","","html-keyboard-response","166","713169","0.0-166.0","0F07CDB90B904FB79C385106E46337DE","019cf540-eb8d-74ae-82c5-c66974c07507","019cf509-e3f1-72d9-bf6b-e2f1118fdaab","","null","
                <div class=""stimulus-container"">
                    <img src=""images/schematic_sequence/restaurant_scheme/restaurant_scheme_2.png"" class=""exp-image"">
                    <div class=""question-area""></div> 
                </div>","null","","","","","","","","",""
"","","","","","html-button-response","167","713859","0.0-167.0","0F07CDB90B904FB79C385106E46337DE","019cf540-eb8d-74ae-82c5-c66974c07507","019cf509-e3f1-72d9-bf6b-e2f1118fdaab","","688","
                <div class=""stimulus-container"">
                    <img src=""images/schematic_sequence/restaurant_scheme/restaurant_scheme_2.png"" class=""exp-image"">
                    <div class=""question-area"">
                        <p style=""font-size: 20px; font-weight: bold; margin: 0;"">Is there a person in this image?</p>
                    </div>
                </div>","1","main_experiment_trial","2","restaurant_scheme","schematic_sequence","","","","",""
"","","","","","html-keyboard-response","168","718874","0.0-168.0","0F07CDB90B904FB79C385106E46337DE","019cf540-eb8d-74ae-82c5-c66974c07507","019cf509-e3f1-72d9-bf6b-e2f1118fdaab","","null","
                <div class=""stimulus-container"">
                    <img src=""images/schematic_sequence/restaurant_scheme/restaurant_scheme_3.png"" class=""exp-image"">
                    <div class=""question-area""></div> 
                </div>","null","","","","","","","","",""
"","","","","","html-button-response","169","719530","0.0-169.0","0F07CDB90B904FB79C385106E46337DE","019cf540-eb8d-74ae-82c5-c66974c07507","019cf509-e3f1-72d9-bf6b-e2f1118fdaab","","656","
                <div class=""stimulus-container"">
                    <img src=""images/schematic_sequence/restaurant_scheme/restaurant_scheme_3.png"" class=""exp-image"">
                    <div class=""question-area"">
                        <p style=""font-size: 20px; font-weight: bold; margin: 0;"">Is there a person in this image?</p>
                    </div>
                </div>","1","main_experiment_trial","3","restaurant_scheme","schematic_sequence","","","","",""
"","","","","","html-keyboard-response","170","724536","0.0-170.0","0F07CDB90B904FB79C385106E46337DE","019cf540-eb8d-74ae-82c5-c66974c07507","019cf509-e3f1-72d9-bf6b-e2f1118fdaab","","null","
                <div class=""stimulus-container"">
                    <img src=""images/schematic_sequence/restaurant_scheme/restaurant_scheme_4.png"" class=""exp-image"">
                    <div class=""question-area""></div> 
                </div>","null","","","","","","","","",""
"","","","","","html-button-response","171","725026","0.0-171.0","0F07CDB90B904FB79C385106E46337DE","019cf540-eb8d-74ae-82c5-c66974c07507","019cf509-e3f1-72d9-bf6b-e2f1118fdaab","","489","
                <div class=""stimulus-container"">
                    <img src=""images/schematic_sequence/restaurant_scheme/restaurant_scheme_4.png"" class=""exp-image"">
                    <div class=""question-area"">
                        <p style=""font-size: 20px; font-weight: bold; margin: 0;"">Is there a person in this image?</p>
                    </div>
                </div>","0","main_experiment_trial","4","restaurant_scheme","schematic_sequence","","","","",""
"","","","","","html-keyboard-response","172","730031","0.0-172.0","0F07CDB90B904FB79C385106E46337DE","019cf540-eb8d-74ae-82c5-c66974c07507","019cf509-e3f1-72d9-bf6b-e2f1118fdaab","","null","
                <div class=""stimulus-container"">
                    <img src=""images/schematic_sequence/restaurant_scheme/restaurant_scheme_5.png"" class=""exp-image"">
                    <div class=""question-area""></div> 
                </div>","null","","","","","","","","",""
"","","","","","html-button-response","173","730539","0.0-173.0","0F07CDB90B904FB79C385106E46337DE","019cf540-eb8d-74ae-82c5-c66974c07507","019cf509-e3f1-72d9-bf6b-e2f1118fdaab","","507","
                <div class=""stimulus-container"">
                    <img src=""images/schematic_sequence/restaurant_scheme/restaurant_scheme_5.png"" class=""exp-image"">
                    <div class=""question-area"">
                        <p style=""font-size: 20px; font-weight: bold; margin: 0;"">Is there a person in this image?</p>
                    </div>
                </div>","0","main_experiment_trial","5","restaurant_scheme","schematic_sequence","","","","",""
"","","","","","html-keyboard-response","174","735551","0.0-174.0","0F07CDB90B904FB79C385106E46337DE","019cf540-eb8d-74ae-82c5-c66974c07507","019cf509-e3f1-72d9-bf6b-e2f1118fdaab","","null","
                <div class=""stimulus-container"">
                    <img src=""images/schematic_sequence/restaurant_scheme/restaurant_scheme_6.png"" class=""exp-image"">
                    <div class=""question-area""></div> 
                </div>","null","","","","","","","","",""
"","","","","","html-button-response","175","736155","0.0-175.0","0F07CDB90B904FB79C385106E46337DE","019cf540-eb8d-74ae-82c5-c66974c07507","019cf509-e3f1-72d9-bf6b-e2f1118fdaab","","603","
                <div class=""stimulus-container"">
                    <img src=""images/schematic_sequence/restaurant_scheme/restaurant_scheme_6.png"" class=""exp-image"">
                    <div class=""question-area"">
                        <p style=""font-size: 20px; font-weight: bold; margin: 0;"">Is there a person in this image?</p>
                    </div>
                </div>","1","main_experiment_trial","6","restaurant_scheme","schematic_sequence","","","","",""
"","","","","","html-keyboard-response","176","741161","0.0-176.0","0F07CDB90B904FB79C385106E46337DE","019cf540-eb8d-74ae-82c5-c66974c07507","019cf509-e3f1-72d9-bf6b-e2f1118fdaab","","null","
                <div class=""stimulus-container"">
                    <img src=""images/schematic_sequence/restaurant_scheme/restaurant_scheme_7.png"" class=""exp-image"">
                    <div class=""question-area""></div> 
                </div>","null","","","","","","","","",""
"","","","","","html-button-response","177","741787","0.0-177.0","0F07CDB90B904FB79C385106E46337DE","019cf540-eb8d-74ae-82c5-c66974c07507","019cf509-e3f1-72d9-bf6b-e2f1118fdaab","","625","
                <div class=""stimulus-container"">
                    <img src=""images/schematic_sequence/restaurant_scheme/restaurant_scheme_7.png"" class=""exp-image"">
                    <div class=""question-area"">
                        <p style=""font-size: 20px; font-weight: bold; margin: 0;"">Is there a person in this image?</p>
                    </div>
                </div>","1","main_experiment_trial","7","restaurant_scheme","schematic_sequence","","","","",""
"","","","","","html-keyboard-response","178","746796","0.0-178.0","0F07CDB90B904FB79C385106E46337DE","019cf540-eb8d-74ae-82c5-c66974c07507","019cf509-e3f1-72d9-bf6b-e2f1118fdaab","","null","
                <div class=""stimulus-container"">
                    <img src=""images/schematic_sequence/restaurant_scheme/restaurant_scheme_8.png"" class=""exp-image"">
                    <div class=""question-area""></div> 
                </div>","null","","","","","","","","",""
"","","","","","html-button-response","179","747275","0.0-179.0","0F07CDB90B904FB79C385106E46337DE","019cf540-eb8d-74ae-82c5-c66974c07507","019cf509-e3f1-72d9-bf6b-e2f1118fdaab","","478","
                <div class=""stimulus-container"">
                    <img src=""images/schematic_sequence/restaurant_scheme/restaurant_scheme_8.png"" class=""exp-image"">
                    <div class=""question-area"">
                        <p style=""font-size: 20px; font-weight: bold; margin: 0;"">Is there a person in this image?</p>
                    </div>
                </div>","0","main_experiment_trial","8","restaurant_scheme","schematic_sequence","","","","",""
"","","","","","html-keyboard-response","180","752284","0.0-180.0","0F07CDB90B904FB79C385106E46337DE","019cf540-eb8d-74ae-82c5-c66974c07507","019cf509-e3f1-72d9-bf6b-e2f1118fdaab","","null","
                <div class=""stimulus-container"">
                    <img src=""images/schematic_sequence/restaurant_scheme/restaurant_scheme_9.png"" class=""exp-image"">
                    <div class=""question-area""></div> 
                </div>","null","","","","","","","","",""
"","","","","","html-button-response","181","752738","0.0-181.0","0F07CDB90B904FB79C385106E46337DE","019cf540-eb8d-74ae-82c5-c66974c07507","019cf509-e3f1-72d9-bf6b-e2f1118fdaab","","453","
                <div class=""stimulus-container"">
                    <img src=""images/schematic_sequence/restaurant_scheme/restaurant_scheme_9.png"" class=""exp-image"">
                    <div class=""question-area"">
                        <p style=""font-size: 20px; font-weight: bold; margin: 0;"">Is there a person in this image?</p>
                    </div>
                </div>","0","main_experiment_trial","9","restaurant_scheme","schematic_sequence","","","","",""
"","","","","","html-keyboard-response","182","757748","0.0-182.0","0F07CDB90B904FB79C385106E46337DE","019cf540-eb8d-74ae-82c5-c66974c07507","019cf509-e3f1-72d9-bf6b-e2f1118fdaab","","null","
                <div class=""stimulus-container"">
                    <img src=""images/schematic_sequence/restaurant_scheme/restaurant_scheme_ten.png"" class=""exp-image"">
                    <div class=""question-area""></div> 
                </div>","null","","","","","","","","",""
"","","","","","html-button-response","183","758210","0.0-183.0","0F07CDB90B904FB79C385106E46337DE","019cf540-eb8d-74ae-82c5-c66974c07507","019cf509-e3f1-72d9-bf6b-e2f1118fdaab","","461","
                <div class=""stimulus-container"">
                    <img src=""images/schematic_sequence/restaurant_scheme/restaurant_scheme_ten.png"" class=""exp-image"">
                    <div class=""question-area"">
                        <p style=""font-size: 20px; font-weight: bold; margin: 0;"">Is there a person in this image?</p>
                    </div>
                </div>","0","main_experiment_trial","ten","restaurant_scheme","schematic_sequence","","","","",""
