"success","timeout","failed_images","failed_audio","failed_video","trial_type","trial_index","time_elapsed","internal_node_id","view_history","rt","stimulus","response","task","folder","sequence_type","img_idx","value","version","comparison_type","block_story","block_info","left_path","right_path"
"true","false","[]","[]","[]","preload","0","1007","0.0-0.0","","","","","","","","","","","","","","",""
"","","","","","instructions","1","2482","0.0-1.0","[{""page_index"":0,""viewing_time"":1475}]","1475","","","","","","","","","","","","",""
"","","","","","instructions","2","5298","0.0-2.0","[{""page_index"":0,""viewing_time"":2816}]","2816","","","","","","","","","","","","",""
"true","","","","","fullscreen","3","8067","0.0-3.0","","1766","","","","","","","","","","","","",""
"","","","","","instructions","4","11649","0.0-4.0","[{""page_index"":0,""viewing_time"":3581}]","3582","","","","","","","","","","","","",""
"","","","","","html-keyboard-response","5","13651","0.0-5.0","","null","<div class=""transition-square""></div>","null","","","","","","","","","","",""
"","","","","","html-keyboard-response","6","18652","0.0-6.0","","null","<div class=""stimulus-container""><img src=""images_story_vs_info/story_3_1.png"" class=""exp-image""><div class=""question-area""></div></div>","null","","","","","","","","","","",""
"","","","","","html-button-response","7","20429","0.0-7.0","","1776","<div class=""stimulus-container""><img src=""images_story_vs_info/story_3_1.png"" class=""exp-image""><div class=""question-area""><p style=""font-size: 20px; font-weight: bold; margin: 0;"">Is there a person in the description or image?</p></div></div>","1","observation","story_3","story","1","","","","","","",""
"","","","","","html-keyboard-response","8","25430","0.0-8.0","","null","<div class=""stimulus-container""><img src=""images_story_vs_info/story_3_2.png"" class=""exp-image""><div class=""question-area""></div></div>","null","","","","","","","","","","",""
"","","","","","html-button-response","9","26819","0.0-9.0","","1388","<div class=""stimulus-container""><img src=""images_story_vs_info/story_3_2.png"" class=""exp-image""><div class=""question-area""><p style=""font-size: 20px; font-weight: bold; margin: 0;"">Is there a person in the description or image?</p></div></div>","1","observation","story_3","story","2","","","","","","",""
"","","","","","html-keyboard-response","10","31821","0.0-10.0","","null","<div class=""stimulus-container""><img src=""images_story_vs_info/story_3_3.png"" class=""exp-image""><div class=""question-area""></div></div>","null","","","","","","","","","","",""
"","","","","","html-button-response","11","33288","0.0-11.0","","1467","<div class=""stimulus-container""><img src=""images_story_vs_info/story_3_3.png"" class=""exp-image""><div class=""question-area""><p style=""font-size: 20px; font-weight: bold; margin: 0;"">Is there a person in the description or image?</p></div></div>","1","observation","story_3","story","3","","","","","","",""
"","","","","","html-keyboard-response","12","38290","0.0-12.0","","null","<div class=""stimulus-container""><img src=""images_story_vs_info/story_3_4.png"" class=""exp-image""><div class=""question-area""></div></div>","null","","","","","","","","","","",""
"","","","","","html-button-response","13","39533","0.0-13.0","","1243","<div class=""stimulus-container""><img src=""images_story_vs_info/story_3_4.png"" class=""exp-image""><div class=""question-area""><p style=""font-size: 20px; font-weight: bold; margin: 0;"">Is there a person in the description or image?</p></div></div>","0","observation","story_3","story","4","","","","","","",""
"","","","","","html-keyboard-response","14","44536","0.0-14.0","","null","<div class=""stimulus-container""><img src=""images_story_vs_info/story_3_5.png"" class=""exp-image""><div class=""question-area""></div></div>","null","","","","","","","","","","",""
"","","","","","html-button-response","15","46133","0.0-15.0","","1596","<div class=""stimulus-container""><img src=""images_story_vs_info/story_3_5.png"" class=""exp-image""><div class=""question-area""><p style=""font-size: 20px; font-weight: bold; margin: 0;"">Is there a person in the description or image?</p></div></div>","1","observation","story_3","story","5","","","","","","",""
"","","","","","html-keyboard-response","16","48135","0.0-16.0","","null","<div class=""transition-square""></div>","null","","","","","","","","","","",""
"","","","","","html-keyboard-response","17","53136","0.0-17.0","","null","<div class=""stimulus-container""><img src=""images_story_vs_info/info_1_1.png"" class=""exp-image""><div class=""question-area""></div></div>","null","","","","","","","","","","",""
"","","","","","html-button-response","18","54007","0.0-18.0","","870","<div class=""stimulus-container""><img src=""images_story_vs_info/info_1_1.png"" class=""exp-image""><div class=""question-area""><p style=""font-size: 20px; font-weight: bold; margin: 0;"">Is there a person in the description or image?</p></div></div>","1","observation","info_1","info","1","","","","","","",""
"","","","","","html-keyboard-response","19","59009","0.0-19.0","","null","<div class=""stimulus-container""><img src=""images_story_vs_info/info_1_2.png"" class=""exp-image""><div class=""question-area""></div></div>","null","","","","","","","","","","",""
"","","","","","html-button-response","20","59799","0.0-20.0","","789","<div class=""stimulus-container""><img src=""images_story_vs_info/info_1_2.png"" class=""exp-image""><div class=""question-area""><p style=""font-size: 20px; font-weight: bold; margin: 0;"">Is there a person in the description or image?</p></div></div>","1","observation","info_1","info","2","","","","","","",""
"","","","","","html-keyboard-response","21","64800","0.0-21.0","","null","<div class=""stimulus-container""><img src=""images_story_vs_info/info_1_3.png"" class=""exp-image""><div class=""question-area""></div></div>","null","","","","","","","","","","",""
"","","","","","html-button-response","22","65984","0.0-22.0","","1183","<div class=""stimulus-container""><img src=""images_story_vs_info/info_1_3.png"" class=""exp-image""><div class=""question-area""><p style=""font-size: 20px; font-weight: bold; margin: 0;"">Is there a person in the description or image?</p></div></div>","1","observation","info_1","info","3","","","","","","",""
"","","","","","html-keyboard-response","23","70986","0.0-23.0","","null","<div class=""stimulus-container""><img src=""images_story_vs_info/info_1_4.png"" class=""exp-image""><div class=""question-area""></div></div>","null","","","","","","","","","","",""
"","","","","","html-button-response","24","71717","0.0-24.0","","731","<div class=""stimulus-container""><img src=""images_story_vs_info/info_1_4.png"" class=""exp-image""><div class=""question-area""><p style=""font-size: 20px; font-weight: bold; margin: 0;"">Is there a person in the description or image?</p></div></div>","1","observation","info_1","info","4","","","","","","",""
"","","","","","html-keyboard-response","25","76719","0.0-25.0","","null","<div class=""stimulus-container""><img src=""images_story_vs_info/info_1_5.png"" class=""exp-image""><div class=""question-area""></div></div>","null","","","","","","","","","","",""
"","","","","","html-button-response","26","77209","0.0-26.0","","488","<div class=""stimulus-container""><img src=""images_story_vs_info/info_1_5.png"" class=""exp-image""><div class=""question-area""><p style=""font-size: 20px; font-weight: bold; margin: 0;"">Is there a person in the description or image?</p></div></div>","1","observation","info_1","info","5","","","","","","",""
"","","","","","html-keyboard-response","27","79210","0.0-27.0","","null","<div class=""transition-square""></div>","null","","","","","","","","","","",""
"","","","","","html-keyboard-response","28","84212","0.0-28.0","","null","<div class=""stimulus-container""><img src=""images_story_vs_info/info_4_1.png"" class=""exp-image""><div class=""question-area""></div></div>","null","","","","","","","","","","",""
"","","","","","html-button-response","29","84933","0.0-29.0","","721","<div class=""stimulus-container""><img src=""images_story_vs_info/info_4_1.png"" class=""exp-image""><div class=""question-area""><p style=""font-size: 20px; font-weight: bold; margin: 0;"">Is there a person in the description or image?</p></div></div>","1","observation","info_4","info","1","","","","","","",""
"","","","","","html-keyboard-response","30","89935","0.0-30.0","","null","<div class=""stimulus-container""><img src=""images_story_vs_info/info_4_2.png"" class=""exp-image""><div class=""question-area""></div></div>","null","","","","","","","","","","",""
"","","","","","html-button-response","31","90708","0.0-31.0","","772","<div class=""stimulus-container""><img src=""images_story_vs_info/info_4_2.png"" class=""exp-image""><div class=""question-area""><p style=""font-size: 20px; font-weight: bold; margin: 0;"">Is there a person in the description or image?</p></div></div>","1","observation","info_4","info","2","","","","","","",""
"","","","","","html-keyboard-response","32","95710","0.0-32.0","","null","<div class=""stimulus-container""><img src=""images_story_vs_info/info_4_3.png"" class=""exp-image""><div class=""question-area""></div></div>","null","","","","","","","","","","",""
"","","","","","html-button-response","33","96096","0.0-33.0","","385","<div class=""stimulus-container""><img src=""images_story_vs_info/info_4_3.png"" class=""exp-image""><div class=""question-area""><p style=""font-size: 20px; font-weight: bold; margin: 0;"">Is there a person in the description or image?</p></div></div>","1","observation","info_4","info","3","","","","","","",""
"","","","","","html-keyboard-response","34","101097","0.0-34.0","","null","<div class=""stimulus-container""><img src=""images_story_vs_info/info_4_4.png"" class=""exp-image""><div class=""question-area""></div></div>","null","","","","","","","","","","",""
"","","","","","html-button-response","35","101735","0.0-35.0","","637","<div class=""stimulus-container""><img src=""images_story_vs_info/info_4_4.png"" class=""exp-image""><div class=""question-area""><p style=""font-size: 20px; font-weight: bold; margin: 0;"">Is there a person in the description or image?</p></div></div>","1","observation","info_4","info","4","","","","","","",""
"","","","","","html-keyboard-response","36","106737","0.0-36.0","","null","<div class=""stimulus-container""><img src=""images_story_vs_info/info_4_5.png"" class=""exp-image""><div class=""question-area""></div></div>","null","","","","","","","","","","",""
"","","","","","html-button-response","37","107526","0.0-37.0","","788","<div class=""stimulus-container""><img src=""images_story_vs_info/info_4_5.png"" class=""exp-image""><div class=""question-area""><p style=""font-size: 20px; font-weight: bold; margin: 0;"">Is there a person in the description or image?</p></div></div>","1","observation","info_4","info","5","","","","","","",""
"","","","","","html-keyboard-response","38","109528","0.0-38.0","","null","<div class=""transition-square""></div>","null","","","","","","","","","","",""
"","","","","","html-keyboard-response","39","114530","0.0-39.0","","null","<div class=""stimulus-container""><img src=""images_story_vs_info/story_2_1.png"" class=""exp-image""><div class=""question-area""></div></div>","null","","","","","","","","","","",""
"","","","","","html-button-response","40","115060","0.0-40.0","","528","<div class=""stimulus-container""><img src=""images_story_vs_info/story_2_1.png"" class=""exp-image""><div class=""question-area""><p style=""font-size: 20px; font-weight: bold; margin: 0;"">Is there a person in the description or image?</p></div></div>","1","observation","story_2","story","1","","","","","","",""
"","","","","","html-keyboard-response","41","120062","0.0-41.0","","null","<div class=""stimulus-container""><img src=""images_story_vs_info/story_2_2.png"" class=""exp-image""><div class=""question-area""></div></div>","null","","","","","","","","","","",""
"","","","","","html-button-response","42","123065","0.0-42.0","","null","<div class=""stimulus-container""><img src=""images_story_vs_info/story_2_2.png"" class=""exp-image""><div class=""question-area""><p style=""font-size: 20px; font-weight: bold; margin: 0;"">Is there a person in the description or image?</p></div></div>","null","observation","story_2","story","2","","","","","","",""
"","","","","","html-keyboard-response","43","128067","0.0-43.0","","null","<div class=""stimulus-container""><img src=""images_story_vs_info/story_2_3.png"" class=""exp-image""><div class=""question-area""></div></div>","null","","","","","","","","","","",""
"","","","","","html-button-response","44","131069","0.0-44.0","","null","<div class=""stimulus-container""><img src=""images_story_vs_info/story_2_3.png"" class=""exp-image""><div class=""question-area""><p style=""font-size: 20px; font-weight: bold; margin: 0;"">Is there a person in the description or image?</p></div></div>","null","observation","story_2","story","3","","","","","","",""
"","","","","","html-keyboard-response","45","136071","0.0-45.0","","null","<div class=""stimulus-container""><img src=""images_story_vs_info/story_2_4.png"" class=""exp-image""><div class=""question-area""></div></div>","null","","","","","","","","","","",""
"","","","","","html-button-response","46","137369","0.0-46.0","","1297","<div class=""stimulus-container""><img src=""images_story_vs_info/story_2_4.png"" class=""exp-image""><div class=""question-area""><p style=""font-size: 20px; font-weight: bold; margin: 0;"">Is there a person in the description or image?</p></div></div>","1","observation","story_2","story","4","","","","","","",""
"","","","","","html-keyboard-response","47","142370","0.0-47.0","","null","<div class=""stimulus-container""><img src=""images_story_vs_info/story_2_5.png"" class=""exp-image""><div class=""question-area""></div></div>","null","","","","","","","","","","",""
"","","","","","html-button-response","48","142901","0.0-48.0","","530","<div class=""stimulus-container""><img src=""images_story_vs_info/story_2_5.png"" class=""exp-image""><div class=""question-area""><p style=""font-size: 20px; font-weight: bold; margin: 0;"">Is there a person in the description or image?</p></div></div>","1","observation","story_2","story","5","","","","","","",""
"","","","","","instructions","49","148861","0.0-49.0","[{""page_index"":0,""viewing_time"":5960}]","5960","","","","","","","","","","","","",""
"","","","","","html-button-response","50","152569","0.0-50.0","","3707","<div class=""stimulus-container""><p style=""font-family:Arial; font-size:20px;"">The event is reaching its end...</p><img src=""images_story_vs_info/info_4_5.png"" class=""exp-image""></div>","0","","","","","","","","","","",""
"","","","","","html-button-response","51","159604","0.0-51.0","","7034","<div class=""stimulus-container""><p style=""font-family:Arial; font-size:20px;"">The outcome:</p><img src=""images_story_vs_info/info_4_6_b.png"" class=""exp-image""><div class=""value-tag val-low"">This outcome is worth: $0</div></div>","0","learning","info_4","","","$0","b","","","","",""
"","","","","","html-button-response","52","162483","0.0-52.0","","2878","<div class=""stimulus-container""><p style=""font-family:Arial; font-size:20px;"">The event is reaching its end...</p><img src=""images_story_vs_info/info_1_5.png"" class=""exp-image""></div>","0","","","","","","","","","","",""
"","","","","","html-button-response","53","169378","0.0-53.0","","6894","<div class=""stimulus-container""><p style=""font-family:Arial; font-size:20px;"">The outcome:</p><img src=""images_story_vs_info/info_1_6_a.png"" class=""exp-image""><div class=""value-tag val-high"">This outcome is worth: $100</div></div>","0","learning","info_1","","","$100","a","","","","",""
"","","","","","html-button-response","54","173329","0.0-54.0","","3950","<div class=""stimulus-container""><p style=""font-family:Arial; font-size:20px;"">The event is reaching its end...</p><img src=""images_story_vs_info/story_2_5.png"" class=""exp-image""></div>","0","","","","","","","","","","",""
"","","","","","html-button-response","55","180975","0.0-55.0","","7646","<div class=""stimulus-container""><p style=""font-family:Arial; font-size:20px;"">The outcome:</p><img src=""images_story_vs_info/story_2_6_b.png"" class=""exp-image""><div class=""value-tag val-low"">This outcome is worth: $0</div></div>","0","learning","story_2","","","$0","b","","","","",""
"","","","","","html-button-response","56","183630","0.0-56.0","","2654","<div class=""stimulus-container""><p style=""font-family:Arial; font-size:20px;"">The event is reaching its end...</p><img src=""images_story_vs_info/story_3_5.png"" class=""exp-image""></div>","0","","","","","","","","","","",""
"","","","","","html-button-response","57","190403","0.0-57.0","","6772","<div class=""stimulus-container""><p style=""font-family:Arial; font-size:20px;"">The outcome:</p><img src=""images_story_vs_info/story_3_6_a.png"" class=""exp-image""><div class=""value-tag val-high"">This outcome is worth: $100</div></div>","0","learning","story_3","","","$100","a","","","","",""
"","","","","","instructions","58","192596","0.0-58.0","[{""page_index"":0,""viewing_time"":2193}]","2193","","","","","","","","","","","","",""
"","","","","","html-button-response","59","198384","0.0-59.0","","5787","
                <div style=""font-family: Arial; margin-bottom: 20px;""><h3>Which image is worth <b>more money</b>?</h3></div>
                <div class=""stimulus-container"" style=""display: flex; flex-direction: row; width: 800px; justify-content: center; gap: 30px;"">
                    <img src=""images_story_vs_info/story_3_3.png"" class=""small-image"">
                    <img src=""images_story_vs_info/info_1_3.png"" class=""small-image"">
                </div>","1","choice_comparison","","","3","","","Valuable_Story_vs_Info","story_3","info_1","images_story_vs_info/story_3_3.png","images_story_vs_info/info_1_3.png"
"","","","","","html-button-response","60","200670","0.0-60.0","","2286","
                <div style=""font-family: Arial; margin-bottom: 20px;""><h3>Which image is worth <b>more money</b>?</h3></div>
                <div class=""stimulus-container"" style=""display: flex; flex-direction: row; width: 800px; justify-content: center; gap: 30px;"">
                    <img src=""images_story_vs_info/info_4_5.png"" class=""small-image"">
                    <img src=""images_story_vs_info/story_2_5.png"" class=""small-image"">
                </div>","1","choice_comparison","","","5","","","Neutral_Story_vs_Info","story_2","info_4","images_story_vs_info/info_4_5.png","images_story_vs_info/story_2_5.png"
"","","","","","html-button-response","61","203459","0.0-61.0","","2787","
                <div style=""font-family: Arial; margin-bottom: 20px;""><h3>Which image is worth <b>more money</b>?</h3></div>
                <div class=""stimulus-container"" style=""display: flex; flex-direction: row; width: 800px; justify-content: center; gap: 30px;"">
                    <img src=""images_story_vs_info/story_2_4.png"" class=""small-image"">
                    <img src=""images_story_vs_info/info_4_4.png"" class=""small-image"">
                </div>","1","choice_comparison","","","4","","","Neutral_Story_vs_Info","story_2","info_4","images_story_vs_info/story_2_4.png","images_story_vs_info/info_4_4.png"
"","","","","","html-button-response","62","205650","0.0-62.0","","2191","
                <div style=""font-family: Arial; margin-bottom: 20px;""><h3>Which image is worth <b>more money</b>?</h3></div>
                <div class=""stimulus-container"" style=""display: flex; flex-direction: row; width: 800px; justify-content: center; gap: 30px;"">
                    <img src=""images_story_vs_info/story_3_4.png"" class=""small-image"">
                    <img src=""images_story_vs_info/info_1_4.png"" class=""small-image"">
                </div>","0","choice_comparison","","","4","","","Valuable_Story_vs_Info","story_3","info_1","images_story_vs_info/story_3_4.png","images_story_vs_info/info_1_4.png"
"","","","","","html-button-response","63","206833","0.0-63.0","","1182","
                <div style=""font-family: Arial; margin-bottom: 20px;""><h3>Which image is worth <b>more money</b>?</h3></div>
                <div class=""stimulus-container"" style=""display: flex; flex-direction: row; width: 800px; justify-content: center; gap: 30px;"">
                    <img src=""images_story_vs_info/story_3_5.png"" class=""small-image"">
                    <img src=""images_story_vs_info/info_1_5.png"" class=""small-image"">
                </div>","1","choice_comparison","","","5","","","Valuable_Story_vs_Info","story_3","info_1","images_story_vs_info/story_3_5.png","images_story_vs_info/info_1_5.png"
"","","","","","html-button-response","64","209794","0.0-64.0","","2960","
                <div style=""font-family: Arial; margin-bottom: 20px;""><h3>Which image is worth <b>more money</b>?</h3></div>
                <div class=""stimulus-container"" style=""display: flex; flex-direction: row; width: 800px; justify-content: center; gap: 30px;"">
                    <img src=""images_story_vs_info/info_1_6_b.png"" class=""small-image"">
                    <img src=""images_story_vs_info/story_3_6_b.png"" class=""small-image"">
                </div>","0","choice_comparison","","","6","","","Valuable_Story_vs_Info","story_3","info_1","images_story_vs_info/info_1_6_b.png","images_story_vs_info/story_3_6_b.png"
"","","","","","html-button-response","65","211478","0.0-65.0","","1683","
                <div style=""font-family: Arial; margin-bottom: 20px;""><h3>Which image is worth <b>more money</b>?</h3></div>
                <div class=""stimulus-container"" style=""display: flex; flex-direction: row; width: 800px; justify-content: center; gap: 30px;"">
                    <img src=""images_story_vs_info/info_4_2.png"" class=""small-image"">
                    <img src=""images_story_vs_info/story_2_2.png"" class=""small-image"">
                </div>","0","choice_comparison","","","2","","","Neutral_Story_vs_Info","story_2","info_4","images_story_vs_info/info_4_2.png","images_story_vs_info/story_2_2.png"
"","","","","","html-button-response","66","213065","0.0-66.0","","1587","
                <div style=""font-family: Arial; margin-bottom: 20px;""><h3>Which image is worth <b>more money</b>?</h3></div>
                <div class=""stimulus-container"" style=""display: flex; flex-direction: row; width: 800px; justify-content: center; gap: 30px;"">
                    <img src=""images_story_vs_info/story_3_1.png"" class=""small-image"">
                    <img src=""images_story_vs_info/info_1_1.png"" class=""small-image"">
                </div>","1","choice_comparison","","","1","","","Valuable_Story_vs_Info","story_3","info_1","images_story_vs_info/story_3_1.png","images_story_vs_info/info_1_1.png"
"","","","","","html-button-response","67","214653","0.0-67.0","","1587","
                <div style=""font-family: Arial; margin-bottom: 20px;""><h3>Which image is worth <b>more money</b>?</h3></div>
                <div class=""stimulus-container"" style=""display: flex; flex-direction: row; width: 800px; justify-content: center; gap: 30px;"">
                    <img src=""images_story_vs_info/info_4_3.png"" class=""small-image"">
                    <img src=""images_story_vs_info/story_2_3.png"" class=""small-image"">
                </div>","0","choice_comparison","","","3","","","Neutral_Story_vs_Info","story_2","info_4","images_story_vs_info/info_4_3.png","images_story_vs_info/story_2_3.png"
"","","","","","html-button-response","68","215370","0.0-68.0","","716","
                <div style=""font-family: Arial; margin-bottom: 20px;""><h3>Which image is worth <b>more money</b>?</h3></div>
                <div class=""stimulus-container"" style=""display: flex; flex-direction: row; width: 800px; justify-content: center; gap: 30px;"">
                    <img src=""images_story_vs_info/info_4_1.png"" class=""small-image"">
                    <img src=""images_story_vs_info/story_2_1.png"" class=""small-image"">
                </div>","1","choice_comparison","","","1","","","Neutral_Story_vs_Info","story_2","info_4","images_story_vs_info/info_4_1.png","images_story_vs_info/story_2_1.png"
"","","","","","html-button-response","69","216268","0.0-69.0","","898","
                <div style=""font-family: Arial; margin-bottom: 20px;""><h3>Which image is worth <b>more money</b>?</h3></div>
                <div class=""stimulus-container"" style=""display: flex; flex-direction: row; width: 800px; justify-content: center; gap: 30px;"">
                    <img src=""images_story_vs_info/info_4_6_b.png"" class=""small-image"">
                    <img src=""images_story_vs_info/story_2_6_b.png"" class=""small-image"">
                </div>","1","choice_comparison","","","6","","","Neutral_Story_vs_Info","story_2","info_4","images_story_vs_info/info_4_6_b.png","images_story_vs_info/story_2_6_b.png"
"","","","","","html-button-response","70","217129","0.0-70.0","","860","
                <div style=""font-family: Arial; margin-bottom: 20px;""><h3>Which image is worth <b>more money</b>?</h3></div>
                <div class=""stimulus-container"" style=""display: flex; flex-direction: row; width: 800px; justify-content: center; gap: 30px;"">
                    <img src=""images_story_vs_info/story_3_2.png"" class=""small-image"">
                    <img src=""images_story_vs_info/info_1_2.png"" class=""small-image"">
                </div>","0","choice_comparison","","","2","","","Valuable_Story_vs_Info","story_3","info_1","images_story_vs_info/story_3_2.png","images_story_vs_info/info_1_2.png"
"","","","","","survey-text","71","238697","0.0-71.0","","21561","","{""choice_strategy"":""i relied off memory at some point and then guess on the rest because i had no idea. "",""gender"":""cis female"",""age"":""30""}","","","","","","","","","","",""
"","","","","","instructions","72","241295","0.0-72.0","[{""page_index"":0,""viewing_time"":2598}]","2599","","","","","","","","","","","","",""
