"success","timeout","failed_images","failed_audio","failed_video","trial_type","trial_index","time_elapsed","internal_node_id","subject_id","study_id","session_id","view_history","rt","stimulus","response","task","image_index","folder","sequence_type","valuable_image_index","reward_type","chosen_image_index","target_X","correct_choice"
"true","false","[]","[]","[]","preload","0","8645","0.0-0.0","CE15965E495347DC9BFCD68E789C61B4","019cf51a-b48f-7f46-9325-8f82fe48d893","019cf498-06e0-702e-b525-9cde1ad77653","","","","","","","","","","","","",""
"","","","","","instructions","1","10469","0.0-1.0","CE15965E495347DC9BFCD68E789C61B4","019cf51a-b48f-7f46-9325-8f82fe48d893","019cf498-06e0-702e-b525-9cde1ad77653","[{""page_index"":0,""viewing_time"":1823}]","1823","","","","","","","","","","",""
"","","","","","instructions","2","14003","0.0-2.0","CE15965E495347DC9BFCD68E789C61B4","019cf51a-b48f-7f46-9325-8f82fe48d893","019cf498-06e0-702e-b525-9cde1ad77653","[{""page_index"":0,""viewing_time"":3534}]","3534","","","","","","","","","","",""
"true","","","","","fullscreen","3","16418","0.0-3.0","CE15965E495347DC9BFCD68E789C61B4","019cf51a-b48f-7f46-9325-8f82fe48d893","019cf498-06e0-702e-b525-9cde1ad77653","","1413","","","","","","","","","","",""
"","","","","","instructions","4","21299","0.0-4.0","CE15965E495347DC9BFCD68E789C61B4","019cf51a-b48f-7f46-9325-8f82fe48d893","019cf498-06e0-702e-b525-9cde1ad77653","[{""page_index"":0,""viewing_time"":4881}]","4881","","","","","","","","","","",""
"","","","","","instructions","5","23981","0.0-5.0","CE15965E495347DC9BFCD68E789C61B4","019cf51a-b48f-7f46-9325-8f82fe48d893","019cf498-06e0-702e-b525-9cde1ad77653","[{""page_index"":0,""viewing_time"":2681}]","2682","","","","","","","","","","",""
"","","","","","html-keyboard-response","6","27984","0.0-6.0","CE15965E495347DC9BFCD68E789C61B4","019cf51a-b48f-7f46-9325-8f82fe48d893","019cf498-06e0-702e-b525-9cde1ad77653","","null","
                <div class=""stimulus-container"">
                    <img src=""images/instructions/movie_1.png"" class=""exp-image"">
                    <div class=""question-area""></div> 
                </div>","null","","","","","","","","",""
"","","","","","html-button-response","7","30647","0.0-7.0","CE15965E495347DC9BFCD68E789C61B4","019cf51a-b48f-7f46-9325-8f82fe48d893","019cf498-06e0-702e-b525-9cde1ad77653","","2660","
                <div class=""stimulus-container"">
                    <img src=""images/instructions/movie_1.png"" class=""exp-image"">
                    <div class=""question-area"">
                        <p style=""font-size: 20px; font-weight: bold; margin: 0;"">Was there a person in this image?</p>
                    </div>
                </div>","0","example_question","1","","","","","","",""
"","","","","","html-keyboard-response","8","34650","0.0-8.0","CE15965E495347DC9BFCD68E789C61B4","019cf51a-b48f-7f46-9325-8f82fe48d893","019cf498-06e0-702e-b525-9cde1ad77653","","null","
                <div class=""stimulus-container"">
                    <img src=""images/instructions/movie_2.png"" class=""exp-image"">
                    <div class=""question-area""></div> 
                </div>","null","","","","","","","","",""
"","","","","","html-button-response","9","35590","0.0-9.0","CE15965E495347DC9BFCD68E789C61B4","019cf51a-b48f-7f46-9325-8f82fe48d893","019cf498-06e0-702e-b525-9cde1ad77653","","938","
                <div class=""stimulus-container"">
                    <img src=""images/instructions/movie_2.png"" class=""exp-image"">
                    <div class=""question-area"">
                        <p style=""font-size: 20px; font-weight: bold; margin: 0;"">Was there a person in this image?</p>
                    </div>
                </div>","0","example_question","2","","","","","","",""
"","","","","","html-keyboard-response","10","39592","0.0-10.0","CE15965E495347DC9BFCD68E789C61B4","019cf51a-b48f-7f46-9325-8f82fe48d893","019cf498-06e0-702e-b525-9cde1ad77653","","null","
                <div class=""stimulus-container"">
                    <img src=""images/instructions/movie_3.png"" class=""exp-image"">
                    <div class=""question-area""></div> 
                </div>","null","","","","","","","","",""
"","","","","","html-button-response","11","40140","0.0-11.0","CE15965E495347DC9BFCD68E789C61B4","019cf51a-b48f-7f46-9325-8f82fe48d893","019cf498-06e0-702e-b525-9cde1ad77653","","546","
                <div class=""stimulus-container"">
                    <img src=""images/instructions/movie_3.png"" class=""exp-image"">
                    <div class=""question-area"">
                        <p style=""font-size: 20px; font-weight: bold; margin: 0;"">Was there a person in this image?</p>
                    </div>
                </div>","0","example_question","3","","","","","","",""
"","","","","","html-keyboard-response","12","44143","0.0-12.0","CE15965E495347DC9BFCD68E789C61B4","019cf51a-b48f-7f46-9325-8f82fe48d893","019cf498-06e0-702e-b525-9cde1ad77653","","null","
                <div class=""stimulus-container"">
                    <img src=""images/instructions/movie_4.png"" class=""exp-image"">
                    <div class=""question-area""></div> 
                </div>","null","","","","","","","","",""
"","","","","","html-button-response","13","44549","0.0-13.0","CE15965E495347DC9BFCD68E789C61B4","019cf51a-b48f-7f46-9325-8f82fe48d893","019cf498-06e0-702e-b525-9cde1ad77653","","405","
                <div class=""stimulus-container"">
                    <img src=""images/instructions/movie_4.png"" class=""exp-image"">
                    <div class=""question-area"">
                        <p style=""font-size: 20px; font-weight: bold; margin: 0;"">Was there a person in this image?</p>
                    </div>
                </div>","0","example_question","4","","","","","","",""
"","","","","","instructions","14","46168","0.0-14.0","CE15965E495347DC9BFCD68E789C61B4","019cf51a-b48f-7f46-9325-8f82fe48d893","019cf498-06e0-702e-b525-9cde1ad77653","[{""page_index"":0,""viewing_time"":1619}]","1619","","","","","","","","","","",""
"","","","","","instructions","15","51188","0.0-15.0","CE15965E495347DC9BFCD68E789C61B4","019cf51a-b48f-7f46-9325-8f82fe48d893","019cf498-06e0-702e-b525-9cde1ad77653","[{""page_index"":0,""viewing_time"":5019}]","5020","","","","","","","","","","",""
"","","","","","html-keyboard-response","16","52191","0.0-16.0","CE15965E495347DC9BFCD68E789C61B4","019cf51a-b48f-7f46-9325-8f82fe48d893","019cf498-06e0-702e-b525-9cde1ad77653","","null","<div style=""background-color: white; width: 100vw; height: 100vh;""></div>","null","","","","","","","","",""
"","","","","","html-keyboard-response","17","57195","0.0-17.0","CE15965E495347DC9BFCD68E789C61B4","019cf51a-b48f-7f46-9325-8f82fe48d893","019cf498-06e0-702e-b525-9cde1ad77653","","null","
                <div class=""stimulus-container"">
                    <img src=""images/schematic_sequence/dinner_party_scheme/dinner_party_scheme_1.png"" class=""exp-image"">
                    <div class=""question-area""></div> 
                </div>","null","","","","","","","","",""
"","","","","","html-button-response","18","58212","0.0-18.0","CE15965E495347DC9BFCD68E789C61B4","019cf51a-b48f-7f46-9325-8f82fe48d893","019cf498-06e0-702e-b525-9cde1ad77653","","1015","
                <div class=""stimulus-container"">
                    <img src=""images/schematic_sequence/dinner_party_scheme/dinner_party_scheme_1.png"" class=""exp-image"">
                    <div class=""question-area"">
                        <p style=""font-size: 20px; font-weight: bold; margin: 0;"">Is there a person in this image?</p>
                    </div>
                </div>","0","main_experiment_trial","1","dinner_party_scheme","schematic_sequence","","","","",""
"","","","","","html-keyboard-response","19","63215","0.0-19.0","CE15965E495347DC9BFCD68E789C61B4","019cf51a-b48f-7f46-9325-8f82fe48d893","019cf498-06e0-702e-b525-9cde1ad77653","","null","
                <div class=""stimulus-container"">
                    <img src=""images/schematic_sequence/dinner_party_scheme/dinner_party_scheme_2.png"" class=""exp-image"">
                    <div class=""question-area""></div> 
                </div>","null","","","","","","","","",""
"","","","","","html-button-response","20","63829","0.0-20.0","CE15965E495347DC9BFCD68E789C61B4","019cf51a-b48f-7f46-9325-8f82fe48d893","019cf498-06e0-702e-b525-9cde1ad77653","","613","
                <div class=""stimulus-container"">
                    <img src=""images/schematic_sequence/dinner_party_scheme/dinner_party_scheme_2.png"" class=""exp-image"">
                    <div class=""question-area"">
                        <p style=""font-size: 20px; font-weight: bold; margin: 0;"">Is there a person in this image?</p>
                    </div>
                </div>","0","main_experiment_trial","2","dinner_party_scheme","schematic_sequence","","","","",""
"","","","","","html-keyboard-response","21","68831","0.0-21.0","CE15965E495347DC9BFCD68E789C61B4","019cf51a-b48f-7f46-9325-8f82fe48d893","019cf498-06e0-702e-b525-9cde1ad77653","","null","
                <div class=""stimulus-container"">
                    <img src=""images/schematic_sequence/dinner_party_scheme/dinner_party_scheme_3.png"" class=""exp-image"">
                    <div class=""question-area""></div> 
                </div>","null","","","","","","","","",""
"","","","","","html-button-response","22","69300","0.0-22.0","CE15965E495347DC9BFCD68E789C61B4","019cf51a-b48f-7f46-9325-8f82fe48d893","019cf498-06e0-702e-b525-9cde1ad77653","","467","
                <div class=""stimulus-container"">
                    <img src=""images/schematic_sequence/dinner_party_scheme/dinner_party_scheme_3.png"" class=""exp-image"">
                    <div class=""question-area"">
                        <p style=""font-size: 20px; font-weight: bold; margin: 0;"">Is there a person in this image?</p>
                    </div>
                </div>","0","main_experiment_trial","3","dinner_party_scheme","schematic_sequence","","","","",""
"","","","","","html-keyboard-response","23","74304","0.0-23.0","CE15965E495347DC9BFCD68E789C61B4","019cf51a-b48f-7f46-9325-8f82fe48d893","019cf498-06e0-702e-b525-9cde1ad77653","","null","
                <div class=""stimulus-container"">
                    <img src=""images/schematic_sequence/dinner_party_scheme/dinner_party_scheme_4.png"" class=""exp-image"">
                    <div class=""question-area""></div> 
                </div>","null","","","","","","","","",""
"","","","","","html-button-response","24","74775","0.0-24.0","CE15965E495347DC9BFCD68E789C61B4","019cf51a-b48f-7f46-9325-8f82fe48d893","019cf498-06e0-702e-b525-9cde1ad77653","","470","
                <div class=""stimulus-container"">
                    <img src=""images/schematic_sequence/dinner_party_scheme/dinner_party_scheme_4.png"" class=""exp-image"">
                    <div class=""question-area"">
                        <p style=""font-size: 20px; font-weight: bold; margin: 0;"">Is there a person in this image?</p>
                    </div>
                </div>","0","main_experiment_trial","4","dinner_party_scheme","schematic_sequence","","","","",""
"","","","","","html-keyboard-response","25","79778","0.0-25.0","CE15965E495347DC9BFCD68E789C61B4","019cf51a-b48f-7f46-9325-8f82fe48d893","019cf498-06e0-702e-b525-9cde1ad77653","","null","
                <div class=""stimulus-container"">
                    <img src=""images/schematic_sequence/dinner_party_scheme/dinner_party_scheme_5.png"" class=""exp-image"">
                    <div class=""question-area""></div> 
                </div>","null","","","","","","","","",""
"","","","","","html-button-response","26","80162","0.0-26.0","CE15965E495347DC9BFCD68E789C61B4","019cf51a-b48f-7f46-9325-8f82fe48d893","019cf498-06e0-702e-b525-9cde1ad77653","","383","
                <div class=""stimulus-container"">
                    <img src=""images/schematic_sequence/dinner_party_scheme/dinner_party_scheme_5.png"" class=""exp-image"">
                    <div class=""question-area"">
                        <p style=""font-size: 20px; font-weight: bold; margin: 0;"">Is there a person in this image?</p>
                    </div>
                </div>","0","main_experiment_trial","5","dinner_party_scheme","schematic_sequence","","","","",""
"","","","","","html-keyboard-response","27","85166","0.0-27.0","CE15965E495347DC9BFCD68E789C61B4","019cf51a-b48f-7f46-9325-8f82fe48d893","019cf498-06e0-702e-b525-9cde1ad77653","","null","
                <div class=""stimulus-container"">
                    <img src=""images/schematic_sequence/dinner_party_scheme/dinner_party_scheme_6.png"" class=""exp-image"">
                    <div class=""question-area""></div> 
                </div>","null","","","","","","","","",""
"","","","","","html-button-response","28","85556","0.0-28.0","CE15965E495347DC9BFCD68E789C61B4","019cf51a-b48f-7f46-9325-8f82fe48d893","019cf498-06e0-702e-b525-9cde1ad77653","","388","
                <div class=""stimulus-container"">
                    <img src=""images/schematic_sequence/dinner_party_scheme/dinner_party_scheme_6.png"" class=""exp-image"">
                    <div class=""question-area"">
                        <p style=""font-size: 20px; font-weight: bold; margin: 0;"">Is there a person in this image?</p>
                    </div>
                </div>","0","main_experiment_trial","6","dinner_party_scheme","schematic_sequence","","","","",""
"","","","","","html-keyboard-response","29","90559","0.0-29.0","CE15965E495347DC9BFCD68E789C61B4","019cf51a-b48f-7f46-9325-8f82fe48d893","019cf498-06e0-702e-b525-9cde1ad77653","","null","
                <div class=""stimulus-container"">
                    <img src=""images/schematic_sequence/dinner_party_scheme/dinner_party_scheme_7.png"" class=""exp-image"">
                    <div class=""question-area""></div> 
                </div>","null","","","","","","","","",""
"","","","","","html-button-response","30","90911","0.0-30.0","CE15965E495347DC9BFCD68E789C61B4","019cf51a-b48f-7f46-9325-8f82fe48d893","019cf498-06e0-702e-b525-9cde1ad77653","","351","
                <div class=""stimulus-container"">
                    <img src=""images/schematic_sequence/dinner_party_scheme/dinner_party_scheme_7.png"" class=""exp-image"">
                    <div class=""question-area"">
                        <p style=""font-size: 20px; font-weight: bold; margin: 0;"">Is there a person in this image?</p>
                    </div>
                </div>","0","main_experiment_trial","7","dinner_party_scheme","schematic_sequence","","","","",""
"","","","","","html-keyboard-response","31","95912","0.0-31.0","CE15965E495347DC9BFCD68E789C61B4","019cf51a-b48f-7f46-9325-8f82fe48d893","019cf498-06e0-702e-b525-9cde1ad77653","","null","
                <div class=""stimulus-container"">
                    <img src=""images/schematic_sequence/dinner_party_scheme/dinner_party_scheme_8.png"" class=""exp-image"">
                    <div class=""question-area""></div> 
                </div>","null","","","","","","","","",""
"","","","","","html-button-response","32","96422","0.0-32.0","CE15965E495347DC9BFCD68E789C61B4","019cf51a-b48f-7f46-9325-8f82fe48d893","019cf498-06e0-702e-b525-9cde1ad77653","","508","
                <div class=""stimulus-container"">
                    <img src=""images/schematic_sequence/dinner_party_scheme/dinner_party_scheme_8.png"" class=""exp-image"">
                    <div class=""question-area"">
                        <p style=""font-size: 20px; font-weight: bold; margin: 0;"">Is there a person in this image?</p>
                    </div>
                </div>","0","main_experiment_trial","8","dinner_party_scheme","schematic_sequence","","","","",""
"","","","","","html-keyboard-response","33","101424","0.0-33.0","CE15965E495347DC9BFCD68E789C61B4","019cf51a-b48f-7f46-9325-8f82fe48d893","019cf498-06e0-702e-b525-9cde1ad77653","","null","
                <div class=""stimulus-container"">
                    <img src=""images/schematic_sequence/dinner_party_scheme/dinner_party_scheme_9.png"" class=""exp-image"">
                    <div class=""question-area""></div> 
                </div>","null","","","","","","","","",""
"","","","","","html-button-response","34","102060","0.0-34.0","CE15965E495347DC9BFCD68E789C61B4","019cf51a-b48f-7f46-9325-8f82fe48d893","019cf498-06e0-702e-b525-9cde1ad77653","","635","
                <div class=""stimulus-container"">
                    <img src=""images/schematic_sequence/dinner_party_scheme/dinner_party_scheme_9.png"" class=""exp-image"">
                    <div class=""question-area"">
                        <p style=""font-size: 20px; font-weight: bold; margin: 0;"">Is there a person in this image?</p>
                    </div>
                </div>","0","main_experiment_trial","9","dinner_party_scheme","schematic_sequence","","","","",""
"","","","","","html-keyboard-response","35","107063","0.0-35.0","CE15965E495347DC9BFCD68E789C61B4","019cf51a-b48f-7f46-9325-8f82fe48d893","019cf498-06e0-702e-b525-9cde1ad77653","","null","
                <div class=""stimulus-container"">
                    <img src=""images/schematic_sequence/dinner_party_scheme/dinner_party_scheme_ten.png"" class=""exp-image"">
                    <div class=""question-area""></div> 
                </div>","null","","","","","","","","",""
"","","","","","html-button-response","36","107444","0.0-36.0","CE15965E495347DC9BFCD68E789C61B4","019cf51a-b48f-7f46-9325-8f82fe48d893","019cf498-06e0-702e-b525-9cde1ad77653","","379","
                <div class=""stimulus-container"">
                    <img src=""images/schematic_sequence/dinner_party_scheme/dinner_party_scheme_ten.png"" class=""exp-image"">
                    <div class=""question-area"">
                        <p style=""font-size: 20px; font-weight: bold; margin: 0;"">Is there a person in this image?</p>
                    </div>
                </div>","0","main_experiment_trial","ten","dinner_party_scheme","schematic_sequence","","","","",""
"","","","","","html-keyboard-response","37","108445","0.0-37.0","CE15965E495347DC9BFCD68E789C61B4","019cf51a-b48f-7f46-9325-8f82fe48d893","019cf498-06e0-702e-b525-9cde1ad77653","","null","<div style=""background-color: white; width: 100vw; height: 100vh;""></div>","null","","","","","","","","",""
"","","","","","html-keyboard-response","38","113446","0.0-38.0","CE15965E495347DC9BFCD68E789C61B4","019cf51a-b48f-7f46-9325-8f82fe48d893","019cf498-06e0-702e-b525-9cde1ad77653","","null","
                <div class=""stimulus-container"">
                    <img src=""images/schematic_sequence/interview_scheme/interview_scheme_1.png"" class=""exp-image"">
                    <div class=""question-area""></div> 
                </div>","null","","","","","","","","",""
"","","","","","html-button-response","39","113953","0.0-39.0","CE15965E495347DC9BFCD68E789C61B4","019cf51a-b48f-7f46-9325-8f82fe48d893","019cf498-06e0-702e-b525-9cde1ad77653","","506","
                <div class=""stimulus-container"">
                    <img src=""images/schematic_sequence/interview_scheme/interview_scheme_1.png"" class=""exp-image"">
                    <div class=""question-area"">
                        <p style=""font-size: 20px; font-weight: bold; margin: 0;"">Is there a person in this image?</p>
                    </div>
                </div>","1","main_experiment_trial","1","interview_scheme","schematic_sequence","","","","",""
"","","","","","html-keyboard-response","40","118955","0.0-40.0","CE15965E495347DC9BFCD68E789C61B4","019cf51a-b48f-7f46-9325-8f82fe48d893","019cf498-06e0-702e-b525-9cde1ad77653","","null","
                <div class=""stimulus-container"">
                    <img src=""images/schematic_sequence/interview_scheme/interview_scheme_2.png"" class=""exp-image"">
                    <div class=""question-area""></div> 
                </div>","null","","","","","","","","",""
"","","","","","html-button-response","41","119352","0.0-41.0","CE15965E495347DC9BFCD68E789C61B4","019cf51a-b48f-7f46-9325-8f82fe48d893","019cf498-06e0-702e-b525-9cde1ad77653","","396","
                <div class=""stimulus-container"">
                    <img src=""images/schematic_sequence/interview_scheme/interview_scheme_2.png"" class=""exp-image"">
                    <div class=""question-area"">
                        <p style=""font-size: 20px; font-weight: bold; margin: 0;"">Is there a person in this image?</p>
                    </div>
                </div>","1","main_experiment_trial","2","interview_scheme","schematic_sequence","","","","",""
"","","","","","html-keyboard-response","42","124353","0.0-42.0","CE15965E495347DC9BFCD68E789C61B4","019cf51a-b48f-7f46-9325-8f82fe48d893","019cf498-06e0-702e-b525-9cde1ad77653","","null","
                <div class=""stimulus-container"">
                    <img src=""images/schematic_sequence/interview_scheme/interview_scheme_3.png"" class=""exp-image"">
                    <div class=""question-area""></div> 
                </div>","null","","","","","","","","",""
"","","","","","html-button-response","43","124518","0.0-43.0","CE15965E495347DC9BFCD68E789C61B4","019cf51a-b48f-7f46-9325-8f82fe48d893","019cf498-06e0-702e-b525-9cde1ad77653","","163","
                <div class=""stimulus-container"">
                    <img src=""images/schematic_sequence/interview_scheme/interview_scheme_3.png"" class=""exp-image"">
                    <div class=""question-area"">
                        <p style=""font-size: 20px; font-weight: bold; margin: 0;"">Is there a person in this image?</p>
                    </div>
                </div>","1","main_experiment_trial","3","interview_scheme","schematic_sequence","","","","",""
"","","","","","html-keyboard-response","44","129520","0.0-44.0","CE15965E495347DC9BFCD68E789C61B4","019cf51a-b48f-7f46-9325-8f82fe48d893","019cf498-06e0-702e-b525-9cde1ad77653","","null","
                <div class=""stimulus-container"">
                    <img src=""images/schematic_sequence/interview_scheme/interview_scheme_4.png"" class=""exp-image"">
                    <div class=""question-area""></div> 
                </div>","null","","","","","","","","",""
"","","","","","html-button-response","45","130199","0.0-45.0","CE15965E495347DC9BFCD68E789C61B4","019cf51a-b48f-7f46-9325-8f82fe48d893","019cf498-06e0-702e-b525-9cde1ad77653","","677","
                <div class=""stimulus-container"">
                    <img src=""images/schematic_sequence/interview_scheme/interview_scheme_4.png"" class=""exp-image"">
                    <div class=""question-area"">
                        <p style=""font-size: 20px; font-weight: bold; margin: 0;"">Is there a person in this image?</p>
                    </div>
                </div>","1","main_experiment_trial","4","interview_scheme","schematic_sequence","","","","",""
"","","","","","html-keyboard-response","46","135202","0.0-46.0","CE15965E495347DC9BFCD68E789C61B4","019cf51a-b48f-7f46-9325-8f82fe48d893","019cf498-06e0-702e-b525-9cde1ad77653","","null","
                <div class=""stimulus-container"">
                    <img src=""images/schematic_sequence/interview_scheme/interview_scheme_5.png"" class=""exp-image"">
                    <div class=""question-area""></div> 
                </div>","null","","","","","","","","",""
"","","","","","html-button-response","47","136875","0.0-47.0","CE15965E495347DC9BFCD68E789C61B4","019cf51a-b48f-7f46-9325-8f82fe48d893","019cf498-06e0-702e-b525-9cde1ad77653","","1673","
                <div class=""stimulus-container"">
                    <img src=""images/schematic_sequence/interview_scheme/interview_scheme_5.png"" class=""exp-image"">
                    <div class=""question-area"">
                        <p style=""font-size: 20px; font-weight: bold; margin: 0;"">Is there a person in this image?</p>
                    </div>
                </div>","0","main_experiment_trial","5","interview_scheme","schematic_sequence","","","","",""
"","","","","","html-keyboard-response","48","141877","0.0-48.0","CE15965E495347DC9BFCD68E789C61B4","019cf51a-b48f-7f46-9325-8f82fe48d893","019cf498-06e0-702e-b525-9cde1ad77653","","null","
                <div class=""stimulus-container"">
                    <img src=""images/schematic_sequence/interview_scheme/interview_scheme_6.png"" class=""exp-image"">
                    <div class=""question-area""></div> 
                </div>","null","","","","","","","","",""
"","","","","","html-button-response","49","143108","0.0-49.0","CE15965E495347DC9BFCD68E789C61B4","019cf51a-b48f-7f46-9325-8f82fe48d893","019cf498-06e0-702e-b525-9cde1ad77653","","1230","
                <div class=""stimulus-container"">
                    <img src=""images/schematic_sequence/interview_scheme/interview_scheme_6.png"" class=""exp-image"">
                    <div class=""question-area"">
                        <p style=""font-size: 20px; font-weight: bold; margin: 0;"">Is there a person in this image?</p>
                    </div>
                </div>","0","main_experiment_trial","6","interview_scheme","schematic_sequence","","","","",""
"","","","","","html-keyboard-response","50","148109","0.0-50.0","CE15965E495347DC9BFCD68E789C61B4","019cf51a-b48f-7f46-9325-8f82fe48d893","019cf498-06e0-702e-b525-9cde1ad77653","","null","
                <div class=""stimulus-container"">
                    <img src=""images/schematic_sequence/interview_scheme/interview_scheme_7.png"" class=""exp-image"">
                    <div class=""question-area""></div> 
                </div>","null","","","","","","","","",""
"","","","","","html-button-response","51","148626","0.0-51.0","CE15965E495347DC9BFCD68E789C61B4","019cf51a-b48f-7f46-9325-8f82fe48d893","019cf498-06e0-702e-b525-9cde1ad77653","","516","
                <div class=""stimulus-container"">
                    <img src=""images/schematic_sequence/interview_scheme/interview_scheme_7.png"" class=""exp-image"">
                    <div class=""question-area"">
                        <p style=""font-size: 20px; font-weight: bold; margin: 0;"">Is there a person in this image?</p>
                    </div>
                </div>","0","main_experiment_trial","7","interview_scheme","schematic_sequence","","","","",""
"","","","","","html-keyboard-response","52","153628","0.0-52.0","CE15965E495347DC9BFCD68E789C61B4","019cf51a-b48f-7f46-9325-8f82fe48d893","019cf498-06e0-702e-b525-9cde1ad77653","","null","
                <div class=""stimulus-container"">
                    <img src=""images/schematic_sequence/interview_scheme/interview_scheme_8.png"" class=""exp-image"">
                    <div class=""question-area""></div> 
                </div>","null","","","","","","","","",""
"","","","","","html-button-response","53","154223","0.0-53.0","CE15965E495347DC9BFCD68E789C61B4","019cf51a-b48f-7f46-9325-8f82fe48d893","019cf498-06e0-702e-b525-9cde1ad77653","","594","
                <div class=""stimulus-container"">
                    <img src=""images/schematic_sequence/interview_scheme/interview_scheme_8.png"" class=""exp-image"">
                    <div class=""question-area"">
                        <p style=""font-size: 20px; font-weight: bold; margin: 0;"">Is there a person in this image?</p>
                    </div>
                </div>","0","main_experiment_trial","8","interview_scheme","schematic_sequence","","","","",""
"","","","","","html-keyboard-response","54","159225","0.0-54.0","CE15965E495347DC9BFCD68E789C61B4","019cf51a-b48f-7f46-9325-8f82fe48d893","019cf498-06e0-702e-b525-9cde1ad77653","","null","
                <div class=""stimulus-container"">
                    <img src=""images/schematic_sequence/interview_scheme/interview_scheme_9.png"" class=""exp-image"">
                    <div class=""question-area""></div> 
                </div>","null","","","","","","","","",""
"","","","","","html-button-response","55","159725","0.0-55.0","CE15965E495347DC9BFCD68E789C61B4","019cf51a-b48f-7f46-9325-8f82fe48d893","019cf498-06e0-702e-b525-9cde1ad77653","","498","
                <div class=""stimulus-container"">
                    <img src=""images/schematic_sequence/interview_scheme/interview_scheme_9.png"" class=""exp-image"">
                    <div class=""question-area"">
                        <p style=""font-size: 20px; font-weight: bold; margin: 0;"">Is there a person in this image?</p>
                    </div>
                </div>","0","main_experiment_trial","9","interview_scheme","schematic_sequence","","","","",""
"","","","","","html-keyboard-response","56","164727","0.0-56.0","CE15965E495347DC9BFCD68E789C61B4","019cf51a-b48f-7f46-9325-8f82fe48d893","019cf498-06e0-702e-b525-9cde1ad77653","","null","
                <div class=""stimulus-container"">
                    <img src=""images/schematic_sequence/interview_scheme/interview_scheme_ten.png"" class=""exp-image"">
                    <div class=""question-area""></div> 
                </div>","null","","","","","","","","",""
"","","","","","html-button-response","57","165280","0.0-57.0","CE15965E495347DC9BFCD68E789C61B4","019cf51a-b48f-7f46-9325-8f82fe48d893","019cf498-06e0-702e-b525-9cde1ad77653","","552","
                <div class=""stimulus-container"">
                    <img src=""images/schematic_sequence/interview_scheme/interview_scheme_ten.png"" class=""exp-image"">
                    <div class=""question-area"">
                        <p style=""font-size: 20px; font-weight: bold; margin: 0;"">Is there a person in this image?</p>
                    </div>
                </div>","0","main_experiment_trial","ten","interview_scheme","schematic_sequence","","","","",""
"","","","","","html-keyboard-response","58","166282","0.0-58.0","CE15965E495347DC9BFCD68E789C61B4","019cf51a-b48f-7f46-9325-8f82fe48d893","019cf498-06e0-702e-b525-9cde1ad77653","","null","<div style=""background-color: white; width: 100vw; height: 100vh;""></div>","null","","","","","","","","",""
"","","","","","html-keyboard-response","59","171288","0.0-59.0","CE15965E495347DC9BFCD68E789C61B4","019cf51a-b48f-7f46-9325-8f82fe48d893","019cf498-06e0-702e-b525-9cde1ad77653","","null","
                <div class=""stimulus-container"">
                    <img src=""images/causal_sequence/dog_causal/dog_causal_1.png"" class=""exp-image"">
                    <div class=""question-area""></div> 
                </div>","null","","","","","","","","",""
"","","","","","html-button-response","60","171825","0.0-60.0","CE15965E495347DC9BFCD68E789C61B4","019cf51a-b48f-7f46-9325-8f82fe48d893","019cf498-06e0-702e-b525-9cde1ad77653","","535","
                <div class=""stimulus-container"">
                    <img src=""images/causal_sequence/dog_causal/dog_causal_1.png"" class=""exp-image"">
                    <div class=""question-area"">
                        <p style=""font-size: 20px; font-weight: bold; margin: 0;"">Is there a person in this image?</p>
                    </div>
                </div>","0","main_experiment_trial","1","dog_causal","causal_sequence","","","","",""
"","","","","","html-keyboard-response","61","176827","0.0-61.0","CE15965E495347DC9BFCD68E789C61B4","019cf51a-b48f-7f46-9325-8f82fe48d893","019cf498-06e0-702e-b525-9cde1ad77653","","null","
                <div class=""stimulus-container"">
                    <img src=""images/causal_sequence/dog_causal/dog_causal_2.png"" class=""exp-image"">
                    <div class=""question-area""></div> 
                </div>","null","","","","","","","","",""
"","","","","","html-button-response","62","177548","0.0-62.0","CE15965E495347DC9BFCD68E789C61B4","019cf51a-b48f-7f46-9325-8f82fe48d893","019cf498-06e0-702e-b525-9cde1ad77653","","719","
                <div class=""stimulus-container"">
                    <img src=""images/causal_sequence/dog_causal/dog_causal_2.png"" class=""exp-image"">
                    <div class=""question-area"">
                        <p style=""font-size: 20px; font-weight: bold; margin: 0;"">Is there a person in this image?</p>
                    </div>
                </div>","0","main_experiment_trial","2","dog_causal","causal_sequence","","","","",""
"","","","","","html-keyboard-response","63","182551","0.0-63.0","CE15965E495347DC9BFCD68E789C61B4","019cf51a-b48f-7f46-9325-8f82fe48d893","019cf498-06e0-702e-b525-9cde1ad77653","","null","
                <div class=""stimulus-container"">
                    <img src=""images/causal_sequence/dog_causal/dog_causal_3.png"" class=""exp-image"">
                    <div class=""question-area""></div> 
                </div>","null","","","","","","","","",""
"","","","","","html-button-response","64","183655","0.0-64.0","CE15965E495347DC9BFCD68E789C61B4","019cf51a-b48f-7f46-9325-8f82fe48d893","019cf498-06e0-702e-b525-9cde1ad77653","","1102","
                <div class=""stimulus-container"">
                    <img src=""images/causal_sequence/dog_causal/dog_causal_3.png"" class=""exp-image"">
                    <div class=""question-area"">
                        <p style=""font-size: 20px; font-weight: bold; margin: 0;"">Is there a person in this image?</p>
                    </div>
                </div>","0","main_experiment_trial","3","dog_causal","causal_sequence","","","","",""
"","","","","","html-keyboard-response","65","188658","0.0-65.0","CE15965E495347DC9BFCD68E789C61B4","019cf51a-b48f-7f46-9325-8f82fe48d893","019cf498-06e0-702e-b525-9cde1ad77653","","null","
                <div class=""stimulus-container"">
                    <img src=""images/causal_sequence/dog_causal/dog_causal_4.png"" class=""exp-image"">
                    <div class=""question-area""></div> 
                </div>","null","","","","","","","","",""
"","","","","","html-button-response","66","189385","0.0-66.0","CE15965E495347DC9BFCD68E789C61B4","019cf51a-b48f-7f46-9325-8f82fe48d893","019cf498-06e0-702e-b525-9cde1ad77653","","726","
                <div class=""stimulus-container"">
                    <img src=""images/causal_sequence/dog_causal/dog_causal_4.png"" class=""exp-image"">
                    <div class=""question-area"">
                        <p style=""font-size: 20px; font-weight: bold; margin: 0;"">Is there a person in this image?</p>
                    </div>
                </div>","0","main_experiment_trial","4","dog_causal","causal_sequence","","","","",""
"","","","","","html-keyboard-response","67","194388","0.0-67.0","CE15965E495347DC9BFCD68E789C61B4","019cf51a-b48f-7f46-9325-8f82fe48d893","019cf498-06e0-702e-b525-9cde1ad77653","","null","
                <div class=""stimulus-container"">
                    <img src=""images/causal_sequence/dog_causal/dog_causal_5.png"" class=""exp-image"">
                    <div class=""question-area""></div> 
                </div>","null","","","","","","","","",""
"","","","","","html-button-response","68","194535","0.0-68.0","CE15965E495347DC9BFCD68E789C61B4","019cf51a-b48f-7f46-9325-8f82fe48d893","019cf498-06e0-702e-b525-9cde1ad77653","","145","
                <div class=""stimulus-container"">
                    <img src=""images/causal_sequence/dog_causal/dog_causal_5.png"" class=""exp-image"">
                    <div class=""question-area"">
                        <p style=""font-size: 20px; font-weight: bold; margin: 0;"">Is there a person in this image?</p>
                    </div>
                </div>","0","main_experiment_trial","5","dog_causal","causal_sequence","","","","",""
"","","","","","html-keyboard-response","69","199552","0.0-69.0","CE15965E495347DC9BFCD68E789C61B4","019cf51a-b48f-7f46-9325-8f82fe48d893","019cf498-06e0-702e-b525-9cde1ad77653","","null","
                <div class=""stimulus-container"">
                    <img src=""images/causal_sequence/dog_causal/dog_causal_6.png"" class=""exp-image"">
                    <div class=""question-area""></div> 
                </div>","null","","","","","","","","",""
"","","","","","html-button-response","70","200087","0.0-70.0","CE15965E495347DC9BFCD68E789C61B4","019cf51a-b48f-7f46-9325-8f82fe48d893","019cf498-06e0-702e-b525-9cde1ad77653","","533","
                <div class=""stimulus-container"">
                    <img src=""images/causal_sequence/dog_causal/dog_causal_6.png"" class=""exp-image"">
                    <div class=""question-area"">
                        <p style=""font-size: 20px; font-weight: bold; margin: 0;"">Is there a person in this image?</p>
                    </div>
                </div>","0","main_experiment_trial","6","dog_causal","causal_sequence","","","","",""
"","","","","","html-keyboard-response","71","205089","0.0-71.0","CE15965E495347DC9BFCD68E789C61B4","019cf51a-b48f-7f46-9325-8f82fe48d893","019cf498-06e0-702e-b525-9cde1ad77653","","null","
                <div class=""stimulus-container"">
                    <img src=""images/causal_sequence/dog_causal/dog_causal_7.png"" class=""exp-image"">
                    <div class=""question-area""></div> 
                </div>","null","","","","","","","","",""
"","","","","","html-button-response","72","205646","0.0-72.0","CE15965E495347DC9BFCD68E789C61B4","019cf51a-b48f-7f46-9325-8f82fe48d893","019cf498-06e0-702e-b525-9cde1ad77653","","555","
                <div class=""stimulus-container"">
                    <img src=""images/causal_sequence/dog_causal/dog_causal_7.png"" class=""exp-image"">
                    <div class=""question-area"">
                        <p style=""font-size: 20px; font-weight: bold; margin: 0;"">Is there a person in this image?</p>
                    </div>
                </div>","0","main_experiment_trial","7","dog_causal","causal_sequence","","","","",""
"","","","","","html-keyboard-response","73","210648","0.0-73.0","CE15965E495347DC9BFCD68E789C61B4","019cf51a-b48f-7f46-9325-8f82fe48d893","019cf498-06e0-702e-b525-9cde1ad77653","","null","
                <div class=""stimulus-container"">
                    <img src=""images/causal_sequence/dog_causal/dog_causal_8.png"" class=""exp-image"">
                    <div class=""question-area""></div> 
                </div>","null","","","","","","","","",""
"","","","","","html-button-response","74","211225","0.0-74.0","CE15965E495347DC9BFCD68E789C61B4","019cf51a-b48f-7f46-9325-8f82fe48d893","019cf498-06e0-702e-b525-9cde1ad77653","","575","
                <div class=""stimulus-container"">
                    <img src=""images/causal_sequence/dog_causal/dog_causal_8.png"" class=""exp-image"">
                    <div class=""question-area"">
                        <p style=""font-size: 20px; font-weight: bold; margin: 0;"">Is there a person in this image?</p>
                    </div>
                </div>","0","main_experiment_trial","8","dog_causal","causal_sequence","","","","",""
"","","","","","html-keyboard-response","75","216227","0.0-75.0","CE15965E495347DC9BFCD68E789C61B4","019cf51a-b48f-7f46-9325-8f82fe48d893","019cf498-06e0-702e-b525-9cde1ad77653","","null","
                <div class=""stimulus-container"">
                    <img src=""images/causal_sequence/dog_causal/dog_causal_9.png"" class=""exp-image"">
                    <div class=""question-area""></div> 
                </div>","null","","","","","","","","",""
"","","","","","html-button-response","76","216844","0.0-76.0","CE15965E495347DC9BFCD68E789C61B4","019cf51a-b48f-7f46-9325-8f82fe48d893","019cf498-06e0-702e-b525-9cde1ad77653","","616","
                <div class=""stimulus-container"">
                    <img src=""images/causal_sequence/dog_causal/dog_causal_9.png"" class=""exp-image"">
                    <div class=""question-area"">
                        <p style=""font-size: 20px; font-weight: bold; margin: 0;"">Is there a person in this image?</p>
                    </div>
                </div>","0","main_experiment_trial","9","dog_causal","causal_sequence","","","","",""
"","","","","","html-keyboard-response","77","221846","0.0-77.0","CE15965E495347DC9BFCD68E789C61B4","019cf51a-b48f-7f46-9325-8f82fe48d893","019cf498-06e0-702e-b525-9cde1ad77653","","null","
                <div class=""stimulus-container"">
                    <img src=""images/causal_sequence/dog_causal/dog_causal_ten.png"" class=""exp-image"">
                    <div class=""question-area""></div> 
                </div>","null","","","","","","","","",""
"","","","","","html-button-response","78","222409","0.0-78.0","CE15965E495347DC9BFCD68E789C61B4","019cf51a-b48f-7f46-9325-8f82fe48d893","019cf498-06e0-702e-b525-9cde1ad77653","","562","
                <div class=""stimulus-container"">
                    <img src=""images/causal_sequence/dog_causal/dog_causal_ten.png"" class=""exp-image"">
                    <div class=""question-area"">
                        <p style=""font-size: 20px; font-weight: bold; margin: 0;"">Is there a person in this image?</p>
                    </div>
                </div>","0","main_experiment_trial","ten","dog_causal","causal_sequence","","","","",""
"","","","","","html-keyboard-response","79","223410","0.0-79.0","CE15965E495347DC9BFCD68E789C61B4","019cf51a-b48f-7f46-9325-8f82fe48d893","019cf498-06e0-702e-b525-9cde1ad77653","","null","<div style=""background-color: white; width: 100vw; height: 100vh;""></div>","null","","","","","","","","",""
"","","","","","html-keyboard-response","80","228415","0.0-80.0","CE15965E495347DC9BFCD68E789C61B4","019cf51a-b48f-7f46-9325-8f82fe48d893","019cf498-06e0-702e-b525-9cde1ad77653","","null","
                <div class=""stimulus-container"">
                    <img src=""images/causal_sequence/museum_causal/museum_causal_1.png"" class=""exp-image"">
                    <div class=""question-area""></div> 
                </div>","null","","","","","","","","",""
"","","","","","html-button-response","81","228970","0.0-81.0","CE15965E495347DC9BFCD68E789C61B4","019cf51a-b48f-7f46-9325-8f82fe48d893","019cf498-06e0-702e-b525-9cde1ad77653","","553","
                <div class=""stimulus-container"">
                    <img src=""images/causal_sequence/museum_causal/museum_causal_1.png"" class=""exp-image"">
                    <div class=""question-area"">
                        <p style=""font-size: 20px; font-weight: bold; margin: 0;"">Is there a person in this image?</p>
                    </div>
                </div>","0","main_experiment_trial","1","museum_causal","causal_sequence","","","","",""
"","","","","","html-keyboard-response","82","233973","0.0-82.0","CE15965E495347DC9BFCD68E789C61B4","019cf51a-b48f-7f46-9325-8f82fe48d893","019cf498-06e0-702e-b525-9cde1ad77653","","null","
                <div class=""stimulus-container"">
                    <img src=""images/causal_sequence/museum_causal/museum_causal_2.png"" class=""exp-image"">
                    <div class=""question-area""></div> 
                </div>","null","","","","","","","","",""
"","","","","","html-button-response","83","236264","0.0-83.0","CE15965E495347DC9BFCD68E789C61B4","019cf51a-b48f-7f46-9325-8f82fe48d893","019cf498-06e0-702e-b525-9cde1ad77653","","2289","
                <div class=""stimulus-container"">
                    <img src=""images/causal_sequence/museum_causal/museum_causal_2.png"" class=""exp-image"">
                    <div class=""question-area"">
                        <p style=""font-size: 20px; font-weight: bold; margin: 0;"">Is there a person in this image?</p>
                    </div>
                </div>","0","main_experiment_trial","2","museum_causal","causal_sequence","","","","",""
"","","","","","html-keyboard-response","84","241267","0.0-84.0","CE15965E495347DC9BFCD68E789C61B4","019cf51a-b48f-7f46-9325-8f82fe48d893","019cf498-06e0-702e-b525-9cde1ad77653","","null","
                <div class=""stimulus-container"">
                    <img src=""images/causal_sequence/museum_causal/museum_causal_3.png"" class=""exp-image"">
                    <div class=""question-area""></div> 
                </div>","null","","","","","","","","",""
"","","","","","html-button-response","85","242059","0.0-85.0","CE15965E495347DC9BFCD68E789C61B4","019cf51a-b48f-7f46-9325-8f82fe48d893","019cf498-06e0-702e-b525-9cde1ad77653","","790","
                <div class=""stimulus-container"">
                    <img src=""images/causal_sequence/museum_causal/museum_causal_3.png"" class=""exp-image"">
                    <div class=""question-area"">
                        <p style=""font-size: 20px; font-weight: bold; margin: 0;"">Is there a person in this image?</p>
                    </div>
                </div>","0","main_experiment_trial","3","museum_causal","causal_sequence","","","","",""
"","","","","","html-keyboard-response","86","247061","0.0-86.0","CE15965E495347DC9BFCD68E789C61B4","019cf51a-b48f-7f46-9325-8f82fe48d893","019cf498-06e0-702e-b525-9cde1ad77653","","null","
                <div class=""stimulus-container"">
                    <img src=""images/causal_sequence/museum_causal/museum_causal_4.png"" class=""exp-image"">
                    <div class=""question-area""></div> 
                </div>","null","","","","","","","","",""
"","","","","","html-button-response","87","247638","0.0-87.0","CE15965E495347DC9BFCD68E789C61B4","019cf51a-b48f-7f46-9325-8f82fe48d893","019cf498-06e0-702e-b525-9cde1ad77653","","576","
                <div class=""stimulus-container"">
                    <img src=""images/causal_sequence/museum_causal/museum_causal_4.png"" class=""exp-image"">
                    <div class=""question-area"">
                        <p style=""font-size: 20px; font-weight: bold; margin: 0;"">Is there a person in this image?</p>
                    </div>
                </div>","1","main_experiment_trial","4","museum_causal","causal_sequence","","","","",""
"","","","","","html-keyboard-response","88","252641","0.0-88.0","CE15965E495347DC9BFCD68E789C61B4","019cf51a-b48f-7f46-9325-8f82fe48d893","019cf498-06e0-702e-b525-9cde1ad77653","","null","
                <div class=""stimulus-container"">
                    <img src=""images/causal_sequence/museum_causal/museum_causal_5.png"" class=""exp-image"">
                    <div class=""question-area""></div> 
                </div>","null","","","","","","","","",""
"","","","","","html-button-response","89","253114","0.0-89.0","CE15965E495347DC9BFCD68E789C61B4","019cf51a-b48f-7f46-9325-8f82fe48d893","019cf498-06e0-702e-b525-9cde1ad77653","","471","
                <div class=""stimulus-container"">
                    <img src=""images/causal_sequence/museum_causal/museum_causal_5.png"" class=""exp-image"">
                    <div class=""question-area"">
                        <p style=""font-size: 20px; font-weight: bold; margin: 0;"">Is there a person in this image?</p>
                    </div>
                </div>","0","main_experiment_trial","5","museum_causal","causal_sequence","","","","",""
"","","","","","html-keyboard-response","90","258116","0.0-90.0","CE15965E495347DC9BFCD68E789C61B4","019cf51a-b48f-7f46-9325-8f82fe48d893","019cf498-06e0-702e-b525-9cde1ad77653","","null","
                <div class=""stimulus-container"">
                    <img src=""images/causal_sequence/museum_causal/museum_causal_6.png"" class=""exp-image"">
                    <div class=""question-area""></div> 
                </div>","null","","","","","","","","",""
"","","","","","html-button-response","91","258509","0.0-91.0","CE15965E495347DC9BFCD68E789C61B4","019cf51a-b48f-7f46-9325-8f82fe48d893","019cf498-06e0-702e-b525-9cde1ad77653","","393","
                <div class=""stimulus-container"">
                    <img src=""images/causal_sequence/museum_causal/museum_causal_6.png"" class=""exp-image"">
                    <div class=""question-area"">
                        <p style=""font-size: 20px; font-weight: bold; margin: 0;"">Is there a person in this image?</p>
                    </div>
                </div>","0","main_experiment_trial","6","museum_causal","causal_sequence","","","","",""
"","","","","","html-keyboard-response","92","263511","0.0-92.0","CE15965E495347DC9BFCD68E789C61B4","019cf51a-b48f-7f46-9325-8f82fe48d893","019cf498-06e0-702e-b525-9cde1ad77653","","null","
                <div class=""stimulus-container"">
                    <img src=""images/causal_sequence/museum_causal/museum_causal_7.png"" class=""exp-image"">
                    <div class=""question-area""></div> 
                </div>","null","","","","","","","","",""
"","","","","","html-button-response","93","265101","0.0-93.0","CE15965E495347DC9BFCD68E789C61B4","019cf51a-b48f-7f46-9325-8f82fe48d893","019cf498-06e0-702e-b525-9cde1ad77653","","1589","
                <div class=""stimulus-container"">
                    <img src=""images/causal_sequence/museum_causal/museum_causal_7.png"" class=""exp-image"">
                    <div class=""question-area"">
                        <p style=""font-size: 20px; font-weight: bold; margin: 0;"">Is there a person in this image?</p>
                    </div>
                </div>","1","main_experiment_trial","7","museum_causal","causal_sequence","","","","",""
"","","","","","html-keyboard-response","94","270103","0.0-94.0","CE15965E495347DC9BFCD68E789C61B4","019cf51a-b48f-7f46-9325-8f82fe48d893","019cf498-06e0-702e-b525-9cde1ad77653","","null","
                <div class=""stimulus-container"">
                    <img src=""images/causal_sequence/museum_causal/museum_causal_8.png"" class=""exp-image"">
                    <div class=""question-area""></div> 
                </div>","null","","","","","","","","",""
"","","","","","html-button-response","95","270633","0.0-95.0","CE15965E495347DC9BFCD68E789C61B4","019cf51a-b48f-7f46-9325-8f82fe48d893","019cf498-06e0-702e-b525-9cde1ad77653","","527","
                <div class=""stimulus-container"">
                    <img src=""images/causal_sequence/museum_causal/museum_causal_8.png"" class=""exp-image"">
                    <div class=""question-area"">
                        <p style=""font-size: 20px; font-weight: bold; margin: 0;"">Is there a person in this image?</p>
                    </div>
                </div>","0","main_experiment_trial","8","museum_causal","causal_sequence","","","","",""
"","","","","","html-keyboard-response","96","275636","0.0-96.0","CE15965E495347DC9BFCD68E789C61B4","019cf51a-b48f-7f46-9325-8f82fe48d893","019cf498-06e0-702e-b525-9cde1ad77653","","null","
                <div class=""stimulus-container"">
                    <img src=""images/causal_sequence/museum_causal/museum_causal_9.png"" class=""exp-image"">
                    <div class=""question-area""></div> 
                </div>","null","","","","","","","","",""
"","","","","","html-button-response","97","276181","0.0-97.0","CE15965E495347DC9BFCD68E789C61B4","019cf51a-b48f-7f46-9325-8f82fe48d893","019cf498-06e0-702e-b525-9cde1ad77653","","543","
                <div class=""stimulus-container"">
                    <img src=""images/causal_sequence/museum_causal/museum_causal_9.png"" class=""exp-image"">
                    <div class=""question-area"">
                        <p style=""font-size: 20px; font-weight: bold; margin: 0;"">Is there a person in this image?</p>
                    </div>
                </div>","1","main_experiment_trial","9","museum_causal","causal_sequence","","","","",""
"","","","","","html-keyboard-response","98","281183","0.0-98.0","CE15965E495347DC9BFCD68E789C61B4","019cf51a-b48f-7f46-9325-8f82fe48d893","019cf498-06e0-702e-b525-9cde1ad77653","","null","
                <div class=""stimulus-container"">
                    <img src=""images/causal_sequence/museum_causal/museum_causal_ten.png"" class=""exp-image"">
                    <div class=""question-area""></div> 
                </div>","null","","","","","","","","",""
"","","","","","html-button-response","99","281885","0.0-99.0","CE15965E495347DC9BFCD68E789C61B4","019cf51a-b48f-7f46-9325-8f82fe48d893","019cf498-06e0-702e-b525-9cde1ad77653","","700","
                <div class=""stimulus-container"">
                    <img src=""images/causal_sequence/museum_causal/museum_causal_ten.png"" class=""exp-image"">
                    <div class=""question-area"">
                        <p style=""font-size: 20px; font-weight: bold; margin: 0;"">Is there a person in this image?</p>
                    </div>
                </div>","0","main_experiment_trial","ten","museum_causal","causal_sequence","","","","",""
"","","","","","html-keyboard-response","100","282886","0.0-100.0","CE15965E495347DC9BFCD68E789C61B4","019cf51a-b48f-7f46-9325-8f82fe48d893","019cf498-06e0-702e-b525-9cde1ad77653","","null","<div style=""background-color: white; width: 100vw; height: 100vh;""></div>","null","","","","","","","","",""
"","","","","","html-keyboard-response","101","287889","0.0-101.0","CE15965E495347DC9BFCD68E789C61B4","019cf51a-b48f-7f46-9325-8f82fe48d893","019cf498-06e0-702e-b525-9cde1ad77653","","null","
                <div class=""stimulus-container"">
                    <img src=""images/causal_sequence/saving_a_cat_causal/saving_a_cat_causal_1.png"" class=""exp-image"">
                    <div class=""question-area""></div> 
                </div>","null","","","","","","","","",""
"","","","","","html-button-response","102","288357","0.0-102.0","CE15965E495347DC9BFCD68E789C61B4","019cf51a-b48f-7f46-9325-8f82fe48d893","019cf498-06e0-702e-b525-9cde1ad77653","","466","
                <div class=""stimulus-container"">
                    <img src=""images/causal_sequence/saving_a_cat_causal/saving_a_cat_causal_1.png"" class=""exp-image"">
                    <div class=""question-area"">
                        <p style=""font-size: 20px; font-weight: bold; margin: 0;"">Is there a person in this image?</p>
                    </div>
                </div>","0","main_experiment_trial","1","saving_a_cat_causal","causal_sequence","","","","",""
"","","","","","html-keyboard-response","103","293359","0.0-103.0","CE15965E495347DC9BFCD68E789C61B4","019cf51a-b48f-7f46-9325-8f82fe48d893","019cf498-06e0-702e-b525-9cde1ad77653","","null","
                <div class=""stimulus-container"">
                    <img src=""images/causal_sequence/saving_a_cat_causal/saving_a_cat_causal_2.png"" class=""exp-image"">
                    <div class=""question-area""></div> 
                </div>","null","","","","","","","","",""
"","","","","","html-button-response","104","296183","0.0-104.0","CE15965E495347DC9BFCD68E789C61B4","019cf51a-b48f-7f46-9325-8f82fe48d893","019cf498-06e0-702e-b525-9cde1ad77653","","2823","
                <div class=""stimulus-container"">
                    <img src=""images/causal_sequence/saving_a_cat_causal/saving_a_cat_causal_2.png"" class=""exp-image"">
                    <div class=""question-area"">
                        <p style=""font-size: 20px; font-weight: bold; margin: 0;"">Is there a person in this image?</p>
                    </div>
                </div>","1","main_experiment_trial","2","saving_a_cat_causal","causal_sequence","","","","",""
"","","","","","html-keyboard-response","105","301186","0.0-105.0","CE15965E495347DC9BFCD68E789C61B4","019cf51a-b48f-7f46-9325-8f82fe48d893","019cf498-06e0-702e-b525-9cde1ad77653","","null","
                <div class=""stimulus-container"">
                    <img src=""images/causal_sequence/saving_a_cat_causal/saving_a_cat_causal_3.png"" class=""exp-image"">
                    <div class=""question-area""></div> 
                </div>","null","","","","","","","","",""
"","","","","","html-button-response","106","301772","0.0-106.0","CE15965E495347DC9BFCD68E789C61B4","019cf51a-b48f-7f46-9325-8f82fe48d893","019cf498-06e0-702e-b525-9cde1ad77653","","585","
                <div class=""stimulus-container"">
                    <img src=""images/causal_sequence/saving_a_cat_causal/saving_a_cat_causal_3.png"" class=""exp-image"">
                    <div class=""question-area"">
                        <p style=""font-size: 20px; font-weight: bold; margin: 0;"">Is there a person in this image?</p>
                    </div>
                </div>","1","main_experiment_trial","3","saving_a_cat_causal","causal_sequence","","","","",""
"","","","","","html-keyboard-response","107","306775","0.0-107.0","CE15965E495347DC9BFCD68E789C61B4","019cf51a-b48f-7f46-9325-8f82fe48d893","019cf498-06e0-702e-b525-9cde1ad77653","","null","
                <div class=""stimulus-container"">
                    <img src=""images/causal_sequence/saving_a_cat_causal/saving_a_cat_causal_4.png"" class=""exp-image"">
                    <div class=""question-area""></div> 
                </div>","null","","","","","","","","",""
"","","","","","html-button-response","108","307271","0.0-108.0","CE15965E495347DC9BFCD68E789C61B4","019cf51a-b48f-7f46-9325-8f82fe48d893","019cf498-06e0-702e-b525-9cde1ad77653","","494","
                <div class=""stimulus-container"">
                    <img src=""images/causal_sequence/saving_a_cat_causal/saving_a_cat_causal_4.png"" class=""exp-image"">
                    <div class=""question-area"">
                        <p style=""font-size: 20px; font-weight: bold; margin: 0;"">Is there a person in this image?</p>
                    </div>
                </div>","0","main_experiment_trial","4","saving_a_cat_causal","causal_sequence","","","","",""
"","","","","","html-keyboard-response","109","312274","0.0-109.0","CE15965E495347DC9BFCD68E789C61B4","019cf51a-b48f-7f46-9325-8f82fe48d893","019cf498-06e0-702e-b525-9cde1ad77653","","null","
                <div class=""stimulus-container"">
                    <img src=""images/causal_sequence/saving_a_cat_causal/saving_a_cat_causal_5.png"" class=""exp-image"">
                    <div class=""question-area""></div> 
                </div>","null","","","","","","","","",""
"","","","","","html-button-response","110","313288","0.0-110.0","CE15965E495347DC9BFCD68E789C61B4","019cf51a-b48f-7f46-9325-8f82fe48d893","019cf498-06e0-702e-b525-9cde1ad77653","","1012","
                <div class=""stimulus-container"">
                    <img src=""images/causal_sequence/saving_a_cat_causal/saving_a_cat_causal_5.png"" class=""exp-image"">
                    <div class=""question-area"">
                        <p style=""font-size: 20px; font-weight: bold; margin: 0;"">Is there a person in this image?</p>
                    </div>
                </div>","0","main_experiment_trial","5","saving_a_cat_causal","causal_sequence","","","","",""
"","","","","","html-keyboard-response","111","318290","0.0-111.0","CE15965E495347DC9BFCD68E789C61B4","019cf51a-b48f-7f46-9325-8f82fe48d893","019cf498-06e0-702e-b525-9cde1ad77653","","null","
                <div class=""stimulus-container"">
                    <img src=""images/causal_sequence/saving_a_cat_causal/saving_a_cat_causal_6.png"" class=""exp-image"">
                    <div class=""question-area""></div> 
                </div>","null","","","","","","","","",""
"","","","","","html-button-response","112","319336","0.0-112.0","CE15965E495347DC9BFCD68E789C61B4","019cf51a-b48f-7f46-9325-8f82fe48d893","019cf498-06e0-702e-b525-9cde1ad77653","","1045","
                <div class=""stimulus-container"">
                    <img src=""images/causal_sequence/saving_a_cat_causal/saving_a_cat_causal_6.png"" class=""exp-image"">
                    <div class=""question-area"">
                        <p style=""font-size: 20px; font-weight: bold; margin: 0;"">Is there a person in this image?</p>
                    </div>
                </div>","0","main_experiment_trial","6","saving_a_cat_causal","causal_sequence","","","","",""
"","","","","","html-keyboard-response","113","324339","0.0-113.0","CE15965E495347DC9BFCD68E789C61B4","019cf51a-b48f-7f46-9325-8f82fe48d893","019cf498-06e0-702e-b525-9cde1ad77653","","null","
                <div class=""stimulus-container"">
                    <img src=""images/causal_sequence/saving_a_cat_causal/saving_a_cat_causal_7.png"" class=""exp-image"">
                    <div class=""question-area""></div> 
                </div>","null","","","","","","","","",""
"","","","","","html-button-response","114","324968","0.0-114.0","CE15965E495347DC9BFCD68E789C61B4","019cf51a-b48f-7f46-9325-8f82fe48d893","019cf498-06e0-702e-b525-9cde1ad77653","","627","
                <div class=""stimulus-container"">
                    <img src=""images/causal_sequence/saving_a_cat_causal/saving_a_cat_causal_7.png"" class=""exp-image"">
                    <div class=""question-area"">
                        <p style=""font-size: 20px; font-weight: bold; margin: 0;"">Is there a person in this image?</p>
                    </div>
                </div>","0","main_experiment_trial","7","saving_a_cat_causal","causal_sequence","","","","",""
"","","","","","html-keyboard-response","115","329970","0.0-115.0","CE15965E495347DC9BFCD68E789C61B4","019cf51a-b48f-7f46-9325-8f82fe48d893","019cf498-06e0-702e-b525-9cde1ad77653","","null","
                <div class=""stimulus-container"">
                    <img src=""images/causal_sequence/saving_a_cat_causal/saving_a_cat_causal_8.png"" class=""exp-image"">
                    <div class=""question-area""></div> 
                </div>","null","","","","","","","","",""
"","","","","","html-button-response","116","331403","0.0-116.0","CE15965E495347DC9BFCD68E789C61B4","019cf51a-b48f-7f46-9325-8f82fe48d893","019cf498-06e0-702e-b525-9cde1ad77653","","1432","
                <div class=""stimulus-container"">
                    <img src=""images/causal_sequence/saving_a_cat_causal/saving_a_cat_causal_8.png"" class=""exp-image"">
                    <div class=""question-area"">
                        <p style=""font-size: 20px; font-weight: bold; margin: 0;"">Is there a person in this image?</p>
                    </div>
                </div>","0","main_experiment_trial","8","saving_a_cat_causal","causal_sequence","","","","",""
"","","","","","html-keyboard-response","117","336406","0.0-117.0","CE15965E495347DC9BFCD68E789C61B4","019cf51a-b48f-7f46-9325-8f82fe48d893","019cf498-06e0-702e-b525-9cde1ad77653","","null","
                <div class=""stimulus-container"">
                    <img src=""images/causal_sequence/saving_a_cat_causal/saving_a_cat_causal_9.png"" class=""exp-image"">
                    <div class=""question-area""></div> 
                </div>","null","","","","","","","","",""
"","","","","","html-button-response","118","337046","0.0-118.0","CE15965E495347DC9BFCD68E789C61B4","019cf51a-b48f-7f46-9325-8f82fe48d893","019cf498-06e0-702e-b525-9cde1ad77653","","638","
                <div class=""stimulus-container"">
                    <img src=""images/causal_sequence/saving_a_cat_causal/saving_a_cat_causal_9.png"" class=""exp-image"">
                    <div class=""question-area"">
                        <p style=""font-size: 20px; font-weight: bold; margin: 0;"">Is there a person in this image?</p>
                    </div>
                </div>","0","main_experiment_trial","9","saving_a_cat_causal","causal_sequence","","","","",""
"","","","","","html-keyboard-response","119","342049","0.0-119.0","CE15965E495347DC9BFCD68E789C61B4","019cf51a-b48f-7f46-9325-8f82fe48d893","019cf498-06e0-702e-b525-9cde1ad77653","","null","
                <div class=""stimulus-container"">
                    <img src=""images/causal_sequence/saving_a_cat_causal/saving_a_cat_causal_ten.png"" class=""exp-image"">
                    <div class=""question-area""></div> 
                </div>","null","","","","","","","","",""
"","","","","","html-button-response","120","342478","0.0-120.0","CE15965E495347DC9BFCD68E789C61B4","019cf51a-b48f-7f46-9325-8f82fe48d893","019cf498-06e0-702e-b525-9cde1ad77653","","428","
                <div class=""stimulus-container"">
                    <img src=""images/causal_sequence/saving_a_cat_causal/saving_a_cat_causal_ten.png"" class=""exp-image"">
                    <div class=""question-area"">
                        <p style=""font-size: 20px; font-weight: bold; margin: 0;"">Is there a person in this image?</p>
                    </div>
                </div>","0","main_experiment_trial","ten","saving_a_cat_causal","causal_sequence","","","","",""
"","","","","","html-keyboard-response","121","343479","0.0-121.0","CE15965E495347DC9BFCD68E789C61B4","019cf51a-b48f-7f46-9325-8f82fe48d893","019cf498-06e0-702e-b525-9cde1ad77653","","null","<div style=""background-color: white; width: 100vw; height: 100vh;""></div>","null","","","","","","","","",""
"","","","","","html-keyboard-response","122","348482","0.0-122.0","CE15965E495347DC9BFCD68E789C61B4","019cf51a-b48f-7f46-9325-8f82fe48d893","019cf498-06e0-702e-b525-9cde1ad77653","","null","
                <div class=""stimulus-container"">
                    <img src=""images/schematic_sequence/supermarket_scheme/supermarket_scheme_1.png"" class=""exp-image"">
                    <div class=""question-area""></div> 
                </div>","null","","","","","","","","",""
"","","","","","html-button-response","123","349022","0.0-123.0","CE15965E495347DC9BFCD68E789C61B4","019cf51a-b48f-7f46-9325-8f82fe48d893","019cf498-06e0-702e-b525-9cde1ad77653","","539","
                <div class=""stimulus-container"">
                    <img src=""images/schematic_sequence/supermarket_scheme/supermarket_scheme_1.png"" class=""exp-image"">
                    <div class=""question-area"">
                        <p style=""font-size: 20px; font-weight: bold; margin: 0;"">Is there a person in this image?</p>
                    </div>
                </div>","1","main_experiment_trial","1","supermarket_scheme","schematic_sequence","","","","",""
"","","","","","html-keyboard-response","124","354025","0.0-124.0","CE15965E495347DC9BFCD68E789C61B4","019cf51a-b48f-7f46-9325-8f82fe48d893","019cf498-06e0-702e-b525-9cde1ad77653","","null","
                <div class=""stimulus-container"">
                    <img src=""images/schematic_sequence/supermarket_scheme/supermarket_scheme_2.png"" class=""exp-image"">
                    <div class=""question-area""></div> 
                </div>","null","","","","","","","","",""
"","","","","","html-button-response","125","354601","0.0-125.0","CE15965E495347DC9BFCD68E789C61B4","019cf51a-b48f-7f46-9325-8f82fe48d893","019cf498-06e0-702e-b525-9cde1ad77653","","574","
                <div class=""stimulus-container"">
                    <img src=""images/schematic_sequence/supermarket_scheme/supermarket_scheme_2.png"" class=""exp-image"">
                    <div class=""question-area"">
                        <p style=""font-size: 20px; font-weight: bold; margin: 0;"">Is there a person in this image?</p>
                    </div>
                </div>","1","main_experiment_trial","2","supermarket_scheme","schematic_sequence","","","","",""
"","","","","","html-keyboard-response","126","359603","0.0-126.0","CE15965E495347DC9BFCD68E789C61B4","019cf51a-b48f-7f46-9325-8f82fe48d893","019cf498-06e0-702e-b525-9cde1ad77653","","null","
                <div class=""stimulus-container"">
                    <img src=""images/schematic_sequence/supermarket_scheme/supermarket_scheme_3.png"" class=""exp-image"">
                    <div class=""question-area""></div> 
                </div>","null","","","","","","","","",""
"","","","","","html-button-response","127","360077","0.0-127.0","CE15965E495347DC9BFCD68E789C61B4","019cf51a-b48f-7f46-9325-8f82fe48d893","019cf498-06e0-702e-b525-9cde1ad77653","","472","
                <div class=""stimulus-container"">
                    <img src=""images/schematic_sequence/supermarket_scheme/supermarket_scheme_3.png"" class=""exp-image"">
                    <div class=""question-area"">
                        <p style=""font-size: 20px; font-weight: bold; margin: 0;"">Is there a person in this image?</p>
                    </div>
                </div>","1","main_experiment_trial","3","supermarket_scheme","schematic_sequence","","","","",""
"","","","","","html-keyboard-response","128","365079","0.0-128.0","CE15965E495347DC9BFCD68E789C61B4","019cf51a-b48f-7f46-9325-8f82fe48d893","019cf498-06e0-702e-b525-9cde1ad77653","","null","
                <div class=""stimulus-container"">
                    <img src=""images/schematic_sequence/supermarket_scheme/supermarket_scheme_4.png"" class=""exp-image"">
                    <div class=""question-area""></div> 
                </div>","null","","","","","","","","",""
"","","","","","html-button-response","129","366099","0.0-129.0","CE15965E495347DC9BFCD68E789C61B4","019cf51a-b48f-7f46-9325-8f82fe48d893","019cf498-06e0-702e-b525-9cde1ad77653","","1018","
                <div class=""stimulus-container"">
                    <img src=""images/schematic_sequence/supermarket_scheme/supermarket_scheme_4.png"" class=""exp-image"">
                    <div class=""question-area"">
                        <p style=""font-size: 20px; font-weight: bold; margin: 0;"">Is there a person in this image?</p>
                    </div>
                </div>","0","main_experiment_trial","4","supermarket_scheme","schematic_sequence","","","","",""
"","","","","","html-keyboard-response","130","371102","0.0-130.0","CE15965E495347DC9BFCD68E789C61B4","019cf51a-b48f-7f46-9325-8f82fe48d893","019cf498-06e0-702e-b525-9cde1ad77653","","null","
                <div class=""stimulus-container"">
                    <img src=""images/schematic_sequence/supermarket_scheme/supermarket_scheme_5.png"" class=""exp-image"">
                    <div class=""question-area""></div> 
                </div>","null","","","","","","","","",""
"","","","","","html-button-response","131","372252","0.0-131.0","CE15965E495347DC9BFCD68E789C61B4","019cf51a-b48f-7f46-9325-8f82fe48d893","019cf498-06e0-702e-b525-9cde1ad77653","","1148","
                <div class=""stimulus-container"">
                    <img src=""images/schematic_sequence/supermarket_scheme/supermarket_scheme_5.png"" class=""exp-image"">
                    <div class=""question-area"">
                        <p style=""font-size: 20px; font-weight: bold; margin: 0;"">Is there a person in this image?</p>
                    </div>
                </div>","1","main_experiment_trial","5","supermarket_scheme","schematic_sequence","","","","",""
"","","","","","html-keyboard-response","132","377254","0.0-132.0","CE15965E495347DC9BFCD68E789C61B4","019cf51a-b48f-7f46-9325-8f82fe48d893","019cf498-06e0-702e-b525-9cde1ad77653","","null","
                <div class=""stimulus-container"">
                    <img src=""images/schematic_sequence/supermarket_scheme/supermarket_scheme_6.png"" class=""exp-image"">
                    <div class=""question-area""></div> 
                </div>","null","","","","","","","","",""
"","","","","","html-button-response","133","377991","0.0-133.0","CE15965E495347DC9BFCD68E789C61B4","019cf51a-b48f-7f46-9325-8f82fe48d893","019cf498-06e0-702e-b525-9cde1ad77653","","735","
                <div class=""stimulus-container"">
                    <img src=""images/schematic_sequence/supermarket_scheme/supermarket_scheme_6.png"" class=""exp-image"">
                    <div class=""question-area"">
                        <p style=""font-size: 20px; font-weight: bold; margin: 0;"">Is there a person in this image?</p>
                    </div>
                </div>","0","main_experiment_trial","6","supermarket_scheme","schematic_sequence","","","","",""
"","","","","","html-keyboard-response","134","382993","0.0-134.0","CE15965E495347DC9BFCD68E789C61B4","019cf51a-b48f-7f46-9325-8f82fe48d893","019cf498-06e0-702e-b525-9cde1ad77653","","null","
                <div class=""stimulus-container"">
                    <img src=""images/schematic_sequence/supermarket_scheme/supermarket_scheme_7.png"" class=""exp-image"">
                    <div class=""question-area""></div> 
                </div>","null","","","","","","","","",""
"","","","","","html-button-response","135","383686","0.0-135.0","CE15965E495347DC9BFCD68E789C61B4","019cf51a-b48f-7f46-9325-8f82fe48d893","019cf498-06e0-702e-b525-9cde1ad77653","","691","
                <div class=""stimulus-container"">
                    <img src=""images/schematic_sequence/supermarket_scheme/supermarket_scheme_7.png"" class=""exp-image"">
                    <div class=""question-area"">
                        <p style=""font-size: 20px; font-weight: bold; margin: 0;"">Is there a person in this image?</p>
                    </div>
                </div>","0","main_experiment_trial","7","supermarket_scheme","schematic_sequence","","","","",""
"","","","","","html-keyboard-response","136","388688","0.0-136.0","CE15965E495347DC9BFCD68E789C61B4","019cf51a-b48f-7f46-9325-8f82fe48d893","019cf498-06e0-702e-b525-9cde1ad77653","","null","
                <div class=""stimulus-container"">
                    <img src=""images/schematic_sequence/supermarket_scheme/supermarket_scheme_8.png"" class=""exp-image"">
                    <div class=""question-area""></div> 
                </div>","null","","","","","","","","",""
"","","","","","html-button-response","137","389621","0.0-137.0","CE15965E495347DC9BFCD68E789C61B4","019cf51a-b48f-7f46-9325-8f82fe48d893","019cf498-06e0-702e-b525-9cde1ad77653","","932","
                <div class=""stimulus-container"">
                    <img src=""images/schematic_sequence/supermarket_scheme/supermarket_scheme_8.png"" class=""exp-image"">
                    <div class=""question-area"">
                        <p style=""font-size: 20px; font-weight: bold; margin: 0;"">Is there a person in this image?</p>
                    </div>
                </div>","0","main_experiment_trial","8","supermarket_scheme","schematic_sequence","","","","",""
"","","","","","html-keyboard-response","138","394623","0.0-138.0","CE15965E495347DC9BFCD68E789C61B4","019cf51a-b48f-7f46-9325-8f82fe48d893","019cf498-06e0-702e-b525-9cde1ad77653","","null","
                <div class=""stimulus-container"">
                    <img src=""images/schematic_sequence/supermarket_scheme/supermarket_scheme_9.png"" class=""exp-image"">
                    <div class=""question-area""></div> 
                </div>","null","","","","","","","","",""
"","","","","","html-button-response","139","395100","0.0-139.0","CE15965E495347DC9BFCD68E789C61B4","019cf51a-b48f-7f46-9325-8f82fe48d893","019cf498-06e0-702e-b525-9cde1ad77653","","475","
                <div class=""stimulus-container"">
                    <img src=""images/schematic_sequence/supermarket_scheme/supermarket_scheme_9.png"" class=""exp-image"">
                    <div class=""question-area"">
                        <p style=""font-size: 20px; font-weight: bold; margin: 0;"">Is there a person in this image?</p>
                    </div>
                </div>","0","main_experiment_trial","9","supermarket_scheme","schematic_sequence","","","","",""
"","","","","","html-keyboard-response","140","400103","0.0-140.0","CE15965E495347DC9BFCD68E789C61B4","019cf51a-b48f-7f46-9325-8f82fe48d893","019cf498-06e0-702e-b525-9cde1ad77653","","null","
                <div class=""stimulus-container"">
                    <img src=""images/schematic_sequence/supermarket_scheme/supermarket_scheme_ten.png"" class=""exp-image"">
                    <div class=""question-area""></div> 
                </div>","null","","","","","","","","",""
"","","","","","html-button-response","141","401393","0.0-141.0","CE15965E495347DC9BFCD68E789C61B4","019cf51a-b48f-7f46-9325-8f82fe48d893","019cf498-06e0-702e-b525-9cde1ad77653","","1288","
                <div class=""stimulus-container"">
                    <img src=""images/schematic_sequence/supermarket_scheme/supermarket_scheme_ten.png"" class=""exp-image"">
                    <div class=""question-area"">
                        <p style=""font-size: 20px; font-weight: bold; margin: 0;"">Is there a person in this image?</p>
                    </div>
                </div>","1","main_experiment_trial","ten","supermarket_scheme","schematic_sequence","","","","",""
"","","","","","html-keyboard-response","142","402395","0.0-142.0","CE15965E495347DC9BFCD68E789C61B4","019cf51a-b48f-7f46-9325-8f82fe48d893","019cf498-06e0-702e-b525-9cde1ad77653","","null","<div style=""background-color: white; width: 100vw; height: 100vh;""></div>","null","","","","","","","","",""
"","","","","","html-keyboard-response","143","407398","0.0-143.0","CE15965E495347DC9BFCD68E789C61B4","019cf51a-b48f-7f46-9325-8f82fe48d893","019cf498-06e0-702e-b525-9cde1ad77653","","null","
                <div class=""stimulus-container"">
                    <img src=""images/causal_sequence/package_causal/package_causal_1.png"" class=""exp-image"">
                    <div class=""question-area""></div> 
                </div>","null","","","","","","","","",""
"","","","","","html-button-response","144","408172","0.0-144.0","CE15965E495347DC9BFCD68E789C61B4","019cf51a-b48f-7f46-9325-8f82fe48d893","019cf498-06e0-702e-b525-9cde1ad77653","","772","
                <div class=""stimulus-container"">
                    <img src=""images/causal_sequence/package_causal/package_causal_1.png"" class=""exp-image"">
                    <div class=""question-area"">
                        <p style=""font-size: 20px; font-weight: bold; margin: 0;"">Is there a person in this image?</p>
                    </div>
                </div>","0","main_experiment_trial","1","package_causal","causal_sequence","","","","",""
"","","","","","html-keyboard-response","145","413175","0.0-145.0","CE15965E495347DC9BFCD68E789C61B4","019cf51a-b48f-7f46-9325-8f82fe48d893","019cf498-06e0-702e-b525-9cde1ad77653","","null","
                <div class=""stimulus-container"">
                    <img src=""images/causal_sequence/package_causal/package_causal_2.png"" class=""exp-image"">
                    <div class=""question-area""></div> 
                </div>","null","","","","","","","","",""
"","","","","","html-button-response","146","413943","0.0-146.0","CE15965E495347DC9BFCD68E789C61B4","019cf51a-b48f-7f46-9325-8f82fe48d893","019cf498-06e0-702e-b525-9cde1ad77653","","767","
                <div class=""stimulus-container"">
                    <img src=""images/causal_sequence/package_causal/package_causal_2.png"" class=""exp-image"">
                    <div class=""question-area"">
                        <p style=""font-size: 20px; font-weight: bold; margin: 0;"">Is there a person in this image?</p>
                    </div>
                </div>","0","main_experiment_trial","2","package_causal","causal_sequence","","","","",""
"","","","","","html-keyboard-response","147","418944","0.0-147.0","CE15965E495347DC9BFCD68E789C61B4","019cf51a-b48f-7f46-9325-8f82fe48d893","019cf498-06e0-702e-b525-9cde1ad77653","","null","
                <div class=""stimulus-container"">
                    <img src=""images/causal_sequence/package_causal/package_causal_3.png"" class=""exp-image"">
                    <div class=""question-area""></div> 
                </div>","null","","","","","","","","",""
"","","","","","html-button-response","148","421730","0.0-148.0","CE15965E495347DC9BFCD68E789C61B4","019cf51a-b48f-7f46-9325-8f82fe48d893","019cf498-06e0-702e-b525-9cde1ad77653","","2784","
                <div class=""stimulus-container"">
                    <img src=""images/causal_sequence/package_causal/package_causal_3.png"" class=""exp-image"">
                    <div class=""question-area"">
                        <p style=""font-size: 20px; font-weight: bold; margin: 0;"">Is there a person in this image?</p>
                    </div>
                </div>","0","main_experiment_trial","3","package_causal","causal_sequence","","","","",""
"","","","","","html-keyboard-response","149","426733","0.0-149.0","CE15965E495347DC9BFCD68E789C61B4","019cf51a-b48f-7f46-9325-8f82fe48d893","019cf498-06e0-702e-b525-9cde1ad77653","","null","
                <div class=""stimulus-container"">
                    <img src=""images/causal_sequence/package_causal/package_causal_4.png"" class=""exp-image"">
                    <div class=""question-area""></div> 
                </div>","null","","","","","","","","",""
"","","","","","html-button-response","150","427821","0.0-150.0","CE15965E495347DC9BFCD68E789C61B4","019cf51a-b48f-7f46-9325-8f82fe48d893","019cf498-06e0-702e-b525-9cde1ad77653","","1087","
                <div class=""stimulus-container"">
                    <img src=""images/causal_sequence/package_causal/package_causal_4.png"" class=""exp-image"">
                    <div class=""question-area"">
                        <p style=""font-size: 20px; font-weight: bold; margin: 0;"">Is there a person in this image?</p>
                    </div>
                </div>","1","main_experiment_trial","4","package_causal","causal_sequence","","","","",""
"","","","","","html-keyboard-response","151","432824","0.0-151.0","CE15965E495347DC9BFCD68E789C61B4","019cf51a-b48f-7f46-9325-8f82fe48d893","019cf498-06e0-702e-b525-9cde1ad77653","","null","
                <div class=""stimulus-container"">
                    <img src=""images/causal_sequence/package_causal/package_causal_5.png"" class=""exp-image"">
                    <div class=""question-area""></div> 
                </div>","null","","","","","","","","",""
"","","","","","html-button-response","152","435529","0.0-152.0","CE15965E495347DC9BFCD68E789C61B4","019cf51a-b48f-7f46-9325-8f82fe48d893","019cf498-06e0-702e-b525-9cde1ad77653","","2704","
                <div class=""stimulus-container"">
                    <img src=""images/causal_sequence/package_causal/package_causal_5.png"" class=""exp-image"">
                    <div class=""question-area"">
                        <p style=""font-size: 20px; font-weight: bold; margin: 0;"">Is there a person in this image?</p>
                    </div>
                </div>","0","main_experiment_trial","5","package_causal","causal_sequence","","","","",""
"","","","","","html-keyboard-response","153","440534","0.0-153.0","CE15965E495347DC9BFCD68E789C61B4","019cf51a-b48f-7f46-9325-8f82fe48d893","019cf498-06e0-702e-b525-9cde1ad77653","","null","
                <div class=""stimulus-container"">
                    <img src=""images/causal_sequence/package_causal/package_causal_6.png"" class=""exp-image"">
                    <div class=""question-area""></div> 
                </div>","null","","","","","","","","",""
"","","","","","html-button-response","154","443540","0.0-154.0","CE15965E495347DC9BFCD68E789C61B4","019cf51a-b48f-7f46-9325-8f82fe48d893","019cf498-06e0-702e-b525-9cde1ad77653","","null","
                <div class=""stimulus-container"">
                    <img src=""images/causal_sequence/package_causal/package_causal_6.png"" class=""exp-image"">
                    <div class=""question-area"">
                        <p style=""font-size: 20px; font-weight: bold; margin: 0;"">Is there a person in this image?</p>
                    </div>
                </div>","null","main_experiment_trial","6","package_causal","causal_sequence","","","","",""
"","","","","","html-keyboard-response","155","448545","0.0-155.0","CE15965E495347DC9BFCD68E789C61B4","019cf51a-b48f-7f46-9325-8f82fe48d893","019cf498-06e0-702e-b525-9cde1ad77653","","null","
                <div class=""stimulus-container"">
                    <img src=""images/causal_sequence/package_causal/package_causal_7.png"" class=""exp-image"">
                    <div class=""question-area""></div> 
                </div>","null","","","","","","","","",""
"","","","","","html-button-response","156","449522","0.0-156.0","CE15965E495347DC9BFCD68E789C61B4","019cf51a-b48f-7f46-9325-8f82fe48d893","019cf498-06e0-702e-b525-9cde1ad77653","","975","
                <div class=""stimulus-container"">
                    <img src=""images/causal_sequence/package_causal/package_causal_7.png"" class=""exp-image"">
                    <div class=""question-area"">
                        <p style=""font-size: 20px; font-weight: bold; margin: 0;"">Is there a person in this image?</p>
                    </div>
                </div>","0","main_experiment_trial","7","package_causal","causal_sequence","","","","",""
"","","","","","html-keyboard-response","157","454525","0.0-157.0","CE15965E495347DC9BFCD68E789C61B4","019cf51a-b48f-7f46-9325-8f82fe48d893","019cf498-06e0-702e-b525-9cde1ad77653","","null","
                <div class=""stimulus-container"">
                    <img src=""images/causal_sequence/package_causal/package_causal_8.png"" class=""exp-image"">
                    <div class=""question-area""></div> 
                </div>","null","","","","","","","","",""
"","","","","","html-button-response","158","456260","0.0-158.0","CE15965E495347DC9BFCD68E789C61B4","019cf51a-b48f-7f46-9325-8f82fe48d893","019cf498-06e0-702e-b525-9cde1ad77653","","1733","
                <div class=""stimulus-container"">
                    <img src=""images/causal_sequence/package_causal/package_causal_8.png"" class=""exp-image"">
                    <div class=""question-area"">
                        <p style=""font-size: 20px; font-weight: bold; margin: 0;"">Is there a person in this image?</p>
                    </div>
                </div>","0","main_experiment_trial","8","package_causal","causal_sequence","","","","",""
"","","","","","html-keyboard-response","159","461263","0.0-159.0","CE15965E495347DC9BFCD68E789C61B4","019cf51a-b48f-7f46-9325-8f82fe48d893","019cf498-06e0-702e-b525-9cde1ad77653","","null","
                <div class=""stimulus-container"">
                    <img src=""images/causal_sequence/package_causal/package_causal_9.png"" class=""exp-image"">
                    <div class=""question-area""></div> 
                </div>","null","","","","","","","","",""
"","","","","","html-button-response","160","461865","0.0-160.0","CE15965E495347DC9BFCD68E789C61B4","019cf51a-b48f-7f46-9325-8f82fe48d893","019cf498-06e0-702e-b525-9cde1ad77653","","601","
                <div class=""stimulus-container"">
                    <img src=""images/causal_sequence/package_causal/package_causal_9.png"" class=""exp-image"">
                    <div class=""question-area"">
                        <p style=""font-size: 20px; font-weight: bold; margin: 0;"">Is there a person in this image?</p>
                    </div>
                </div>","0","main_experiment_trial","9","package_causal","causal_sequence","","","","",""
"","","","","","html-keyboard-response","161","466867","0.0-161.0","CE15965E495347DC9BFCD68E789C61B4","019cf51a-b48f-7f46-9325-8f82fe48d893","019cf498-06e0-702e-b525-9cde1ad77653","","null","
                <div class=""stimulus-container"">
                    <img src=""images/causal_sequence/package_causal/package_causal_ten.png"" class=""exp-image"">
                    <div class=""question-area""></div> 
                </div>","null","","","","","","","","",""
"","","","","","html-button-response","162","467314","0.0-162.0","CE15965E495347DC9BFCD68E789C61B4","019cf51a-b48f-7f46-9325-8f82fe48d893","019cf498-06e0-702e-b525-9cde1ad77653","","445","
                <div class=""stimulus-container"">
                    <img src=""images/causal_sequence/package_causal/package_causal_ten.png"" class=""exp-image"">
                    <div class=""question-area"">
                        <p style=""font-size: 20px; font-weight: bold; margin: 0;"">Is there a person in this image?</p>
                    </div>
                </div>","0","main_experiment_trial","ten","package_causal","causal_sequence","","","","",""
"","","","","","html-keyboard-response","163","468315","0.0-163.0","CE15965E495347DC9BFCD68E789C61B4","019cf51a-b48f-7f46-9325-8f82fe48d893","019cf498-06e0-702e-b525-9cde1ad77653","","null","<div style=""background-color: white; width: 100vw; height: 100vh;""></div>","null","","","","","","","","",""
"","","","","","html-keyboard-response","164","473319","0.0-164.0","CE15965E495347DC9BFCD68E789C61B4","019cf51a-b48f-7f46-9325-8f82fe48d893","019cf498-06e0-702e-b525-9cde1ad77653","","null","
                <div class=""stimulus-container"">
                    <img src=""images/causal_sequence/the_performance_causal/the_performance_causal_1.png"" class=""exp-image"">
                    <div class=""question-area""></div> 
                </div>","null","","","","","","","","",""
"","","","","","html-button-response","165","473913","0.0-165.0","CE15965E495347DC9BFCD68E789C61B4","019cf51a-b48f-7f46-9325-8f82fe48d893","019cf498-06e0-702e-b525-9cde1ad77653","","593","
                <div class=""stimulus-container"">
                    <img src=""images/causal_sequence/the_performance_causal/the_performance_causal_1.png"" class=""exp-image"">
                    <div class=""question-area"">
                        <p style=""font-size: 20px; font-weight: bold; margin: 0;"">Is there a person in this image?</p>
                    </div>
                </div>","0","main_experiment_trial","1","the_performance_causal","causal_sequence","","","","",""
"","","","","","html-keyboard-response","166","478916","0.0-166.0","CE15965E495347DC9BFCD68E789C61B4","019cf51a-b48f-7f46-9325-8f82fe48d893","019cf498-06e0-702e-b525-9cde1ad77653","","null","
                <div class=""stimulus-container"">
                    <img src=""images/causal_sequence/the_performance_causal/the_performance_causal_2.png"" class=""exp-image"">
                    <div class=""question-area""></div> 
                </div>","null","","","","","","","","",""
"","","","","","html-button-response","167","479468","0.0-167.0","CE15965E495347DC9BFCD68E789C61B4","019cf51a-b48f-7f46-9325-8f82fe48d893","019cf498-06e0-702e-b525-9cde1ad77653","","550","
                <div class=""stimulus-container"">
                    <img src=""images/causal_sequence/the_performance_causal/the_performance_causal_2.png"" class=""exp-image"">
                    <div class=""question-area"">
                        <p style=""font-size: 20px; font-weight: bold; margin: 0;"">Is there a person in this image?</p>
                    </div>
                </div>","0","main_experiment_trial","2","the_performance_causal","causal_sequence","","","","",""
"","","","","","html-keyboard-response","168","484470","0.0-168.0","CE15965E495347DC9BFCD68E789C61B4","019cf51a-b48f-7f46-9325-8f82fe48d893","019cf498-06e0-702e-b525-9cde1ad77653","","null","
                <div class=""stimulus-container"">
                    <img src=""images/causal_sequence/the_performance_causal/the_performance_causal_3.png"" class=""exp-image"">
                    <div class=""question-area""></div> 
                </div>","null","","","","","","","","",""
"","","","","","html-button-response","169","484910","0.0-169.0","CE15965E495347DC9BFCD68E789C61B4","019cf51a-b48f-7f46-9325-8f82fe48d893","019cf498-06e0-702e-b525-9cde1ad77653","","439","
                <div class=""stimulus-container"">
                    <img src=""images/causal_sequence/the_performance_causal/the_performance_causal_3.png"" class=""exp-image"">
                    <div class=""question-area"">
                        <p style=""font-size: 20px; font-weight: bold; margin: 0;"">Is there a person in this image?</p>
                    </div>
                </div>","0","main_experiment_trial","3","the_performance_causal","causal_sequence","","","","",""
"","","","","","html-keyboard-response","170","489913","0.0-170.0","CE15965E495347DC9BFCD68E789C61B4","019cf51a-b48f-7f46-9325-8f82fe48d893","019cf498-06e0-702e-b525-9cde1ad77653","","null","
                <div class=""stimulus-container"">
                    <img src=""images/causal_sequence/the_performance_causal/the_performance_causal_4.png"" class=""exp-image"">
                    <div class=""question-area""></div> 
                </div>","null","","","","","","","","",""
"","","","","","html-button-response","171","490472","0.0-171.0","CE15965E495347DC9BFCD68E789C61B4","019cf51a-b48f-7f46-9325-8f82fe48d893","019cf498-06e0-702e-b525-9cde1ad77653","","556","
                <div class=""stimulus-container"">
                    <img src=""images/causal_sequence/the_performance_causal/the_performance_causal_4.png"" class=""exp-image"">
                    <div class=""question-area"">
                        <p style=""font-size: 20px; font-weight: bold; margin: 0;"">Is there a person in this image?</p>
                    </div>
                </div>","0","main_experiment_trial","4","the_performance_causal","causal_sequence","","","","",""
"","","","","","html-keyboard-response","172","495477","0.0-172.0","CE15965E495347DC9BFCD68E789C61B4","019cf51a-b48f-7f46-9325-8f82fe48d893","019cf498-06e0-702e-b525-9cde1ad77653","","null","
                <div class=""stimulus-container"">
                    <img src=""images/causal_sequence/the_performance_causal/the_performance_causal_5.png"" class=""exp-image"">
                    <div class=""question-area""></div> 
                </div>","null","","","","","","","","",""
"","","","","","html-button-response","173","496057","0.0-173.0","CE15965E495347DC9BFCD68E789C61B4","019cf51a-b48f-7f46-9325-8f82fe48d893","019cf498-06e0-702e-b525-9cde1ad77653","","579","
                <div class=""stimulus-container"">
                    <img src=""images/causal_sequence/the_performance_causal/the_performance_causal_5.png"" class=""exp-image"">
                    <div class=""question-area"">
                        <p style=""font-size: 20px; font-weight: bold; margin: 0;"">Is there a person in this image?</p>
                    </div>
                </div>","0","main_experiment_trial","5","the_performance_causal","causal_sequence","","","","",""
"","","","","","html-keyboard-response","174","501062","0.0-174.0","CE15965E495347DC9BFCD68E789C61B4","019cf51a-b48f-7f46-9325-8f82fe48d893","019cf498-06e0-702e-b525-9cde1ad77653","","null","
                <div class=""stimulus-container"">
                    <img src=""images/causal_sequence/the_performance_causal/the_performance_causal_6.png"" class=""exp-image"">
                    <div class=""question-area""></div> 
                </div>","null","","","","","","","","",""
"","","","","","html-button-response","175","501611","0.0-175.0","CE15965E495347DC9BFCD68E789C61B4","019cf51a-b48f-7f46-9325-8f82fe48d893","019cf498-06e0-702e-b525-9cde1ad77653","","546","
                <div class=""stimulus-container"">
                    <img src=""images/causal_sequence/the_performance_causal/the_performance_causal_6.png"" class=""exp-image"">
                    <div class=""question-area"">
                        <p style=""font-size: 20px; font-weight: bold; margin: 0;"">Is there a person in this image?</p>
                    </div>
                </div>","0","main_experiment_trial","6","the_performance_causal","causal_sequence","","","","",""
"","","","","","html-keyboard-response","176","506613","0.0-176.0","CE15965E495347DC9BFCD68E789C61B4","019cf51a-b48f-7f46-9325-8f82fe48d893","019cf498-06e0-702e-b525-9cde1ad77653","","null","
                <div class=""stimulus-container"">
                    <img src=""images/causal_sequence/the_performance_causal/the_performance_causal_7.png"" class=""exp-image"">
                    <div class=""question-area""></div> 
                </div>","null","","","","","","","","",""
"","","","","","html-button-response","177","507087","0.0-177.0","CE15965E495347DC9BFCD68E789C61B4","019cf51a-b48f-7f46-9325-8f82fe48d893","019cf498-06e0-702e-b525-9cde1ad77653","","473","
                <div class=""stimulus-container"">
                    <img src=""images/causal_sequence/the_performance_causal/the_performance_causal_7.png"" class=""exp-image"">
                    <div class=""question-area"">
                        <p style=""font-size: 20px; font-weight: bold; margin: 0;"">Is there a person in this image?</p>
                    </div>
                </div>","0","main_experiment_trial","7","the_performance_causal","causal_sequence","","","","",""
"","","","","","html-keyboard-response","178","512090","0.0-178.0","CE15965E495347DC9BFCD68E789C61B4","019cf51a-b48f-7f46-9325-8f82fe48d893","019cf498-06e0-702e-b525-9cde1ad77653","","null","
                <div class=""stimulus-container"">
                    <img src=""images/causal_sequence/the_performance_causal/the_performance_causal_8.png"" class=""exp-image"">
                    <div class=""question-area""></div> 
                </div>","null","","","","","","","","",""
"","","","","","html-button-response","179","512572","0.0-179.0","CE15965E495347DC9BFCD68E789C61B4","019cf51a-b48f-7f46-9325-8f82fe48d893","019cf498-06e0-702e-b525-9cde1ad77653","","479","
                <div class=""stimulus-container"">
                    <img src=""images/causal_sequence/the_performance_causal/the_performance_causal_8.png"" class=""exp-image"">
                    <div class=""question-area"">
                        <p style=""font-size: 20px; font-weight: bold; margin: 0;"">Is there a person in this image?</p>
                    </div>
                </div>","0","main_experiment_trial","8","the_performance_causal","causal_sequence","","","","",""
"","","","","","html-keyboard-response","180","517575","0.0-180.0","CE15965E495347DC9BFCD68E789C61B4","019cf51a-b48f-7f46-9325-8f82fe48d893","019cf498-06e0-702e-b525-9cde1ad77653","","null","
                <div class=""stimulus-container"">
                    <img src=""images/causal_sequence/the_performance_causal/the_performance_causal_9.png"" class=""exp-image"">
                    <div class=""question-area""></div> 
                </div>","null","","","","","","","","",""
"","","","","","html-button-response","181","517996","0.0-181.0","CE15965E495347DC9BFCD68E789C61B4","019cf51a-b48f-7f46-9325-8f82fe48d893","019cf498-06e0-702e-b525-9cde1ad77653","","420","
                <div class=""stimulus-container"">
                    <img src=""images/causal_sequence/the_performance_causal/the_performance_causal_9.png"" class=""exp-image"">
                    <div class=""question-area"">
                        <p style=""font-size: 20px; font-weight: bold; margin: 0;"">Is there a person in this image?</p>
                    </div>
                </div>","0","main_experiment_trial","9","the_performance_causal","causal_sequence","","","","",""
"","","","","","html-keyboard-response","182","522999","0.0-182.0","CE15965E495347DC9BFCD68E789C61B4","019cf51a-b48f-7f46-9325-8f82fe48d893","019cf498-06e0-702e-b525-9cde1ad77653","","null","
                <div class=""stimulus-container"">
                    <img src=""images/causal_sequence/the_performance_causal/the_performance_causal_ten.png"" class=""exp-image"">
                    <div class=""question-area""></div> 
                </div>","null","","","","","","","","",""
"","","","","","html-button-response","183","525079","0.0-183.0","CE15965E495347DC9BFCD68E789C61B4","019cf51a-b48f-7f46-9325-8f82fe48d893","019cf498-06e0-702e-b525-9cde1ad77653","","2078","
                <div class=""stimulus-container"">
