"success","timeout","failed_images","failed_audio","failed_video","trial_type","trial_index","time_elapsed","internal_node_id","subject_id","study_id","session_id","view_history","rt","stimulus","response","task","image_index","folder","sequence_type","valuable_image_index","reward_type","correct_choice","chosen_image_index","target_X"
"true","false","[]","[]","[]","preload","0","7543","0.0-0.0","A58131FD31D7474D85ACD4D8FC9C5C14","019cf791-2cc4-74f0-90a2-7cd5f56349ac","019cf78c-cfcf-769c-9016-9b96552b5e33","","","","","","","","","","","","",""
"","","","","","instructions","1","10390","0.0-1.0","A58131FD31D7474D85ACD4D8FC9C5C14","019cf791-2cc4-74f0-90a2-7cd5f56349ac","019cf78c-cfcf-769c-9016-9b96552b5e33","[{""page_index"":0,""viewing_time"":2846}]","2846","","","","","","","","","","",""
"","","","","","instructions","2","62708","0.0-2.0","A58131FD31D7474D85ACD4D8FC9C5C14","019cf791-2cc4-74f0-90a2-7cd5f56349ac","019cf78c-cfcf-769c-9016-9b96552b5e33","[{""page_index"":0,""viewing_time"":52316}]","52317","","","","","","","","","","",""
"true","","","","","fullscreen","3","66261","0.0-3.0","A58131FD31D7474D85ACD4D8FC9C5C14","019cf791-2cc4-74f0-90a2-7cd5f56349ac","019cf78c-cfcf-769c-9016-9b96552b5e33","","2538","","","","","","","","","","",""
"","","","","","instructions","4","79131","0.0-4.0","A58131FD31D7474D85ACD4D8FC9C5C14","019cf791-2cc4-74f0-90a2-7cd5f56349ac","019cf78c-cfcf-769c-9016-9b96552b5e33","[{""page_index"":0,""viewing_time"":12868}]","12869","","","","","","","","","","",""
"","","","","","instructions","5","84039","0.0-5.0","A58131FD31D7474D85ACD4D8FC9C5C14","019cf791-2cc4-74f0-90a2-7cd5f56349ac","019cf78c-cfcf-769c-9016-9b96552b5e33","[{""page_index"":0,""viewing_time"":4907}]","4907","","","","","","","","","","",""
"","","","","","html-keyboard-response","6","88049","0.0-6.0","A58131FD31D7474D85ACD4D8FC9C5C14","019cf791-2cc4-74f0-90a2-7cd5f56349ac","019cf78c-cfcf-769c-9016-9b96552b5e33","","null","
                <div class=""stimulus-container"">
                    <img src=""images/instructions/movie_1.png"" class=""exp-image"">
                    <div class=""question-area""></div> 
                </div>","null","","","","","","","","",""
"","","","","","html-button-response","7","90455","0.0-7.0","A58131FD31D7474D85ACD4D8FC9C5C14","019cf791-2cc4-74f0-90a2-7cd5f56349ac","019cf78c-cfcf-769c-9016-9b96552b5e33","","2404","
                <div class=""stimulus-container"">
                    <img src=""images/instructions/movie_1.png"" class=""exp-image"">
                    <div class=""question-area"">
                        <p style=""font-size: 20px; font-weight: bold; margin: 0;"">Was there a person in this image?</p>
                    </div>
                </div>","0","example_question","1","","","","","","",""
"","","","","","html-keyboard-response","8","94458","0.0-8.0","A58131FD31D7474D85ACD4D8FC9C5C14","019cf791-2cc4-74f0-90a2-7cd5f56349ac","019cf78c-cfcf-769c-9016-9b96552b5e33","","null","
                <div class=""stimulus-container"">
                    <img src=""images/instructions/movie_2.png"" class=""exp-image"">
                    <div class=""question-area""></div> 
                </div>","null","","","","","","","","",""
"","","","","","html-button-response","9","94914","0.0-9.0","A58131FD31D7474D85ACD4D8FC9C5C14","019cf791-2cc4-74f0-90a2-7cd5f56349ac","019cf78c-cfcf-769c-9016-9b96552b5e33","","455","
                <div class=""stimulus-container"">
                    <img src=""images/instructions/movie_2.png"" class=""exp-image"">
                    <div class=""question-area"">
                        <p style=""font-size: 20px; font-weight: bold; margin: 0;"">Was there a person in this image?</p>
                    </div>
                </div>","0","example_question","2","","","","","","",""
"","","","","","html-keyboard-response","10","98925","0.0-10.0","A58131FD31D7474D85ACD4D8FC9C5C14","019cf791-2cc4-74f0-90a2-7cd5f56349ac","019cf78c-cfcf-769c-9016-9b96552b5e33","","null","
                <div class=""stimulus-container"">
                    <img src=""images/instructions/movie_3.png"" class=""exp-image"">
                    <div class=""question-area""></div> 
                </div>","null","","","","","","","","",""
"","","","","","html-button-response","11","101932","0.0-11.0","A58131FD31D7474D85ACD4D8FC9C5C14","019cf791-2cc4-74f0-90a2-7cd5f56349ac","019cf78c-cfcf-769c-9016-9b96552b5e33","","null","
                <div class=""stimulus-container"">
                    <img src=""images/instructions/movie_3.png"" class=""exp-image"">
                    <div class=""question-area"">
                        <p style=""font-size: 20px; font-weight: bold; margin: 0;"">Was there a person in this image?</p>
                    </div>
                </div>","null","example_question","3","","","","","","",""
"","","","","","html-keyboard-response","12","105950","0.0-12.0","A58131FD31D7474D85ACD4D8FC9C5C14","019cf791-2cc4-74f0-90a2-7cd5f56349ac","019cf78c-cfcf-769c-9016-9b96552b5e33","","null","
                <div class=""stimulus-container"">
                    <img src=""images/instructions/movie_4.png"" class=""exp-image"">
                    <div class=""question-area""></div> 
                </div>","null","","","","","","","","",""
"","","","","","html-button-response","13","107433","0.0-13.0","A58131FD31D7474D85ACD4D8FC9C5C14","019cf791-2cc4-74f0-90a2-7cd5f56349ac","019cf78c-cfcf-769c-9016-9b96552b5e33","","1481","
                <div class=""stimulus-container"">
                    <img src=""images/instructions/movie_4.png"" class=""exp-image"">
                    <div class=""question-area"">
                        <p style=""font-size: 20px; font-weight: bold; margin: 0;"">Was there a person in this image?</p>
                    </div>
                </div>","0","example_question","4","","","","","","",""
"","","","","","instructions","14","109197","0.0-14.0","A58131FD31D7474D85ACD4D8FC9C5C14","019cf791-2cc4-74f0-90a2-7cd5f56349ac","019cf78c-cfcf-769c-9016-9b96552b5e33","[{""page_index"":0,""viewing_time"":1762}]","1763","","","","","","","","","","",""
"","","","","","instructions","15","114787","0.0-15.0","A58131FD31D7474D85ACD4D8FC9C5C14","019cf791-2cc4-74f0-90a2-7cd5f56349ac","019cf78c-cfcf-769c-9016-9b96552b5e33","[{""page_index"":0,""viewing_time"":5589}]","5590","","","","","","","","","","",""
"","","","","","html-keyboard-response","16","115794","0.0-16.0","A58131FD31D7474D85ACD4D8FC9C5C14","019cf791-2cc4-74f0-90a2-7cd5f56349ac","019cf78c-cfcf-769c-9016-9b96552b5e33","","null","<div style=""background-color: white; width: 100vw; height: 100vh;""></div>","null","","","","","","","","",""
"","","","","","html-keyboard-response","17","120811","0.0-17.0","A58131FD31D7474D85ACD4D8FC9C5C14","019cf791-2cc4-74f0-90a2-7cd5f56349ac","019cf78c-cfcf-769c-9016-9b96552b5e33","","null","
                <div class=""stimulus-container"">
                    <img src=""images/schematic_sequence/hotel_scheme/hotel_scheme_1.png"" class=""exp-image"">
                    <div class=""question-area""></div> 
                </div>","null","","","","","","","","",""
"","","","","","html-button-response","18","123136","0.0-18.0","A58131FD31D7474D85ACD4D8FC9C5C14","019cf791-2cc4-74f0-90a2-7cd5f56349ac","019cf78c-cfcf-769c-9016-9b96552b5e33","","2324","
                <div class=""stimulus-container"">
                    <img src=""images/schematic_sequence/hotel_scheme/hotel_scheme_1.png"" class=""exp-image"">
                    <div class=""question-area"">
                        <p style=""font-size: 20px; font-weight: bold; margin: 0;"">Is there a person in this image?</p>
                    </div>
                </div>","1","main_experiment_trial","1","hotel_scheme","schematic_sequence","","","","",""
"","","","","","html-keyboard-response","19","128153","0.0-19.0","A58131FD31D7474D85ACD4D8FC9C5C14","019cf791-2cc4-74f0-90a2-7cd5f56349ac","019cf78c-cfcf-769c-9016-9b96552b5e33","","null","
                <div class=""stimulus-container"">
                    <img src=""images/schematic_sequence/hotel_scheme/hotel_scheme_2.png"" class=""exp-image"">
                    <div class=""question-area""></div> 
                </div>","null","","","","","","","","",""
"","","","","","html-button-response","20","130025","0.0-20.0","A58131FD31D7474D85ACD4D8FC9C5C14","019cf791-2cc4-74f0-90a2-7cd5f56349ac","019cf78c-cfcf-769c-9016-9b96552b5e33","","1871","
                <div class=""stimulus-container"">
                    <img src=""images/schematic_sequence/hotel_scheme/hotel_scheme_2.png"" class=""exp-image"">
                    <div class=""question-area"">
                        <p style=""font-size: 20px; font-weight: bold; margin: 0;"">Is there a person in this image?</p>
                    </div>
                </div>","0","main_experiment_trial","2","hotel_scheme","schematic_sequence","","","","",""
"","","","","","html-keyboard-response","21","135033","0.0-21.0","A58131FD31D7474D85ACD4D8FC9C5C14","019cf791-2cc4-74f0-90a2-7cd5f56349ac","019cf78c-cfcf-769c-9016-9b96552b5e33","","null","
                <div class=""stimulus-container"">
                    <img src=""images/schematic_sequence/hotel_scheme/hotel_scheme_3.png"" class=""exp-image"">
                    <div class=""question-area""></div> 
                </div>","null","","","","","","","","",""
"","","","","","html-button-response","22","136245","0.0-22.0","A58131FD31D7474D85ACD4D8FC9C5C14","019cf791-2cc4-74f0-90a2-7cd5f56349ac","019cf78c-cfcf-769c-9016-9b96552b5e33","","1211","
                <div class=""stimulus-container"">
                    <img src=""images/schematic_sequence/hotel_scheme/hotel_scheme_3.png"" class=""exp-image"">
                    <div class=""question-area"">
                        <p style=""font-size: 20px; font-weight: bold; margin: 0;"">Is there a person in this image?</p>
                    </div>
                </div>","0","main_experiment_trial","3","hotel_scheme","schematic_sequence","","","","",""
"","","","","","html-keyboard-response","23","141260","0.0-23.0","A58131FD31D7474D85ACD4D8FC9C5C14","019cf791-2cc4-74f0-90a2-7cd5f56349ac","019cf78c-cfcf-769c-9016-9b96552b5e33","","null","
                <div class=""stimulus-container"">
                    <img src=""images/schematic_sequence/hotel_scheme/hotel_scheme_4.png"" class=""exp-image"">
                    <div class=""question-area""></div> 
                </div>","null","","","","","","","","",""
"","","","","","html-button-response","24","142515","0.0-24.0","A58131FD31D7474D85ACD4D8FC9C5C14","019cf791-2cc4-74f0-90a2-7cd5f56349ac","019cf78c-cfcf-769c-9016-9b96552b5e33","","1253","
                <div class=""stimulus-container"">
                    <img src=""images/schematic_sequence/hotel_scheme/hotel_scheme_4.png"" class=""exp-image"">
                    <div class=""question-area"">
                        <p style=""font-size: 20px; font-weight: bold; margin: 0;"">Is there a person in this image?</p>
                    </div>
                </div>","1","main_experiment_trial","4","hotel_scheme","schematic_sequence","","","","",""
"","","","","","html-keyboard-response","25","147521","0.0-25.0","A58131FD31D7474D85ACD4D8FC9C5C14","019cf791-2cc4-74f0-90a2-7cd5f56349ac","019cf78c-cfcf-769c-9016-9b96552b5e33","","null","
                <div class=""stimulus-container"">
                    <img src=""images/schematic_sequence/hotel_scheme/hotel_scheme_5.png"" class=""exp-image"">
                    <div class=""question-area""></div> 
                </div>","null","","","","","","","","",""
"","","","","","html-button-response","26","148196","0.0-26.0","A58131FD31D7474D85ACD4D8FC9C5C14","019cf791-2cc4-74f0-90a2-7cd5f56349ac","019cf78c-cfcf-769c-9016-9b96552b5e33","","674","
                <div class=""stimulus-container"">
                    <img src=""images/schematic_sequence/hotel_scheme/hotel_scheme_5.png"" class=""exp-image"">
                    <div class=""question-area"">
                        <p style=""font-size: 20px; font-weight: bold; margin: 0;"">Is there a person in this image?</p>
                    </div>
                </div>","0","main_experiment_trial","5","hotel_scheme","schematic_sequence","","","","",""
"","","","","","html-keyboard-response","27","153201","0.0-27.0","A58131FD31D7474D85ACD4D8FC9C5C14","019cf791-2cc4-74f0-90a2-7cd5f56349ac","019cf78c-cfcf-769c-9016-9b96552b5e33","","null","
                <div class=""stimulus-container"">
                    <img src=""images/schematic_sequence/hotel_scheme/hotel_scheme_6.png"" class=""exp-image"">
                    <div class=""question-area""></div> 
                </div>","null","","","","","","","","",""
"","","","","","html-button-response","28","154301","0.0-28.0","A58131FD31D7474D85ACD4D8FC9C5C14","019cf791-2cc4-74f0-90a2-7cd5f56349ac","019cf78c-cfcf-769c-9016-9b96552b5e33","","1098","
                <div class=""stimulus-container"">
                    <img src=""images/schematic_sequence/hotel_scheme/hotel_scheme_6.png"" class=""exp-image"">
                    <div class=""question-area"">
                        <p style=""font-size: 20px; font-weight: bold; margin: 0;"">Is there a person in this image?</p>
                    </div>
                </div>","0","main_experiment_trial","6","hotel_scheme","schematic_sequence","","","","",""
"","","","","","html-keyboard-response","29","159303","0.0-29.0","A58131FD31D7474D85ACD4D8FC9C5C14","019cf791-2cc4-74f0-90a2-7cd5f56349ac","019cf78c-cfcf-769c-9016-9b96552b5e33","","null","
                <div class=""stimulus-container"">
                    <img src=""images/schematic_sequence/hotel_scheme/hotel_scheme_7.png"" class=""exp-image"">
                    <div class=""question-area""></div> 
                </div>","null","","","","","","","","",""
"","","","","","html-button-response","30","159947","0.0-30.0","A58131FD31D7474D85ACD4D8FC9C5C14","019cf791-2cc4-74f0-90a2-7cd5f56349ac","019cf78c-cfcf-769c-9016-9b96552b5e33","","643","
                <div class=""stimulus-container"">
                    <img src=""images/schematic_sequence/hotel_scheme/hotel_scheme_7.png"" class=""exp-image"">
                    <div class=""question-area"">
                        <p style=""font-size: 20px; font-weight: bold; margin: 0;"">Is there a person in this image?</p>
                    </div>
                </div>","0","main_experiment_trial","7","hotel_scheme","schematic_sequence","","","","",""
"","","","","","html-keyboard-response","31","164967","0.0-31.0","A58131FD31D7474D85ACD4D8FC9C5C14","019cf791-2cc4-74f0-90a2-7cd5f56349ac","019cf78c-cfcf-769c-9016-9b96552b5e33","","null","
                <div class=""stimulus-container"">
                    <img src=""images/schematic_sequence/hotel_scheme/hotel_scheme_8.png"" class=""exp-image"">
                    <div class=""question-area""></div> 
                </div>","null","","","","","","","","",""
"","","","","","html-button-response","32","165545","0.0-32.0","A58131FD31D7474D85ACD4D8FC9C5C14","019cf791-2cc4-74f0-90a2-7cd5f56349ac","019cf78c-cfcf-769c-9016-9b96552b5e33","","576","
                <div class=""stimulus-container"">
                    <img src=""images/schematic_sequence/hotel_scheme/hotel_scheme_8.png"" class=""exp-image"">
                    <div class=""question-area"">
                        <p style=""font-size: 20px; font-weight: bold; margin: 0;"">Is there a person in this image?</p>
                    </div>
                </div>","0","main_experiment_trial","8","hotel_scheme","schematic_sequence","","","","",""
"","","","","","html-keyboard-response","33","170546","0.0-33.0","A58131FD31D7474D85ACD4D8FC9C5C14","019cf791-2cc4-74f0-90a2-7cd5f56349ac","019cf78c-cfcf-769c-9016-9b96552b5e33","","null","
                <div class=""stimulus-container"">
                    <img src=""images/schematic_sequence/hotel_scheme/hotel_scheme_9.png"" class=""exp-image"">
                    <div class=""question-area""></div> 
                </div>","null","","","","","","","","",""
"","","","","","html-button-response","34","171307","0.0-34.0","A58131FD31D7474D85ACD4D8FC9C5C14","019cf791-2cc4-74f0-90a2-7cd5f56349ac","019cf78c-cfcf-769c-9016-9b96552b5e33","","759","
                <div class=""stimulus-container"">
                    <img src=""images/schematic_sequence/hotel_scheme/hotel_scheme_9.png"" class=""exp-image"">
                    <div class=""question-area"">
                        <p style=""font-size: 20px; font-weight: bold; margin: 0;"">Is there a person in this image?</p>
                    </div>
                </div>","0","main_experiment_trial","9","hotel_scheme","schematic_sequence","","","","",""
"","","","","","html-keyboard-response","35","176317","0.0-35.0","A58131FD31D7474D85ACD4D8FC9C5C14","019cf791-2cc4-74f0-90a2-7cd5f56349ac","019cf78c-cfcf-769c-9016-9b96552b5e33","","null","
                <div class=""stimulus-container"">
                    <img src=""images/schematic_sequence/hotel_scheme/hotel_scheme_ten.png"" class=""exp-image"">
                    <div class=""question-area""></div> 
                </div>","null","","","","","","","","",""
"","","","","","html-button-response","36","177437","0.0-36.0","A58131FD31D7474D85ACD4D8FC9C5C14","019cf791-2cc4-74f0-90a2-7cd5f56349ac","019cf78c-cfcf-769c-9016-9b96552b5e33","","1119","
                <div class=""stimulus-container"">
                    <img src=""images/schematic_sequence/hotel_scheme/hotel_scheme_ten.png"" class=""exp-image"">
                    <div class=""question-area"">
                        <p style=""font-size: 20px; font-weight: bold; margin: 0;"">Is there a person in this image?</p>
                    </div>
                </div>","0","main_experiment_trial","ten","hotel_scheme","schematic_sequence","","","","",""
"","","","","","html-keyboard-response","37","178447","0.0-37.0","A58131FD31D7474D85ACD4D8FC9C5C14","019cf791-2cc4-74f0-90a2-7cd5f56349ac","019cf78c-cfcf-769c-9016-9b96552b5e33","","null","<div style=""background-color: white; width: 100vw; height: 100vh;""></div>","null","","","","","","","","",""
"","","","","","html-keyboard-response","38","183452","0.0-38.0","A58131FD31D7474D85ACD4D8FC9C5C14","019cf791-2cc4-74f0-90a2-7cd5f56349ac","019cf78c-cfcf-769c-9016-9b96552b5e33","","null","
                <div class=""stimulus-container"">
                    <img src=""images/semantic_sequence/housework_semantic/housework_semantic_1.png"" class=""exp-image"">
                    <div class=""question-area""></div> 
                </div>","null","","","","","","","","",""
"","","","","","html-button-response","39","184330","0.0-39.0","A58131FD31D7474D85ACD4D8FC9C5C14","019cf791-2cc4-74f0-90a2-7cd5f56349ac","019cf78c-cfcf-769c-9016-9b96552b5e33","","877","
                <div class=""stimulus-container"">
                    <img src=""images/semantic_sequence/housework_semantic/housework_semantic_1.png"" class=""exp-image"">
                    <div class=""question-area"">
                        <p style=""font-size: 20px; font-weight: bold; margin: 0;"">Is there a person in this image?</p>
                    </div>
                </div>","0","main_experiment_trial","1","housework_semantic","semantic_sequence","","","","",""
"","","","","","html-keyboard-response","40","189341","0.0-40.0","A58131FD31D7474D85ACD4D8FC9C5C14","019cf791-2cc4-74f0-90a2-7cd5f56349ac","019cf78c-cfcf-769c-9016-9b96552b5e33","","null","
                <div class=""stimulus-container"">
                    <img src=""images/semantic_sequence/housework_semantic/housework_semantic_2.png"" class=""exp-image"">
                    <div class=""question-area""></div> 
                </div>","null","","","","","","","","",""
"","","","","","html-button-response","41","190135","0.0-41.0","A58131FD31D7474D85ACD4D8FC9C5C14","019cf791-2cc4-74f0-90a2-7cd5f56349ac","019cf78c-cfcf-769c-9016-9b96552b5e33","","792","
                <div class=""stimulus-container"">
                    <img src=""images/semantic_sequence/housework_semantic/housework_semantic_2.png"" class=""exp-image"">
                    <div class=""question-area"">
                        <p style=""font-size: 20px; font-weight: bold; margin: 0;"">Is there a person in this image?</p>
                    </div>
                </div>","0","main_experiment_trial","2","housework_semantic","semantic_sequence","","","","",""
"","","","","","html-keyboard-response","42","195140","0.0-42.0","A58131FD31D7474D85ACD4D8FC9C5C14","019cf791-2cc4-74f0-90a2-7cd5f56349ac","019cf78c-cfcf-769c-9016-9b96552b5e33","","null","
                <div class=""stimulus-container"">
                    <img src=""images/semantic_sequence/housework_semantic/housework_semantic_3.png"" class=""exp-image"">
                    <div class=""question-area""></div> 
                </div>","null","","","","","","","","",""
"","","","","","html-button-response","43","195879","0.0-43.0","A58131FD31D7474D85ACD4D8FC9C5C14","019cf791-2cc4-74f0-90a2-7cd5f56349ac","019cf78c-cfcf-769c-9016-9b96552b5e33","","737","
                <div class=""stimulus-container"">
                    <img src=""images/semantic_sequence/housework_semantic/housework_semantic_3.png"" class=""exp-image"">
                    <div class=""question-area"">
                        <p style=""font-size: 20px; font-weight: bold; margin: 0;"">Is there a person in this image?</p>
                    </div>
                </div>","0","main_experiment_trial","3","housework_semantic","semantic_sequence","","","","",""
"","","","","","html-keyboard-response","44","200891","0.0-44.0","A58131FD31D7474D85ACD4D8FC9C5C14","019cf791-2cc4-74f0-90a2-7cd5f56349ac","019cf78c-cfcf-769c-9016-9b96552b5e33","","null","
                <div class=""stimulus-container"">
                    <img src=""images/semantic_sequence/housework_semantic/housework_semantic_4.png"" class=""exp-image"">
                    <div class=""question-area""></div> 
                </div>","null","","","","","","","","",""
"","","","","","html-button-response","45","201785","0.0-45.0","A58131FD31D7474D85ACD4D8FC9C5C14","019cf791-2cc4-74f0-90a2-7cd5f56349ac","019cf78c-cfcf-769c-9016-9b96552b5e33","","892","
                <div class=""stimulus-container"">
                    <img src=""images/semantic_sequence/housework_semantic/housework_semantic_4.png"" class=""exp-image"">
                    <div class=""question-area"">
                        <p style=""font-size: 20px; font-weight: bold; margin: 0;"">Is there a person in this image?</p>
                    </div>
                </div>","0","main_experiment_trial","4","housework_semantic","semantic_sequence","","","","",""
"","","","","","html-keyboard-response","46","206795","0.0-46.0","A58131FD31D7474D85ACD4D8FC9C5C14","019cf791-2cc4-74f0-90a2-7cd5f56349ac","019cf78c-cfcf-769c-9016-9b96552b5e33","","null","
                <div class=""stimulus-container"">
                    <img src=""images/semantic_sequence/housework_semantic/housework_semantic_5.png"" class=""exp-image"">
                    <div class=""question-area""></div> 
                </div>","null","","","","","","","","",""
"","","","","","html-button-response","47","207768","0.0-47.0","A58131FD31D7474D85ACD4D8FC9C5C14","019cf791-2cc4-74f0-90a2-7cd5f56349ac","019cf78c-cfcf-769c-9016-9b96552b5e33","","971","
                <div class=""stimulus-container"">
                    <img src=""images/semantic_sequence/housework_semantic/housework_semantic_5.png"" class=""exp-image"">
                    <div class=""question-area"">
                        <p style=""font-size: 20px; font-weight: bold; margin: 0;"">Is there a person in this image?</p>
                    </div>
                </div>","0","main_experiment_trial","5","housework_semantic","semantic_sequence","","","","",""
"","","","","","html-keyboard-response","48","212785","0.0-48.0","A58131FD31D7474D85ACD4D8FC9C5C14","019cf791-2cc4-74f0-90a2-7cd5f56349ac","019cf78c-cfcf-769c-9016-9b96552b5e33","","null","
                <div class=""stimulus-container"">
                    <img src=""images/semantic_sequence/housework_semantic/housework_semantic_6.png"" class=""exp-image"">
                    <div class=""question-area""></div> 
                </div>","null","","","","","","","","",""
"","","","","","html-button-response","49","213424","0.0-49.0","A58131FD31D7474D85ACD4D8FC9C5C14","019cf791-2cc4-74f0-90a2-7cd5f56349ac","019cf78c-cfcf-769c-9016-9b96552b5e33","","638","
                <div class=""stimulus-container"">
                    <img src=""images/semantic_sequence/housework_semantic/housework_semantic_6.png"" class=""exp-image"">
                    <div class=""question-area"">
                        <p style=""font-size: 20px; font-weight: bold; margin: 0;"">Is there a person in this image?</p>
                    </div>
                </div>","0","main_experiment_trial","6","housework_semantic","semantic_sequence","","","","",""
"","","","","","html-keyboard-response","50","218442","0.0-50.0","A58131FD31D7474D85ACD4D8FC9C5C14","019cf791-2cc4-74f0-90a2-7cd5f56349ac","019cf78c-cfcf-769c-9016-9b96552b5e33","","null","
                <div class=""stimulus-container"">
                    <img src=""images/semantic_sequence/housework_semantic/housework_semantic_7.png"" class=""exp-image"">
                    <div class=""question-area""></div> 
                </div>","null","","","","","","","","",""
"","","","","","html-button-response","51","219340","0.0-51.0","A58131FD31D7474D85ACD4D8FC9C5C14","019cf791-2cc4-74f0-90a2-7cd5f56349ac","019cf78c-cfcf-769c-9016-9b96552b5e33","","897","
                <div class=""stimulus-container"">
                    <img src=""images/semantic_sequence/housework_semantic/housework_semantic_7.png"" class=""exp-image"">
                    <div class=""question-area"">
                        <p style=""font-size: 20px; font-weight: bold; margin: 0;"">Is there a person in this image?</p>
                    </div>
                </div>","0","main_experiment_trial","7","housework_semantic","semantic_sequence","","","","",""
"","","","","","html-keyboard-response","52","224351","0.0-52.0","A58131FD31D7474D85ACD4D8FC9C5C14","019cf791-2cc4-74f0-90a2-7cd5f56349ac","019cf78c-cfcf-769c-9016-9b96552b5e33","","null","
                <div class=""stimulus-container"">
                    <img src=""images/semantic_sequence/housework_semantic/housework_semantic_8.png"" class=""exp-image"">
                    <div class=""question-area""></div> 
                </div>","null","","","","","","","","",""
"","","","","","html-button-response","53","225057","0.0-53.0","A58131FD31D7474D85ACD4D8FC9C5C14","019cf791-2cc4-74f0-90a2-7cd5f56349ac","019cf78c-cfcf-769c-9016-9b96552b5e33","","704","
                <div class=""stimulus-container"">
                    <img src=""images/semantic_sequence/housework_semantic/housework_semantic_8.png"" class=""exp-image"">
                    <div class=""question-area"">
                        <p style=""font-size: 20px; font-weight: bold; margin: 0;"">Is there a person in this image?</p>
                    </div>
                </div>","0","main_experiment_trial","8","housework_semantic","semantic_sequence","","","","",""
"","","","","","html-keyboard-response","54","230062","0.0-54.0","A58131FD31D7474D85ACD4D8FC9C5C14","019cf791-2cc4-74f0-90a2-7cd5f56349ac","019cf78c-cfcf-769c-9016-9b96552b5e33","","null","
                <div class=""stimulus-container"">
                    <img src=""images/semantic_sequence/housework_semantic/housework_semantic_9.png"" class=""exp-image"">
                    <div class=""question-area""></div> 
                </div>","null","","","","","","","","",""
"","","","","","html-button-response","55","230706","0.0-55.0","A58131FD31D7474D85ACD4D8FC9C5C14","019cf791-2cc4-74f0-90a2-7cd5f56349ac","019cf78c-cfcf-769c-9016-9b96552b5e33","","642","
                <div class=""stimulus-container"">
                    <img src=""images/semantic_sequence/housework_semantic/housework_semantic_9.png"" class=""exp-image"">
                    <div class=""question-area"">
                        <p style=""font-size: 20px; font-weight: bold; margin: 0;"">Is there a person in this image?</p>
                    </div>
                </div>","0","main_experiment_trial","9","housework_semantic","semantic_sequence","","","","",""
"","","","","","html-keyboard-response","56","235708","0.0-56.0","A58131FD31D7474D85ACD4D8FC9C5C14","019cf791-2cc4-74f0-90a2-7cd5f56349ac","019cf78c-cfcf-769c-9016-9b96552b5e33","","null","
                <div class=""stimulus-container"">
                    <img src=""images/semantic_sequence/housework_semantic/housework_semantic_ten.png"" class=""exp-image"">
                    <div class=""question-area""></div> 
                </div>","null","","","","","","","","",""
"","","","","","html-button-response","57","236343","0.0-57.0","A58131FD31D7474D85ACD4D8FC9C5C14","019cf791-2cc4-74f0-90a2-7cd5f56349ac","019cf78c-cfcf-769c-9016-9b96552b5e33","","634","
                <div class=""stimulus-container"">
                    <img src=""images/semantic_sequence/housework_semantic/housework_semantic_ten.png"" class=""exp-image"">
                    <div class=""question-area"">
                        <p style=""font-size: 20px; font-weight: bold; margin: 0;"">Is there a person in this image?</p>
                    </div>
                </div>","0","main_experiment_trial","ten","housework_semantic","semantic_sequence","","","","",""
"","","","","","html-keyboard-response","58","237354","0.0-58.0","A58131FD31D7474D85ACD4D8FC9C5C14","019cf791-2cc4-74f0-90a2-7cd5f56349ac","019cf78c-cfcf-769c-9016-9b96552b5e33","","null","<div style=""background-color: white; width: 100vw; height: 100vh;""></div>","null","","","","","","","","",""
"","","","","","html-keyboard-response","59","242364","0.0-59.0","A58131FD31D7474D85ACD4D8FC9C5C14","019cf791-2cc4-74f0-90a2-7cd5f56349ac","019cf78c-cfcf-769c-9016-9b96552b5e33","","null","
                <div class=""stimulus-container"">
                    <img src=""images/semantic_sequence/creative_activities_semantic/creative_activities_semantic_1.png"" class=""exp-image"">
                    <div class=""question-area""></div> 
                </div>","null","","","","","","","","",""
"","","","","","html-button-response","60","243791","0.0-60.0","A58131FD31D7474D85ACD4D8FC9C5C14","019cf791-2cc4-74f0-90a2-7cd5f56349ac","019cf78c-cfcf-769c-9016-9b96552b5e33","","1425","
                <div class=""stimulus-container"">
                    <img src=""images/semantic_sequence/creative_activities_semantic/creative_activities_semantic_1.png"" class=""exp-image"">
                    <div class=""question-area"">
                        <p style=""font-size: 20px; font-weight: bold; margin: 0;"">Is there a person in this image?</p>
                    </div>
                </div>","0","main_experiment_trial","1","creative_activities_semantic","semantic_sequence","","","","",""
"","","","","","html-keyboard-response","61","248794","0.0-61.0","A58131FD31D7474D85ACD4D8FC9C5C14","019cf791-2cc4-74f0-90a2-7cd5f56349ac","019cf78c-cfcf-769c-9016-9b96552b5e33","","null","
                <div class=""stimulus-container"">
                    <img src=""images/semantic_sequence/creative_activities_semantic/creative_activities_semantic_2.png"" class=""exp-image"">
                    <div class=""question-area""></div> 
                </div>","null","","","","","","","","",""
"","","","","","html-button-response","62","249651","0.0-62.0","A58131FD31D7474D85ACD4D8FC9C5C14","019cf791-2cc4-74f0-90a2-7cd5f56349ac","019cf78c-cfcf-769c-9016-9b96552b5e33","","856","
                <div class=""stimulus-container"">
                    <img src=""images/semantic_sequence/creative_activities_semantic/creative_activities_semantic_2.png"" class=""exp-image"">
                    <div class=""question-area"">
                        <p style=""font-size: 20px; font-weight: bold; margin: 0;"">Is there a person in this image?</p>
                    </div>
                </div>","0","main_experiment_trial","2","creative_activities_semantic","semantic_sequence","","","","",""
"","","","","","html-keyboard-response","63","254664","0.0-63.0","A58131FD31D7474D85ACD4D8FC9C5C14","019cf791-2cc4-74f0-90a2-7cd5f56349ac","019cf78c-cfcf-769c-9016-9b96552b5e33","","null","
                <div class=""stimulus-container"">
                    <img src=""images/semantic_sequence/creative_activities_semantic/creative_activities_semantic_3.png"" class=""exp-image"">
                    <div class=""question-area""></div> 
                </div>","null","","","","","","","","",""
"","","","","","html-button-response","64","255510","0.0-64.0","A58131FD31D7474D85ACD4D8FC9C5C14","019cf791-2cc4-74f0-90a2-7cd5f56349ac","019cf78c-cfcf-769c-9016-9b96552b5e33","","845","
                <div class=""stimulus-container"">
                    <img src=""images/semantic_sequence/creative_activities_semantic/creative_activities_semantic_3.png"" class=""exp-image"">
                    <div class=""question-area"">
                        <p style=""font-size: 20px; font-weight: bold; margin: 0;"">Is there a person in this image?</p>
                    </div>
                </div>","0","main_experiment_trial","3","creative_activities_semantic","semantic_sequence","","","","",""
"","","","","","html-keyboard-response","65","260511","0.0-65.0","A58131FD31D7474D85ACD4D8FC9C5C14","019cf791-2cc4-74f0-90a2-7cd5f56349ac","019cf78c-cfcf-769c-9016-9b96552b5e33","","null","
                <div class=""stimulus-container"">
                    <img src=""images/semantic_sequence/creative_activities_semantic/creative_activities_semantic_4.png"" class=""exp-image"">
                    <div class=""question-area""></div> 
                </div>","null","","","","","","","","",""
"","","","","","html-button-response","66","261343","0.0-66.0","A58131FD31D7474D85ACD4D8FC9C5C14","019cf791-2cc4-74f0-90a2-7cd5f56349ac","019cf78c-cfcf-769c-9016-9b96552b5e33","","830","
                <div class=""stimulus-container"">
                    <img src=""images/semantic_sequence/creative_activities_semantic/creative_activities_semantic_4.png"" class=""exp-image"">
                    <div class=""question-area"">
                        <p style=""font-size: 20px; font-weight: bold; margin: 0;"">Is there a person in this image?</p>
                    </div>
                </div>","0","main_experiment_trial","4","creative_activities_semantic","semantic_sequence","","","","",""
"","","","","","html-keyboard-response","67","266355","0.0-67.0","A58131FD31D7474D85ACD4D8FC9C5C14","019cf791-2cc4-74f0-90a2-7cd5f56349ac","019cf78c-cfcf-769c-9016-9b96552b5e33","","null","
                <div class=""stimulus-container"">
                    <img src=""images/semantic_sequence/creative_activities_semantic/creative_activities_semantic_5.png"" class=""exp-image"">
                    <div class=""question-area""></div> 
                </div>","null","","","","","","","","",""
"","","","","","html-button-response","68","266960","0.0-68.0","A58131FD31D7474D85ACD4D8FC9C5C14","019cf791-2cc4-74f0-90a2-7cd5f56349ac","019cf78c-cfcf-769c-9016-9b96552b5e33","","603","
                <div class=""stimulus-container"">
                    <img src=""images/semantic_sequence/creative_activities_semantic/creative_activities_semantic_5.png"" class=""exp-image"">
                    <div class=""question-area"">
                        <p style=""font-size: 20px; font-weight: bold; margin: 0;"">Is there a person in this image?</p>
                    </div>
                </div>","0","main_experiment_trial","5","creative_activities_semantic","semantic_sequence","","","","",""
"","","","","","html-keyboard-response","69","271967","0.0-69.0","A58131FD31D7474D85ACD4D8FC9C5C14","019cf791-2cc4-74f0-90a2-7cd5f56349ac","019cf78c-cfcf-769c-9016-9b96552b5e33","","null","
                <div class=""stimulus-container"">
                    <img src=""images/semantic_sequence/creative_activities_semantic/creative_activities_semantic_6.png"" class=""exp-image"">
                    <div class=""question-area""></div> 
                </div>","null","","","","","","","","",""
"","","","","","html-button-response","70","272643","0.0-70.0","A58131FD31D7474D85ACD4D8FC9C5C14","019cf791-2cc4-74f0-90a2-7cd5f56349ac","019cf78c-cfcf-769c-9016-9b96552b5e33","","675","
                <div class=""stimulus-container"">
                    <img src=""images/semantic_sequence/creative_activities_semantic/creative_activities_semantic_6.png"" class=""exp-image"">
                    <div class=""question-area"">
                        <p style=""font-size: 20px; font-weight: bold; margin: 0;"">Is there a person in this image?</p>
                    </div>
                </div>","0","main_experiment_trial","6","creative_activities_semantic","semantic_sequence","","","","",""
"","","","","","html-keyboard-response","71","277653","0.0-71.0","A58131FD31D7474D85ACD4D8FC9C5C14","019cf791-2cc4-74f0-90a2-7cd5f56349ac","019cf78c-cfcf-769c-9016-9b96552b5e33","","null","
                <div class=""stimulus-container"">
                    <img src=""images/semantic_sequence/creative_activities_semantic/creative_activities_semantic_7.png"" class=""exp-image"">
                    <div class=""question-area""></div> 
                </div>","null","","","","","","","","",""
"","","","","","html-button-response","72","278497","0.0-72.0","A58131FD31D7474D85ACD4D8FC9C5C14","019cf791-2cc4-74f0-90a2-7cd5f56349ac","019cf78c-cfcf-769c-9016-9b96552b5e33","","842","
                <div class=""stimulus-container"">
                    <img src=""images/semantic_sequence/creative_activities_semantic/creative_activities_semantic_7.png"" class=""exp-image"">
                    <div class=""question-area"">
                        <p style=""font-size: 20px; font-weight: bold; margin: 0;"">Is there a person in this image?</p>
                    </div>
                </div>","0","main_experiment_trial","7","creative_activities_semantic","semantic_sequence","","","","",""
"","","","","","html-keyboard-response","73","283516","0.0-73.0","A58131FD31D7474D85ACD4D8FC9C5C14","019cf791-2cc4-74f0-90a2-7cd5f56349ac","019cf78c-cfcf-769c-9016-9b96552b5e33","","null","
                <div class=""stimulus-container"">
                    <img src=""images/semantic_sequence/creative_activities_semantic/creative_activities_semantic_8.png"" class=""exp-image"">
                    <div class=""question-area""></div> 
                </div>","null","","","","","","","","",""
"","","","","","html-button-response","74","284168","0.0-74.0","A58131FD31D7474D85ACD4D8FC9C5C14","019cf791-2cc4-74f0-90a2-7cd5f56349ac","019cf78c-cfcf-769c-9016-9b96552b5e33","","650","
                <div class=""stimulus-container"">
                    <img src=""images/semantic_sequence/creative_activities_semantic/creative_activities_semantic_8.png"" class=""exp-image"">
                    <div class=""question-area"">
                        <p style=""font-size: 20px; font-weight: bold; margin: 0;"">Is there a person in this image?</p>
                    </div>
                </div>","0","main_experiment_trial","8","creative_activities_semantic","semantic_sequence","","","","",""
"","","","","","html-keyboard-response","75","289178","0.0-75.0","A58131FD31D7474D85ACD4D8FC9C5C14","019cf791-2cc4-74f0-90a2-7cd5f56349ac","019cf78c-cfcf-769c-9016-9b96552b5e33","","null","
                <div class=""stimulus-container"">
                    <img src=""images/semantic_sequence/creative_activities_semantic/creative_activities_semantic_9.png"" class=""exp-image"">
                    <div class=""question-area""></div> 
                </div>","null","","","","","","","","",""
"","","","","","html-button-response","76","289827","0.0-76.0","A58131FD31D7474D85ACD4D8FC9C5C14","019cf791-2cc4-74f0-90a2-7cd5f56349ac","019cf78c-cfcf-769c-9016-9b96552b5e33","","647","
                <div class=""stimulus-container"">
                    <img src=""images/semantic_sequence/creative_activities_semantic/creative_activities_semantic_9.png"" class=""exp-image"">
                    <div class=""question-area"">
                        <p style=""font-size: 20px; font-weight: bold; margin: 0;"">Is there a person in this image?</p>
                    </div>
                </div>","0","main_experiment_trial","9","creative_activities_semantic","semantic_sequence","","","","",""
"","","","","","html-keyboard-response","77","294844","0.0-77.0","A58131FD31D7474D85ACD4D8FC9C5C14","019cf791-2cc4-74f0-90a2-7cd5f56349ac","019cf78c-cfcf-769c-9016-9b96552b5e33","","null","
                <div class=""stimulus-container"">
                    <img src=""images/semantic_sequence/creative_activities_semantic/creative_activities_semantic_ten.png"" class=""exp-image"">
                    <div class=""question-area""></div> 
                </div>","null","","","","","","","","",""
"","","","","","html-button-response","78","295469","0.0-78.0","A58131FD31D7474D85ACD4D8FC9C5C14","019cf791-2cc4-74f0-90a2-7cd5f56349ac","019cf78c-cfcf-769c-9016-9b96552b5e33","","623","
                <div class=""stimulus-container"">
                    <img src=""images/semantic_sequence/creative_activities_semantic/creative_activities_semantic_ten.png"" class=""exp-image"">
                    <div class=""question-area"">
                        <p style=""font-size: 20px; font-weight: bold; margin: 0;"">Is there a person in this image?</p>
                    </div>
                </div>","0","main_experiment_trial","ten","creative_activities_semantic","semantic_sequence","","","","",""
"","","","","","html-keyboard-response","79","296475","0.0-79.0","A58131FD31D7474D85ACD4D8FC9C5C14","019cf791-2cc4-74f0-90a2-7cd5f56349ac","019cf78c-cfcf-769c-9016-9b96552b5e33","","null","<div style=""background-color: white; width: 100vw; height: 100vh;""></div>","null","","","","","","","","",""
"","","","","","html-keyboard-response","80","301493","0.0-80.0","A58131FD31D7474D85ACD4D8FC9C5C14","019cf791-2cc4-74f0-90a2-7cd5f56349ac","019cf78c-cfcf-769c-9016-9b96552b5e33","","null","
                <div class=""stimulus-container"">
                    <img src=""images/schematic_sequence/interview_scheme/interview_scheme_1.png"" class=""exp-image"">
                    <div class=""question-area""></div> 
                </div>","null","","","","","","","","",""
"","","","","","html-button-response","81","302599","0.0-81.0","A58131FD31D7474D85ACD4D8FC9C5C14","019cf791-2cc4-74f0-90a2-7cd5f56349ac","019cf78c-cfcf-769c-9016-9b96552b5e33","","1104","
                <div class=""stimulus-container"">
                    <img src=""images/schematic_sequence/interview_scheme/interview_scheme_1.png"" class=""exp-image"">
                    <div class=""question-area"">
                        <p style=""font-size: 20px; font-weight: bold; margin: 0;"">Is there a person in this image?</p>
                    </div>
                </div>","1","main_experiment_trial","1","interview_scheme","schematic_sequence","","","","",""
"","","","","","html-keyboard-response","82","307600","0.0-82.0","A58131FD31D7474D85ACD4D8FC9C5C14","019cf791-2cc4-74f0-90a2-7cd5f56349ac","019cf78c-cfcf-769c-9016-9b96552b5e33","","null","
                <div class=""stimulus-container"">
                    <img src=""images/schematic_sequence/interview_scheme/interview_scheme_2.png"" class=""exp-image"">
                    <div class=""question-area""></div> 
                </div>","null","","","","","","","","",""
"","","","","","html-button-response","83","308997","0.0-83.0","A58131FD31D7474D85ACD4D8FC9C5C14","019cf791-2cc4-74f0-90a2-7cd5f56349ac","019cf78c-cfcf-769c-9016-9b96552b5e33","","1395","
                <div class=""stimulus-container"">
                    <img src=""images/schematic_sequence/interview_scheme/interview_scheme_2.png"" class=""exp-image"">
                    <div class=""question-area"">
                        <p style=""font-size: 20px; font-weight: bold; margin: 0;"">Is there a person in this image?</p>
                    </div>
                </div>","0","main_experiment_trial","2","interview_scheme","schematic_sequence","","","","",""
"","","","","","html-keyboard-response","84","314016","0.0-84.0","A58131FD31D7474D85ACD4D8FC9C5C14","019cf791-2cc4-74f0-90a2-7cd5f56349ac","019cf78c-cfcf-769c-9016-9b96552b5e33","","null","
                <div class=""stimulus-container"">
                    <img src=""images/schematic_sequence/interview_scheme/interview_scheme_3.png"" class=""exp-image"">
                    <div class=""question-area""></div> 
                </div>","null","","","","","","","","",""
"","","","","","html-button-response","85","314774","0.0-85.0","A58131FD31D7474D85ACD4D8FC9C5C14","019cf791-2cc4-74f0-90a2-7cd5f56349ac","019cf78c-cfcf-769c-9016-9b96552b5e33","","756","
                <div class=""stimulus-container"">
                    <img src=""images/schematic_sequence/interview_scheme/interview_scheme_3.png"" class=""exp-image"">
                    <div class=""question-area"">
                        <p style=""font-size: 20px; font-weight: bold; margin: 0;"">Is there a person in this image?</p>
                    </div>
                </div>","1","main_experiment_trial","3","interview_scheme","schematic_sequence","","","","",""
"","","","","","html-keyboard-response","86","319791","0.0-86.0","A58131FD31D7474D85ACD4D8FC9C5C14","019cf791-2cc4-74f0-90a2-7cd5f56349ac","019cf78c-cfcf-769c-9016-9b96552b5e33","","null","
                <div class=""stimulus-container"">
                    <img src=""images/schematic_sequence/interview_scheme/interview_scheme_4.png"" class=""exp-image"">
                    <div class=""question-area""></div> 
                </div>","null","","","","","","","","",""
"","","","","","html-button-response","87","320489","0.0-87.0","A58131FD31D7474D85ACD4D8FC9C5C14","019cf791-2cc4-74f0-90a2-7cd5f56349ac","019cf78c-cfcf-769c-9016-9b96552b5e33","","696","
                <div class=""stimulus-container"">
                    <img src=""images/schematic_sequence/interview_scheme/interview_scheme_4.png"" class=""exp-image"">
                    <div class=""question-area"">
                        <p style=""font-size: 20px; font-weight: bold; margin: 0;"">Is there a person in this image?</p>
                    </div>
                </div>","1","main_experiment_trial","4","interview_scheme","schematic_sequence","","","","",""
"","","","","","html-keyboard-response","88","325509","0.0-88.0","A58131FD31D7474D85ACD4D8FC9C5C14","019cf791-2cc4-74f0-90a2-7cd5f56349ac","019cf78c-cfcf-769c-9016-9b96552b5e33","","null","
                <div class=""stimulus-container"">
                    <img src=""images/schematic_sequence/interview_scheme/interview_scheme_5.png"" class=""exp-image"">
                    <div class=""question-area""></div> 
                </div>","null","","","","","","","","",""
"","","","","","html-button-response","89","326596","0.0-89.0","A58131FD31D7474D85ACD4D8FC9C5C14","019cf791-2cc4-74f0-90a2-7cd5f56349ac","019cf78c-cfcf-769c-9016-9b96552b5e33","","1086","
                <div class=""stimulus-container"">
                    <img src=""images/schematic_sequence/interview_scheme/interview_scheme_5.png"" class=""exp-image"">
                    <div class=""question-area"">
                        <p style=""font-size: 20px; font-weight: bold; margin: 0;"">Is there a person in this image?</p>
                    </div>
                </div>","0","main_experiment_trial","5","interview_scheme","schematic_sequence","","","","",""
"","","","","","html-keyboard-response","90","331599","0.0-90.0","A58131FD31D7474D85ACD4D8FC9C5C14","019cf791-2cc4-74f0-90a2-7cd5f56349ac","019cf78c-cfcf-769c-9016-9b96552b5e33","","null","
                <div class=""stimulus-container"">
                    <img src=""images/schematic_sequence/interview_scheme/interview_scheme_6.png"" class=""exp-image"">
                    <div class=""question-area""></div> 
                </div>","null","","","","","","","","",""
"","","","","","html-button-response","91","332257","0.0-91.0","A58131FD31D7474D85ACD4D8FC9C5C14","019cf791-2cc4-74f0-90a2-7cd5f56349ac","019cf78c-cfcf-769c-9016-9b96552b5e33","","657","
                <div class=""stimulus-container"">
                    <img src=""images/schematic_sequence/interview_scheme/interview_scheme_6.png"" class=""exp-image"">
                    <div class=""question-area"">
                        <p style=""font-size: 20px; font-weight: bold; margin: 0;"">Is there a person in this image?</p>
                    </div>
                </div>","0","main_experiment_trial","6","interview_scheme","schematic_sequence","","","","",""
"","","","","","html-keyboard-response","92","337270","0.0-92.0","A58131FD31D7474D85ACD4D8FC9C5C14","019cf791-2cc4-74f0-90a2-7cd5f56349ac","019cf78c-cfcf-769c-9016-9b96552b5e33","","null","
                <div class=""stimulus-container"">
                    <img src=""images/schematic_sequence/interview_scheme/interview_scheme_7.png"" class=""exp-image"">
                    <div class=""question-area""></div> 
                </div>","null","","","","","","","","",""
"","","","","","html-button-response","93","337944","0.0-93.0","A58131FD31D7474D85ACD4D8FC9C5C14","019cf791-2cc4-74f0-90a2-7cd5f56349ac","019cf78c-cfcf-769c-9016-9b96552b5e33","","672","
                <div class=""stimulus-container"">
                    <img src=""images/schematic_sequence/interview_scheme/interview_scheme_7.png"" class=""exp-image"">
                    <div class=""question-area"">
                        <p style=""font-size: 20px; font-weight: bold; margin: 0;"">Is there a person in this image?</p>
                    </div>
                </div>","0","main_experiment_trial","7","interview_scheme","schematic_sequence","","","","",""
"","","","","","html-keyboard-response","94","342956","0.0-94.0","A58131FD31D7474D85ACD4D8FC9C5C14","019cf791-2cc4-74f0-90a2-7cd5f56349ac","019cf78c-cfcf-769c-9016-9b96552b5e33","","null","
                <div class=""stimulus-container"">
                    <img src=""images/schematic_sequence/interview_scheme/interview_scheme_8.png"" class=""exp-image"">
                    <div class=""question-area""></div> 
                </div>","null","","","","","","","","",""
"","","","","","html-button-response","95","343674","0.0-95.0","A58131FD31D7474D85ACD4D8FC9C5C14","019cf791-2cc4-74f0-90a2-7cd5f56349ac","019cf78c-cfcf-769c-9016-9b96552b5e33","","717","
                <div class=""stimulus-container"">
                    <img src=""images/schematic_sequence/interview_scheme/interview_scheme_8.png"" class=""exp-image"">
                    <div class=""question-area"">
                        <p style=""font-size: 20px; font-weight: bold; margin: 0;"">Is there a person in this image?</p>
                    </div>
                </div>","0","main_experiment_trial","8","interview_scheme","schematic_sequence","","","","",""
"","","","","","html-keyboard-response","96","348676","0.0-96.0","A58131FD31D7474D85ACD4D8FC9C5C14","019cf791-2cc4-74f0-90a2-7cd5f56349ac","019cf78c-cfcf-769c-9016-9b96552b5e33","","null","
                <div class=""stimulus-container"">
                    <img src=""images/schematic_sequence/interview_scheme/interview_scheme_9.png"" class=""exp-image"">
                    <div class=""question-area""></div> 
                </div>","null","","","","","","","","",""
"","","","","","html-button-response","97","349552","0.0-97.0","A58131FD31D7474D85ACD4D8FC9C5C14","019cf791-2cc4-74f0-90a2-7cd5f56349ac","019cf78c-cfcf-769c-9016-9b96552b5e33","","874","
                <div class=""stimulus-container"">
                    <img src=""images/schematic_sequence/interview_scheme/interview_scheme_9.png"" class=""exp-image"">
                    <div class=""question-area"">
                        <p style=""font-size: 20px; font-weight: bold; margin: 0;"">Is there a person in this image?</p>
                    </div>
                </div>","0","main_experiment_trial","9","interview_scheme","schematic_sequence","","","","",""
"","","","","","html-keyboard-response","98","354554","0.0-98.0","A58131FD31D7474D85ACD4D8FC9C5C14","019cf791-2cc4-74f0-90a2-7cd5f56349ac","019cf78c-cfcf-769c-9016-9b96552b5e33","","null","
                <div class=""stimulus-container"">
                    <img src=""images/schematic_sequence/interview_scheme/interview_scheme_ten.png"" class=""exp-image"">
                    <div class=""question-area""></div> 
                </div>","null","","","","","","","","",""
"","","","","","html-button-response","99","355286","0.0-99.0","A58131FD31D7474D85ACD4D8FC9C5C14","019cf791-2cc4-74f0-90a2-7cd5f56349ac","019cf78c-cfcf-769c-9016-9b96552b5e33","","730","
                <div class=""stimulus-container"">
                    <img src=""images/schematic_sequence/interview_scheme/interview_scheme_ten.png"" class=""exp-image"">
                    <div class=""question-area"">
                        <p style=""font-size: 20px; font-weight: bold; margin: 0;"">Is there a person in this image?</p>
                    </div>
                </div>","0","main_experiment_trial","ten","interview_scheme","schematic_sequence","","","","",""
"","","","","","html-keyboard-response","100","356292","0.0-100.0","A58131FD31D7474D85ACD4D8FC9C5C14","019cf791-2cc4-74f0-90a2-7cd5f56349ac","019cf78c-cfcf-769c-9016-9b96552b5e33","","null","<div style=""background-color: white; width: 100vw; height: 100vh;""></div>","null","","","","","","","","",""
"","","","","","html-keyboard-response","101","361300","0.0-101.0","A58131FD31D7474D85ACD4D8FC9C5C14","019cf791-2cc4-74f0-90a2-7cd5f56349ac","019cf78c-cfcf-769c-9016-9b96552b5e33","","null","
                <div class=""stimulus-container"">
                    <img src=""images/semantic_sequence/kitchen_operations_semantic/kitchen_operations_semantic_1.png"" class=""exp-image"">
                    <div class=""question-area""></div> 
                </div>","null","","","","","","","","",""
"","","","","","html-button-response","102","362271","0.0-102.0","A58131FD31D7474D85ACD4D8FC9C5C14","019cf791-2cc4-74f0-90a2-7cd5f56349ac","019cf78c-cfcf-769c-9016-9b96552b5e33","","969","
                <div class=""stimulus-container"">
                    <img src=""images/semantic_sequence/kitchen_operations_semantic/kitchen_operations_semantic_1.png"" class=""exp-image"">
                    <div class=""question-area"">
                        <p style=""font-size: 20px; font-weight: bold; margin: 0;"">Is there a person in this image?</p>
                    </div>
                </div>","0","main_experiment_trial","1","kitchen_operations_semantic","semantic_sequence","","","","",""
"","","","","","html-keyboard-response","103","367283","0.0-103.0","A58131FD31D7474D85ACD4D8FC9C5C14","019cf791-2cc4-74f0-90a2-7cd5f56349ac","019cf78c-cfcf-769c-9016-9b96552b5e33","","null","
                <div class=""stimulus-container"">
                    <img src=""images/semantic_sequence/kitchen_operations_semantic/kitchen_operations_semantic_2.png"" class=""exp-image"">
                    <div class=""question-area""></div> 
                </div>","null","","","","","","","","",""
"","","","","","html-button-response","104","368078","0.0-104.0","A58131FD31D7474D85ACD4D8FC9C5C14","019cf791-2cc4-74f0-90a2-7cd5f56349ac","019cf78c-cfcf-769c-9016-9b96552b5e33","","792","
                <div class=""stimulus-container"">
                    <img src=""images/semantic_sequence/kitchen_operations_semantic/kitchen_operations_semantic_2.png"" class=""exp-image"">
                    <div class=""question-area"">
                        <p style=""font-size: 20px; font-weight: bold; margin: 0;"">Is there a person in this image?</p>
                    </div>
                </div>","0","main_experiment_trial","2","kitchen_operations_semantic","semantic_sequence","","","","",""
"","","","","","html-keyboard-response","105","373082","0.0-105.0","A58131FD31D7474D85ACD4D8FC9C5C14","019cf791-2cc4-74f0-90a2-7cd5f56349ac","019cf78c-cfcf-769c-9016-9b96552b5e33","","null","
                <div class=""stimulus-container"">
                    <img src=""images/semantic_sequence/kitchen_operations_semantic/kitchen_operations_semantic_3.png"" class=""exp-image"">
                    <div class=""question-area""></div> 
                </div>","null","","","","","","","","",""
"","","","","","html-button-response","106","373809","0.0-106.0","A58131FD31D7474D85ACD4D8FC9C5C14","019cf791-2cc4-74f0-90a2-7cd5f56349ac","019cf78c-cfcf-769c-9016-9b96552b5e33","","725","
                <div class=""stimulus-container"">
                    <img src=""images/semantic_sequence/kitchen_operations_semantic/kitchen_operations_semantic_3.png"" class=""exp-image"">
                    <div class=""question-area"">
                        <p style=""font-size: 20px; font-weight: bold; margin: 0;"">Is there a person in this image?</p>
                    </div>
                </div>","0","main_experiment_trial","3","kitchen_operations_semantic","semantic_sequence","","","","",""
"","","","","","html-keyboard-response","107","378811","0.0-107.0","A58131FD31D7474D85ACD4D8FC9C5C14","019cf791-2cc4-74f0-90a2-7cd5f56349ac","019cf78c-cfcf-769c-9016-9b96552b5e33","","null","
                <div class=""stimulus-container"">
                    <img src=""images/semantic_sequence/kitchen_operations_semantic/kitchen_operations_semantic_4.png"" class=""exp-image"">
                    <div class=""question-area""></div> 
                </div>","null","","","","","","","","",""
"","","","","","html-button-response","108","379466","0.0-108.0","A58131FD31D7474D85ACD4D8FC9C5C14","019cf791-2cc4-74f0-90a2-7cd5f56349ac","019cf78c-cfcf-769c-9016-9b96552b5e33","","654","
                <div class=""stimulus-container"">
                    <img src=""images/semantic_sequence/kitchen_operations_semantic/kitchen_operations_semantic_4.png"" class=""exp-image"">
                    <div class=""question-area"">
                        <p style=""font-size: 20px; font-weight: bold; margin: 0;"">Is there a person in this image?</p>
                    </div>
                </div>","0","main_experiment_trial","4","kitchen_operations_semantic","semantic_sequence","","","","",""
"","","","","","html-keyboard-response","109","384482","0.0-109.0","A58131FD31D7474D85ACD4D8FC9C5C14","019cf791-2cc4-74f0-90a2-7cd5f56349ac","019cf78c-cfcf-769c-9016-9b96552b5e33","","null","
                <div class=""stimulus-container"">
                    <img src=""images/semantic_sequence/kitchen_operations_semantic/kitchen_operations_semantic_5.png"" class=""exp-image"">
                    <div class=""question-area""></div> 
                </div>","null","","","","","","","","",""
"","","","","","html-button-response","110","385126","0.0-110.0","A58131FD31D7474D85ACD4D8FC9C5C14","019cf791-2cc4-74f0-90a2-7cd5f56349ac","019cf78c-cfcf-769c-9016-9b96552b5e33","","642","
                <div class=""stimulus-container"">
                    <img src=""images/semantic_sequence/kitchen_operations_semantic/kitchen_operations_semantic_5.png"" class=""exp-image"">
                    <div class=""question-area"">
                        <p style=""font-size: 20px; font-weight: bold; margin: 0;"">Is there a person in this image?</p>
                    </div>
                </div>","0","main_experiment_trial","5","kitchen_operations_semantic","semantic_sequence","","","","",""
"","","","","","html-keyboard-response","111","390131","0.0-111.0","A58131FD31D7474D85ACD4D8FC9C5C14","019cf791-2cc4-74f0-90a2-7cd5f56349ac","019cf78c-cfcf-769c-9016-9b96552b5e33","","null","
                <div class=""stimulus-container"">
                    <img src=""images/semantic_sequence/kitchen_operations_semantic/kitchen_operations_semantic_6.png"" class=""exp-image"">
                    <div class=""question-area""></div> 
                </div>","null","","","","","","","","",""
"","","","","","html-button-response","112","390831","0.0-112.0","A58131FD31D7474D85ACD4D8FC9C5C14","019cf791-2cc4-74f0-90a2-7cd5f56349ac","019cf78c-cfcf-769c-9016-9b96552b5e33","","698","
                <div class=""stimulus-container"">
                    <img src=""images/semantic_sequence/kitchen_operations_semantic/kitchen_operations_semantic_6.png"" class=""exp-image"">
                    <div class=""question-area"">
                        <p style=""font-size: 20px; font-weight: bold; margin: 0;"">Is there a person in this image?</p>
                    </div>
                </div>","0","main_experiment_trial","6","kitchen_operations_semantic","semantic_sequence","","","","",""
"","","","","","html-keyboard-response","113","395834","0.0-113.0","A58131FD31D7474D85ACD4D8FC9C5C14","019cf791-2cc4-74f0-90a2-7cd5f56349ac","019cf78c-cfcf-769c-9016-9b96552b5e33","","null","
                <div class=""stimulus-container"">
                    <img src=""images/semantic_sequence/kitchen_operations_semantic/kitchen_operations_semantic_7.png"" class=""exp-image"">
                    <div class=""question-area""></div> 
                </div>","null","","","","","","","","",""
"","","","","","html-button-response","114","396479","0.0-114.0","A58131FD31D7474D85ACD4D8FC9C5C14","019cf791-2cc4-74f0-90a2-7cd5f56349ac","019cf78c-cfcf-769c-9016-9b96552b5e33","","644","
                <div class=""stimulus-container"">
                    <img src=""images/semantic_sequence/kitchen_operations_semantic/kitchen_operations_semantic_7.png"" class=""exp-image"">
                    <div class=""question-area"">
                        <p style=""font-size: 20px; font-weight: bold; margin: 0;"">Is there a person in this image?</p>
                    </div>
                </div>","0","main_experiment_trial","7","kitchen_operations_semantic","semantic_sequence","","","","",""
"","","","","","html-keyboard-response","115","401481","0.0-115.0","A58131FD31D7474D85ACD4D8FC9C5C14","019cf791-2cc4-74f0-90a2-7cd5f56349ac","019cf78c-cfcf-769c-9016-9b96552b5e33","","null","
                <div class=""stimulus-container"">
                    <img src=""images/semantic_sequence/kitchen_operations_semantic/kitchen_operations_semantic_8.png"" class=""exp-image"">
                    <div class=""question-area""></div> 
                </div>","null","","","","","","","","",""
"","","","","","html-button-response","116","402346","0.0-116.0","A58131FD31D7474D85ACD4D8FC9C5C14","019cf791-2cc4-74f0-90a2-7cd5f56349ac","019cf78c-cfcf-769c-9016-9b96552b5e33","","863","
                <div class=""stimulus-container"">
                    <img src=""images/semantic_sequence/kitchen_operations_semantic/kitchen_operations_semantic_8.png"" class=""exp-image"">
                    <div class=""question-area"">
                        <p style=""font-size: 20px; font-weight: bold; margin: 0;"">Is there a person in this image?</p>
                    </div>
                </div>","0","main_experiment_trial","8","kitchen_operations_semantic","semantic_sequence","","","","",""
"","","","","","html-keyboard-response","117","407357","0.0-117.0","A58131FD31D7474D85ACD4D8FC9C5C14","019cf791-2cc4-74f0-90a2-7cd5f56349ac","019cf78c-cfcf-769c-9016-9b96552b5e33","","null","
                <div class=""stimulus-container"">
                    <img src=""images/semantic_sequence/kitchen_operations_semantic/kitchen_operations_semantic_9.png"" class=""exp-image"">
                    <div class=""question-area""></div> 
                </div>","null","","","","","","","","",""
"","","","","","html-button-response","118","407991","0.0-118.0","A58131FD31D7474D85ACD4D8FC9C5C14","019cf791-2cc4-74f0-90a2-7cd5f56349ac","019cf78c-cfcf-769c-9016-9b96552b5e33","","632","
                <div class=""stimulus-container"">
                    <img src=""images/semantic_sequence/kitchen_operations_semantic/kitchen_operations_semantic_9.png"" class=""exp-image"">
                    <div class=""question-area"">
                        <p style=""font-size: 20px; font-weight: bold; margin: 0;"">Is there a person in this image?</p>
                    </div>
                </div>","0","main_experiment_trial","9","kitchen_operations_semantic","semantic_sequence","","","","",""
"","","","","","html-keyboard-response","119","413003","0.0-119.0","A58131FD31D7474D85ACD4D8FC9C5C14","019cf791-2cc4-74f0-90a2-7cd5f56349ac","019cf78c-cfcf-769c-9016-9b96552b5e33","","null","
                <div class=""stimulus-container"">
                    <img src=""images/semantic_sequence/kitchen_operations_semantic/kitchen_operations_semantic_ten.png"" class=""exp-image"">
                    <div class=""question-area""></div> 
                </div>","null","","","","","","","","",""
"","","","","","html-button-response","120","413831","0.0-120.0","A58131FD31D7474D85ACD4D8FC9C5C14","019cf791-2cc4-74f0-90a2-7cd5f56349ac","019cf78c-cfcf-769c-9016-9b96552b5e33","","826","
                <div class=""stimulus-container"">
                    <img src=""images/semantic_sequence/kitchen_operations_semantic/kitchen_operations_semantic_ten.png"" class=""exp-image"">
                    <div class=""question-area"">
                        <p style=""font-size: 20px; font-weight: bold; margin: 0;"">Is there a person in this image?</p>
                    </div>
                </div>","0","main_experiment_trial","ten","kitchen_operations_semantic","semantic_sequence","","","","",""
"","","","","","html-keyboard-response","121","414839","0.0-121.0","A58131FD31D7474D85ACD4D8FC9C5C14","019cf791-2cc4-74f0-90a2-7cd5f56349ac","019cf78c-cfcf-769c-9016-9b96552b5e33","","null","<div style=""background-color: white; width: 100vw; height: 100vh;""></div>","null","","","","","","","","",""
"","","","","","html-keyboard-response","122","419841","0.0-122.0","A58131FD31D7474D85ACD4D8FC9C5C14","019cf791-2cc4-74f0-90a2-7cd5f56349ac","019cf78c-cfcf-769c-9016-9b96552b5e33","","null","
                <div class=""stimulus-container"">
                    <img src=""images/schematic_sequence/restaurant_scheme/restaurant_scheme_1.png"" class=""exp-image"">
                    <div class=""question-area""></div> 
                </div>","null","","","","","","","","",""
"","","","","","html-button-response","123","420460","0.0-123.0","A58131FD31D7474D85ACD4D8FC9C5C14","019cf791-2cc4-74f0-90a2-7cd5f56349ac","019cf78c-cfcf-769c-9016-9b96552b5e33","","618","
                <div class=""stimulus-container"">
                    <img src=""images/schematic_sequence/restaurant_scheme/restaurant_scheme_1.png"" class=""exp-image"">
                    <div class=""question-area"">
                        <p style=""font-size: 20px; font-weight: bold; margin: 0;"">Is there a person in this image?</p>
                    </div>
                </div>","0","main_experiment_trial","1","restaurant_scheme","schematic_sequence","","","","",""
"","","","","","html-keyboard-response","124","425463","0.0-124.0","A58131FD31D7474D85ACD4D8FC9C5C14","019cf791-2cc4-74f0-90a2-7cd5f56349ac","019cf78c-cfcf-769c-9016-9b96552b5e33","","null","
                <div class=""stimulus-container"">
                    <img src=""images/schematic_sequence/restaurant_scheme/restaurant_scheme_2.png"" class=""exp-image"">
                    <div class=""question-area""></div> 
                </div>","null","","","","","","","","",""
"","","","","","html-button-response","125","426288","0.0-125.0","A58131FD31D7474D85ACD4D8FC9C5C14","019cf791-2cc4-74f0-90a2-7cd5f56349ac","019cf78c-cfcf-769c-9016-9b96552b5e33","","824","
                <div class=""stimulus-container"">
                    <img src=""images/schematic_sequence/restaurant_scheme/restaurant_scheme_2.png"" class=""exp-image"">
                    <div class=""question-area"">
                        <p style=""font-size: 20px; font-weight: bold; margin: 0;"">Is there a person in this image?</p>
                    </div>
                </div>","1","main_experiment_trial","2","restaurant_scheme","schematic_sequence","","","","",""
"","","","","","html-keyboard-response","126","431302","0.0-126.0","A58131FD31D7474D85ACD4D8FC9C5C14","019cf791-2cc4-74f0-90a2-7cd5f56349ac","019cf78c-cfcf-769c-9016-9b96552b5e33","","null","
                <div class=""stimulus-container"">
                    <img src=""images/schematic_sequence/restaurant_scheme/restaurant_scheme_3.png"" class=""exp-image"">
                    <div class=""question-area""></div> 
                </div>","null","","","","","","","","",""
"","","","","","html-button-response","127","432001","0.0-127.0","A58131FD31D7474D85ACD4D8FC9C5C14","019cf791-2cc4-74f0-90a2-7cd5f56349ac","019cf78c-cfcf-769c-9016-9b96552b5e33","","698","
                <div class=""stimulus-container"">
                    <img src=""images/schematic_sequence/restaurant_scheme/restaurant_scheme_3.png"" class=""exp-image"">
                    <div class=""question-area"">
                        <p style=""font-size: 20px; font-weight: bold; margin: 0;"">Is there a person in this image?</p>
                    </div>
                </div>","1","main_experiment_trial","3","restaurant_scheme","schematic_sequence","","","","",""
"","","","","","html-keyboard-response","128","437018","0.0-128.0","A58131FD31D7474D85ACD4D8FC9C5C14","019cf791-2cc4-74f0-90a2-7cd5f56349ac","019cf78c-cfcf-769c-9016-9b96552b5e33","","null","
                <div class=""stimulus-container"">
                    <img src=""images/schematic_sequence/restaurant_scheme/restaurant_scheme_4.png"" class=""exp-image"">
                    <div class=""question-area""></div> 
                </div>","null","","","","","","","","",""
"","","","","","html-button-response","129","437904","0.0-129.0","A58131FD31D7474D85ACD4D8FC9C5C14","019cf791-2cc4-74f0-90a2-7cd5f56349ac","019cf78c-cfcf-769c-9016-9b96552b5e33","","885","
                <div class=""stimulus-container"">
                    <img src=""images/schematic_sequence/restaurant_scheme/restaurant_scheme_4.png"" class=""exp-image"">
                    <div class=""question-area"">
                        <p style=""font-size: 20px; font-weight: bold; margin: 0;"">Is there a person in this image?</p>
                    </div>
                </div>","0","main_experiment_trial","4","restaurant_scheme","schematic_sequence","","","","",""
"","","","","","html-keyboard-response","130","442909","0.0-130.0","A58131FD31D7474D85ACD4D8FC9C5C14","019cf791-2cc4-74f0-90a2-7cd5f56349ac","019cf78c-cfcf-769c-9016-9b96552b5e33","","null","
                <div class=""stimulus-container"">
                    <img src=""images/schematic_sequence/restaurant_scheme/restaurant_scheme_5.png"" class=""exp-image"">
                    <div class=""question-area""></div> 
                </div>","null","","","","","","","","",""
"","","","","","html-button-response","131","443627","0.0-131.0","A58131FD31D7474D85ACD4D8FC9C5C14","019cf791-2cc4-74f0-90a2-7cd5f56349ac","019cf78c-cfcf-769c-9016-9b96552b5e33","","716","
                <div class=""stimulus-container"">
                    <img src=""images/schematic_sequence/restaurant_scheme/restaurant_scheme_5.png"" class=""exp-image"">
                    <div class=""question-area"">
                        <p style=""font-size: 20px; font-weight: bold; margin: 0;"">Is there a person in this image?</p>
                    </div>
                </div>","0","main_experiment_trial","5","restaurant_scheme","schematic_sequence","","","","",""
"","","","","","html-keyboard-response","132","448631","0.0-132.0","A58131FD31D7474D85ACD4D8FC9C5C14","019cf791-2cc4-74f0-90a2-7cd5f56349ac","019cf78c-cfcf-769c-9016-9b96552b5e33","","null","
                <div class=""stimulus-container"">
                    <img src=""images/schematic_sequence/restaurant_scheme/restaurant_scheme_6.png"" class=""exp-image"">
                    <div class=""question-area""></div> 
                </div>","null","","","","","","","","",""
"","","","","","html-button-response","133","449529","0.0-133.0","A58131FD31D7474D85ACD4D8FC9C5C14","019cf791-2cc4-74f0-90a2-7cd5f56349ac","019cf78c-cfcf-769c-9016-9b96552b5e33","","897","
                <div class=""stimulus-container"">
                    <img src=""images/schematic_sequence/restaurant_scheme/restaurant_scheme_6.png"" class=""exp-image"">
                    <div class=""question-area"">
                        <p style=""font-size: 20px; font-weight: bold; margin: 0;"">Is there a person in this image?</p>
                    </div>
                </div>","1","main_experiment_trial","6","restaurant_scheme","schematic_sequence","","","","",""
"","","","","","html-keyboard-response","134","454536","0.0-134.0","A58131FD31D7474D85ACD4D8FC9C5C14","019cf791-2cc4-74f0-90a2-7cd5f56349ac","019cf78c-cfcf-769c-9016-9b96552b5e33","","null","
                <div class=""stimulus-container"">
                    <img src=""images/schematic_sequence/restaurant_scheme/restaurant_scheme_7.png"" class=""exp-image"">
                    <div class=""question-area""></div> 
                </div>","null","","","","","","","","",""
"","","","","","html-button-response","135","455591","0.0-135.0","A58131FD31D7474D85ACD4D8FC9C5C14","019cf791-2cc4-74f0-90a2-7cd5f56349ac","019cf78c-cfcf-769c-9016-9b96552b5e33","","1053","
                <div class=""stimulus-container"">
                    <img src=""images/schematic_sequence/restaurant_scheme/restaurant_scheme_7.png"" class=""exp-image"">
                    <div class=""question-area"">
                        <p style=""font-size: 20px; font-weight: bold; margin: 0;"">Is there a person in this image?</p>
                    </div>
                </div>","1","main_experiment_trial","7","restaurant_scheme","schematic_sequence","","","","",""
"","","","","","html-keyboard-response","136","460599","0.0-136.0","A58131FD31D7474D85ACD4D8FC9C5C14","019cf791-2cc4-74f0-90a2-7cd5f56349ac","019cf78c-cfcf-769c-9016-9b96552b5e33","","null","
                <div class=""stimulus-container"">
                    <img src=""images/schematic_sequence/restaurant_scheme/restaurant_scheme_8.png"" class=""exp-image"">
                    <div class=""question-area""></div> 
                </div>","null","","","","","","","","",""
"","","","","","html-button-response","137","461241","0.0-137.0","A58131FD31D7474D85ACD4D8FC9C5C14","019cf791-2cc4-74f0-90a2-7cd5f56349ac","019cf78c-cfcf-769c-9016-9b96552b5e33","","641","
                <div class=""stimulus-container"">
                    <img src=""images/schematic_sequence/restaurant_scheme/restaurant_scheme_8.png"" class=""exp-image"">
                    <div class=""question-area"">
                        <p style=""font-size: 20px; font-weight: bold; margin: 0;"">Is there a person in this image?</p>
                    </div>
                </div>","0","main_experiment_trial","8","restaurant_scheme","schematic_sequence","","","","",""
"","","","","","html-keyboard-response","138","466245","0.0-138.0","A58131FD31D7474D85ACD4D8FC9C5C14","019cf791-2cc4-74f0-90a2-7cd5f56349ac","019cf78c-cfcf-769c-9016-9b96552b5e33","","null","
                <div class=""stimulus-container"">
                    <img src=""images/schematic_sequence/restaurant_scheme/restaurant_scheme_9.png"" class=""exp-image"">
                    <div class=""question-area""></div> 
                </div>","null","","","","","","","","",""
"","","","","","html-button-response","139","467057","0.0-139.0","A58131FD31D7474D85ACD4D8FC9C5C14","019cf791-2cc4-74f0-90a2-7cd5f56349ac","019cf78c-cfcf-769c-9016-9b96552b5e33","","810","
                <div class=""stimulus-container"">
                    <img src=""images/schematic_sequence/restaurant_scheme/restaurant_scheme_9.png"" class=""exp-image"">
                    <div class=""question-area"">
                        <p style=""font-size: 20px; font-weight: bold; margin: 0;"">Is there a person in this image?</p>
                    </div>
                </div>","0","main_experiment_trial","9","restaurant_scheme","schematic_sequence","","","","",""
"","","","","","html-keyboard-response","140","472063","0.0-140.0","A58131FD31D7474D85ACD4D8FC9C5C14","019cf791-2cc4-74f0-90a2-7cd5f56349ac","019cf78c-cfcf-769c-9016-9b96552b5e33","","null","
                <div class=""stimulus-container"">
                    <img src=""images/schematic_sequence/restaurant_scheme/restaurant_scheme_ten.png"" class=""exp-image"">
                    <div class=""question-area""></div> 
                </div>","null","","","","","","","","",""
"","","","","","html-button-response","141","472759","0.0-141.0","A58131FD31D7474D85ACD4D8FC9C5C14","019cf791-2cc4-74f0-90a2-7cd5f56349ac","019cf78c-cfcf-769c-9016-9b96552b5e33","","694","
                <div class=""stimulus-container"">
                    <img src=""images/schematic_sequence/restaurant_scheme/restaurant_scheme_ten.png"" class=""exp-image"">
                    <div class=""question-area"">
                        <p style=""font-size: 20px; font-weight: bold; margin: 0;"">Is there a person in this image?</p>
                    </div>
                </div>","0","main_experiment_trial","ten","restaurant_scheme","schematic_sequence","","","","",""
"","","","","","html-keyboard-response","142","473764","0.0-142.0","A58131FD31D7474D85ACD4D8FC9C5C14","019cf791-2cc4-74f0-90a2-7cd5f56349ac","019cf78c-cfcf-769c-9016-9b96552b5e33","","null","<div style=""background-color: white; width: 100vw; height: 100vh;""></div>","null","","","","","","","","",""
"","","","","","html-keyboard-response","143","478767","0.0-143.0","A58131FD31D7474D85ACD4D8FC9C5C14","019cf791-2cc4-74f0-90a2-7cd5f56349ac","019cf78c-cfcf-769c-9016-9b96552b5e33","","null","
                <div class=""stimulus-container"">
                    <img src=""images/semantic_sequence/exploring_nature_semantic/exploring_nature_semantic_1.png"" class=""exp-image"">
                    <div class=""question-area""></div> 
                </div>","null","","","","","","","","",""
"","","","","","html-button-response","144","479722","0.0-144.0","A58131FD31D7474D85ACD4D8FC9C5C14","019cf791-2cc4-74f0-90a2-7cd5f56349ac","019cf78c-cfcf-769c-9016-9b96552b5e33","","953","
                <div class=""stimulus-container"">
                    <img src=""images/semantic_sequence/exploring_nature_semantic/exploring_nature_semantic_1.png"" class=""exp-image"">
                    <div class=""question-area"">
                        <p style=""font-size: 20px; font-weight: bold; margin: 0;"">Is there a person in this image?</p>
                    </div>
                </div>","0","main_experiment_trial","1","exploring_nature_semantic","semantic_sequence","","","","",""
"","","","","","html-keyboard-response","145","484730","0.0-145.0","A58131FD31D7474D85ACD4D8FC9C5C14","019cf791-2cc4-74f0-90a2-7cd5f56349ac","019cf78c-cfcf-769c-9016-9b96552b5e33","","null","
                <div class=""stimulus-container"">
                    <img src=""images/semantic_sequence/exploring_nature_semantic/exploring_nature_semantic_2.png"" class=""exp-image"">
                    <div class=""question-area""></div> 
                </div>","null","","","","","","","","",""
"","","","","","html-button-response","146","485500","0.0-146.0","A58131FD31D7474D85ACD4D8FC9C5C14","019cf791-2cc4-74f0-90a2-7cd5f56349ac","019cf78c-cfcf-769c-9016-9b96552b5e33","","768","
                <div class=""stimulus-container"">
                    <img src=""images/semantic_sequence/exploring_nature_semantic/exploring_nature_semantic_2.png"" class=""exp-image"">
                    <div class=""question-area"">
                        <p style=""font-size: 20px; font-weight: bold; margin: 0;"">Is there a person in this image?</p>
                    </div>
                </div>","0","main_experiment_trial","2","exploring_nature_semantic","semantic_sequence","","","","",""
"","","","","","html-keyboard-response","147","490518","0.0-147.0","A58131FD31D7474D85ACD4D8FC9C5C14","019cf791-2cc4-74f0-90a2-7cd5f56349ac","019cf78c-cfcf-769c-9016-9b96552b5e33","","null","
                <div class=""stimulus-container"">
                    <img src=""images/semantic_sequence/exploring_nature_semantic/exploring_nature_semantic_3.png"" class=""exp-image"">
                    <div class=""question-area""></div> 
                </div>","null","","","","","","","","",""
"","","","","","html-button-response","148","493520","0.0-148.0","A58131FD31D7474D85ACD4D8FC9C5C14","019cf791-2cc4-74f0-90a2-7cd5f56349ac","019cf78c-cfcf-769c-9016-9b96552b5e33","","null","
                <div class=""stimulus-container"">
                    <img src=""images/semantic_sequence/exploring_nature_semantic/exploring_nature_semantic_3.png"" class=""exp-image"">
                    <div class=""question-area"">
                        <p style=""font-size: 20px; font-weight: bold; margin: 0;"">Is there a person in this image?</p>
                    </div>
                </div>","null","main_experiment_trial","3","exploring_nature_semantic","semantic_sequence","","","","",""
"","","","","","html-keyboard-response","149","498536","0.0-149.0","A58131FD31D7474D85ACD4D8FC9C5C14","019cf791-2cc4-74f0-90a2-7cd5f56349ac","019cf78c-cfcf-769c-9016-9b96552b5e33","","null","
                <div class=""stimulus-container"">
                    <img src=""images/semantic_sequence/exploring_nature_semantic/exploring_nature_semantic_4.png"" class=""exp-image"">
                    <div class=""question-area""></div> 
                </div>","null","","","","","","","","",""
"","","","","","html-button-response","150","499222","0.0-150.0","A58131FD31D7474D85ACD4D8FC9C5C14","019cf791-2cc4-74f0-90a2-7cd5f56349ac","019cf78c-cfcf-769c-9016-9b96552b5e33","","684","
                <div class=""stimulus-container"">
                    <img src=""images/semantic_sequence/exploring_nature_semantic/exploring_nature_semantic_4.png"" class=""exp-image"">
                    <div class=""question-area"">
                        <p style=""font-size: 20px; font-weight: bold; margin: 0;"">Is there a person in this image?</p>
                    </div>
                </div>","0","main_experiment_trial","4","exploring_nature_semantic","semantic_sequence","","","","",""
"","","","","","html-keyboard-response","151","504234","0.0-151.0","A58131FD31D7474D85ACD4D8FC9C5C14","019cf791-2cc4-74f0-90a2-7cd5f56349ac","019cf78c-cfcf-769c-9016-9b96552b5e33","","null","
                <div class=""stimulus-container"">
                    <img src=""images/semantic_sequence/exploring_nature_semantic/exploring_nature_semantic_5.png"" class=""exp-image"">
                    <div class=""question-area""></div> 
                </div>","null","","","","","","","","",""
"","","","","","html-button-response","152","505841","0.0-152.0","A58131FD31D7474D85ACD4D8FC9C5C14","019cf791-2cc4-74f0-90a2-7cd5f56349ac","019cf78c-cfcf-769c-9016-9b96552b5e33","","1606","
                <div class=""stimulus-container"">
                    <img src=""images/semantic_sequence/exploring_nature_semantic/exploring_nature_semantic_5.png"" class=""exp-image"">
                    <div class=""question-area"">
                        <p style=""font-size: 20px; font-weight: bold; margin: 0;"">Is there a person in this image?</p>
                    </div>
                </div>","0","main_experiment_trial","5","exploring_nature_semantic","semantic_sequence","","","","",""
"","","","","","html-keyboard-response","153","510861","0.0-153.0","A58131FD31D7474D85ACD4D8FC9C5C14","019cf791-2cc4-74f0-90a2-7cd5f56349ac","019cf78c-cfcf-769c-9016-9b96552b5e33","","null","
                <div class=""stimulus-container"">
                    <img src=""images/semantic_sequence/exploring_nature_semantic/exploring_nature_semantic_6.png"" class=""exp-image"">
                    <div class=""question-area""></div> 
                </div>","null","","","","","","","","",""
"","","","","","html-button-response","154","511550","0.0-154.0","A58131FD31D7474D85ACD4D8FC9C5C14","019cf791-2cc4-74f0-90a2-7cd5f56349ac","019cf78c-cfcf-769c-9016-9b96552b5e33","","687","
                <div class=""stimulus-container"">
                    <img src=""images/semantic_sequence/exploring_nature_semantic/exploring_nature_semantic_6.png"" class=""exp-image"">
                    <div class=""question-area"">
                        <p style=""font-size: 20px; font-weight: bold; margin: 0;"">Is there a person in this image?</p>
                    </div>
                </div>","0","main_experiment_trial","6","exploring_nature_semantic","semantic_sequence","","","","",""
"","","","","","html-keyboard-response","155","516556","0.0-155.0","A58131FD31D7474D85ACD4D8FC9C5C14","019cf791-2cc4-74f0-90a2-7cd5f56349ac","019cf78c-cfcf-769c-9016-9b96552b5e33","","null","
                <div class=""stimulus-container"">
                    <img src=""images/semantic_sequence/exploring_nature_semantic/exploring_nature_semantic_7.png"" class=""exp-image"">
                    <div class=""question-area""></div> 
                </div>","null","","","","","","","","",""
"","","","","","html-button-response","156","517344","0.0-156.0","A58131FD31D7474D85ACD4D8FC9C5C14","019cf791-2cc4-74f0-90a2-7cd5f56349ac","019cf78c-cfcf-769c-9016-9b96552b5e33","","786","
                <div class=""stimulus-container"">
                    <img src=""images/semantic_sequence/exploring_nature_semantic/exploring_nature_semantic_7.png"" class=""exp-image"">
                    <div class=""question-area"">
                        <p style=""font-size: 20px; font-weight: bold; margin: 0;"">Is there a person in this image?</p>
                    </div>
                </div>","0","main_experiment_trial","7","exploring_nature_semantic","semantic_sequence","","","","",""
"","","","","","html-keyboard-response","157","522355","0.0-157.0","A58131FD31D7474D85ACD4D8FC9C5C14","019cf791-2cc4-74f0-90a2-7cd5f56349ac","019cf78c-cfcf-769c-9016-9b96552b5e33","","null","
                <div class=""stimulus-container"">
                    <img src=""images/semantic_sequence/exploring_nature_semantic/exploring_nature_semantic_8.png"" class=""exp-image"">
                    <div class=""question-area""></div> 
                </div>","null","","","","","","","","",""
"","","","","","html-button-response","158","523050","0.0-158.0","A58131FD31D7474D85ACD4D8FC9C5C14","019cf791-2cc4-74f0-90a2-7cd5f56349ac","019cf78c-cfcf-769c-9016-9b96552b5e33","","693","
                <div class=""stimulus-container"">
                    <img src=""images/semantic_sequence/exploring_nature_semantic/exploring_nature_semantic_8.png"" class=""exp-image"">
                    <div class=""question-area"">
                        <p style=""font-size: 20px; font-weight: bold; margin: 0;"">Is there a person in this image?</p>
                    </div>
                </div>","0","main_experiment_trial","8","exploring_nature_semantic","semantic_sequence","","","","",""
"","","","","","html-keyboard-response","159","528052","0.0-159.0","A58131FD31D7474D85ACD4D8FC9C5C14","019cf791-2cc4-74f0-90a2-7cd5f56349ac","019cf78c-cfcf-769c-9016-9b96552b5e33","","null","
                <div class=""stimulus-container"">
                    <img src=""images/semantic_sequence/exploring_nature_semantic/exploring_nature_semantic_9.png"" class=""exp-image"">
                    <div class=""question-area""></div> 
                </div>","null","","","","","","","","",""
"","","","","","html-button-response","160","528845","0.0-160.0","A58131FD31D7474D85ACD4D8FC9C5C14","019cf791-2cc4-74f0-90a2-7cd5f56349ac","019cf78c-cfcf-769c-9016-9b96552b5e33","","791","
                <div class=""stimulus-container"">
                    <img src=""images/semantic_sequence/exploring_nature_semantic/exploring_nature_semantic_9.png"" class=""exp-image"">
                    <div class=""question-area"">
                        <p style=""font-size: 20px; font-weight: bold; margin: 0;"">Is there a person in this image?</p>
                    </div>
                </div>","0","main_experiment_trial","9","exploring_nature_semantic","semantic_sequence","","","","",""
"","","","","","html-keyboard-response","161","533850","0.0-161.0","A58131FD31D7474D85ACD4D8FC9C5C14","019cf791-2cc4-74f0-90a2-7cd5f56349ac","019cf78c-cfcf-769c-9016-9b96552b5e33","","null","
                <div class=""stimulus-container"">
                    <img src=""images/semantic_sequence/exploring_nature_semantic/exploring_nature_semantic_ten.png"" class=""exp-image"">
                    <div class=""question-area""></div> 
                </div>","null","","","","","","","","",""
"","","","","","html-button-response","162","534752","0.0-162.0","A58131FD31D7474D85ACD4D8FC9C5C14","019cf791-2cc4-74f0-90a2-7cd5f56349ac","019cf78c-cfcf-769c-9016-9b96552b5e33","","900","
                <div class=""stimulus-container"">
                    <img src=""images/semantic_sequence/exploring_nature_semantic/exploring_nature_semantic_ten.png"" class=""exp-image"">
                    <div class=""question-area"">
                        <p style=""font-size: 20px; font-weight: bold; margin: 0;"">Is there a person in this image?</p>
                    </div>
                </div>","0","main_experiment_trial","ten","exploring_nature_semantic","semantic_sequence","","","","",""
"","","","","","html-keyboard-response","163","535762","0.0-163.0","A58131FD31D7474D85ACD4D8FC9C5C14","019cf791-2cc4-74f0-90a2-7cd5f56349ac","019cf78c-cfcf-769c-9016-9b96552b5e33","","null","<div style=""background-color: white; width: 100vw; height: 100vh;""></div>","null","","","","","","","","",""
"","","","","","html-keyboard-response","164","540778","0.0-164.0","A58131FD31D7474D85ACD4D8FC9C5C14","019cf791-2cc4-74f0-90a2-7cd5f56349ac","019cf78c-cfcf-769c-9016-9b96552b5e33","","null","
                <div class=""stimulus-container"">
                    <img src=""images/schematic_sequence/supermarket_scheme/supermarket_scheme_1.png"" class=""exp-image"">
                    <div class=""question-area""></div> 
                </div>","null","","","","","","","","",""
"","","","","","html-button-response","165","541820","0.0-165.0","A58131FD31D7474D85ACD4D8FC9C5C14","019cf791-2cc4-74f0-90a2-7cd5f56349ac","019cf78c-cfcf-769c-9016-9b96552b5e33","","1041","
                <div class=""stimulus-container"">
                    <img src=""images/schematic_sequence/supermarket_scheme/supermarket_scheme_1.png"" class=""exp-image"">
                    <div class=""question-area"">
                        <p style=""font-size: 20px; font-weight: bold; margin: 0;"">Is there a person in this image?</p>
                    </div>
                </div>","1","main_experiment_trial","1","supermarket_scheme","schematic_sequence","","","","",""
"","","","","","html-keyboard-response","166","546834","0.0-166.0","A58131FD31D7474D85ACD4D8FC9C5C14","019cf791-2cc4-74f0-90a2-7cd5f56349ac","019cf78c-cfcf-769c-9016-9b96552b5e33","","null","
                <div class=""stimulus-container"">
                    <img src=""images/schematic_sequence/supermarket_scheme/supermarket_scheme_2.png"" class=""exp-image"">
                    <div class=""question-area""></div> 
                </div>","null","","","","","","","","",""
"","","","","","html-button-response","167","547502","0.0-167.0","A58131FD31D7474D85ACD4D8FC9C5C14","019cf791-2cc4-74f0-90a2-7cd5f56349ac","019cf78c-cfcf-769c-9016-9b96552b5e33","","666","
                <div class=""stimulus-container"">
                    <img src=""images/schematic_sequence/supermarket_scheme/supermarket_scheme_2.png"" class=""exp-image"">
                    <div class=""question-area"">
                        <p style=""font-size: 20px; font-weight: bold; margin: 0;"">Is there a person in this image?</p>
                    </div>
                </div>","1","main_experiment_trial","2","supermarket_scheme","schematic_sequence","","","","",""
"","","","","","html-keyboard-response","168","552510","0.0-168.0","A58131FD31D7474D85ACD4D8FC9C5C14","019cf791-2cc4-74f0-90a2-7cd5f56349ac","019cf78c-cfcf-769c-9016-9b96552b5e33","","null","
                <div class=""stimulus-container"">
                    <img src=""images/schematic_sequence/supermarket_scheme/supermarket_scheme_3.png"" class=""exp-image"">
                    <div class=""question-area""></div> 
                </div>","null","","","","","","","","",""
"","","","","","html-button-response","169","553169","0.0-169.0","A58131FD31D7474D85ACD4D8FC9C5C14","019cf791-2cc4-74f0-90a2-7cd5f56349ac","019cf78c-cfcf-769c-9016-9b96552b5e33","","657","
                <div class=""stimulus-container"">
                    <img src=""images/schematic_sequence/supermarket_scheme/supermarket_scheme_3.png"" class=""exp-image"">
                    <div class=""question-area"">
                        <p style=""font-size: 20px; font-weight: bold; margin: 0;"">Is there a person in this image?</p>
                    </div>
                </div>","1","main_experiment_trial","3","supermarket_scheme","schematic_sequence","","","","",""
"","","","","","html-keyboard-response","170","558184","0.0-170.0","A58131FD31D7474D85ACD4D8FC9C5C14","019cf791-2cc4-74f0-90a2-7cd5f56349ac","019cf78c-cfcf-769c-9016-9b96552b5e33","","null","
                <div class=""stimulus-container"">
                    <img src=""images/schematic_sequence/supermarket_scheme/supermarket_scheme_4.png"" class=""exp-image"">
                    <div class=""question-area""></div> 
                </div>","null","","","","","","","","",""
"","","","","","html-button-response","171","559153","0.0-171.0","A58131FD31D7474D85ACD4D8FC9C5C14","019cf791-2cc4-74f0-90a2-7cd5f56349ac","019cf78c-cfcf-769c-9016-9b96552b5e33","","968","
                <div class=""stimulus-container"">
                    <img src=""images/schematic_sequence/supermarket_scheme/supermarket_scheme_4.png"" class=""exp-image"">
                    <div class=""question-area"">
                        <p style=""font-size: 20px; font-weight: bold; margin: 0;"">Is there a person in this image?</p>
                    </div>
                </div>","0","main_experiment_trial","4","supermarket_scheme","schematic_sequence","","","","",""
"","","","","","html-keyboard-response","172","564170","0.0-172.0","A58131FD31D7474D85ACD4D8FC9C5C14","019cf791-2cc4-74f0-90a2-7cd5f56349ac","019cf78c-cfcf-769c-9016-9b96552b5e33","","null","
                <div class=""stimulus-container"">
                    <img src=""images/schematic_sequence/supermarket_scheme/supermarket_scheme_5.png"" class=""exp-image"">
                    <div class=""question-area""></div> 
                </div>","null","","","","","","","","",""
"","","","","","html-button-response","173","565598","0.0-173.0","A58131FD31D7474D85ACD4D8FC9C5C14","019cf791-2cc4-74f0-90a2-7cd5f56349ac","019cf78c-cfcf-769c-9016-9b96552b5e33","","1427","
                <div class=""stimulus-container"">
                    <img src=""images/schematic_sequence/supermarket_scheme/supermarket_scheme_5.png"" class=""exp-image"">
                    <div class=""question-area"">
                        <p style=""font-size: 20px; font-weight: bold; margin: 0;"">Is there a person in this image?</p>
                    </div>
                </div>","1","main_experiment_trial","5","supermarket_scheme","schematic_sequence","","","","",""
"","","","","","html-keyboard-response","174","570605","0.0-174.0","A58131FD31D7474D85ACD4D8FC9C5C14","019cf791-2cc4-74f0-90a2-7cd5f56349ac","019cf78c-cfcf-769c-9016-9b96552b5e33","","null","
                <div class=""stimulus-container"">
                    <img src=""images/schematic_sequence/supermarket_scheme/supermarket_scheme_6.png"" class=""exp-image"">
                    <div class=""question-area""></div> 
                </div>","null","","","","","","","","",""
"","","","","","html-button-response","175","571323","0.0-175.0","A58131FD31D7474D85ACD4D8FC9C5C14","019cf791-2cc4-74f0-90a2-7cd5f56349ac","019cf78c-cfcf-769c-9016-9b96552b5e33","","716","
                <div class=""stimulus-container"">
                    <img src=""images/schematic_sequence/supermarket_scheme/supermarket_scheme_6.png"" class=""exp-image"">
                    <div class=""question-area"">
                        <p style=""font-size: 20px; font-weight: bold; margin: 0;"">Is there a person in this image?</p>
                    </div>
                </div>","0","main_experiment_trial","6","supermarket_scheme","schematic_sequence","","","","",""
"","","","","","html-keyboard-response","176","576337","0.0-176.0","A58131FD31D7474D85ACD4D8FC9C5C14","019cf791-2cc4-74f0-90a2-7cd5f56349ac","019cf78c-cfcf-769c-9016-9b96552b5e33","","null","
                <div class=""stimulus-container"">
                    <img src=""images/schematic_sequence/supermarket_scheme/supermarket_scheme_7.png"" class=""exp-image"">
                    <div class=""question-area""></div> 
                </div>","null","","","","","","","","",""
"","","","","","html-button-response","177","576965","0.0-177.0","A58131FD31D7474D85ACD4D8FC9C5C14","019cf791-2cc4-74f0-90a2-7cd5f56349ac","019cf78c-cfcf-769c-9016-9b96552b5e33","","627","
                <div class=""stimulus-container"">
                    <img src=""images/schematic_sequence/supermarket_scheme/supermarket_scheme_7.png"" class=""exp-image"">
                    <div class=""question-area"">
                        <p style=""font-size: 20px; font-weight: bold; margin: 0;"">Is there a person in this image?</p>
                    </div>
                </div>","0","main_experiment_trial","7","supermarket_scheme","schematic_sequence","","","","",""
"","","","","","html-keyboard-response","178","581967","0.0-178.0","A58131FD31D7474D85ACD4D8FC9C5C14","019cf791-2cc4-74f0-90a2-7cd5f56349ac","019cf78c-cfcf-769c-9016-9b96552b5e33","","null","
                <div class=""stimulus-container"">
                    <img src=""images/schematic_sequence/supermarket_scheme/supermarket_scheme_8.png"" class=""exp-image"">
                    <div class=""question-area""></div> 
                </div>","null","","","","","","","","",""
"","","","","","html-button-response","179","582886","0.0-179.0","A58131FD31D7474D85ACD4D8FC9C5C14","019cf791-2cc4-74f0-90a2-7cd5f56349ac","019cf78c-cfcf-769c-9016-9b96552b5e33","","918","
                <div class=""stimulus-container"">
                    <img src=""images/schematic_sequence/supermarket_scheme/supermarket_scheme_8.png"" class=""exp-image"">
                    <div class=""question-area"">
                        <p style=""font-size: 20px; font-weight: bold; margin: 0;"">Is there a person in this image?</p>
                    </div>
                </div>","0","main_experiment_trial","8","supermarket_scheme","schematic_sequence","","","","",""
