"success","timeout","failed_images","failed_audio","failed_video","trial_type","trial_index","time_elapsed","internal_node_id","subject_id","study_id","session_id","view_history","rt","stimulus","response","task","image_index","folder","sequence_type","presentation_order","valuable_image_index","reward_type","distance_from_x","target_X","chosen_image_index","is_x_plus_dist","correct_choice"
"true","false","[]","[]","[]","preload","0","6881","0.0-0.0","43A2E3CAB6394D7487FAF66113113D02","019d6b0d-275e-762a-b913-951ad847afb0","019d6ae6-5d89-74c6-b581-3918d1816346","","","","","","","","","","","","","","","",""
"","","","","","instructions","1","22249","0.0-1.0","43A2E3CAB6394D7487FAF66113113D02","019d6b0d-275e-762a-b913-951ad847afb0","019d6ae6-5d89-74c6-b581-3918d1816346","[{""page_index"":0,""viewing_time"":15367}]","15368","","","","","","","","","","","","","",""
"","","","","","instructions","2","24463","0.0-2.0","43A2E3CAB6394D7487FAF66113113D02","019d6b0d-275e-762a-b913-951ad847afb0","019d6ae6-5d89-74c6-b581-3918d1816346","[{""page_index"":0,""viewing_time"":2213}]","2214","","","","","","","","","","","","","",""
"true","","","","","fullscreen","3","27582","0.0-3.0","43A2E3CAB6394D7487FAF66113113D02","019d6b0d-275e-762a-b913-951ad847afb0","019d6ae6-5d89-74c6-b581-3918d1816346","","2112","","","","","","","","","","","","","",""
"","","","","","instructions","4","30115","0.0-4.0","43A2E3CAB6394D7487FAF66113113D02","019d6b0d-275e-762a-b913-951ad847afb0","019d6ae6-5d89-74c6-b581-3918d1816346","[{""page_index"":0,""viewing_time"":2532}]","2533","","","","","","","","","","","","","",""
"","","","","","instructions","5","31451","0.0-5.0","43A2E3CAB6394D7487FAF66113113D02","019d6b0d-275e-762a-b913-951ad847afb0","019d6ae6-5d89-74c6-b581-3918d1816346","[{""page_index"":0,""viewing_time"":1336}]","1336","","","","","","","","","","","","","",""
"","","","","","html-keyboard-response","6","35461","0.0-6.0","43A2E3CAB6394D7487FAF66113113D02","019d6b0d-275e-762a-b913-951ad847afb0","019d6ae6-5d89-74c6-b581-3918d1816346","","null","
            <div class=""stimulus-container"">
                <img src=""images/instructions/movie_1.png"" class=""exp-image"">
                <div class=""question-area""></div> 
            </div>","null","","","","","","","","","","","",""
"","","","","","html-button-response","7","38462","0.0-7.0","43A2E3CAB6394D7487FAF66113113D02","019d6b0d-275e-762a-b913-951ad847afb0","019d6ae6-5d89-74c6-b581-3918d1816346","","null","
            <div class=""stimulus-container"">
                <img src=""images/instructions/movie_1.png"" class=""exp-image"">
                <div class=""question-area"">
                    <p style=""font-size: 20px; font-weight: bold; margin: 0;"">Was there a person in this image?</p>
                </div>
            </div>","null","example_question","1","","","","","","","","","",""
"","","","","","html-keyboard-response","8","42464","0.0-8.0","43A2E3CAB6394D7487FAF66113113D02","019d6b0d-275e-762a-b913-951ad847afb0","019d6ae6-5d89-74c6-b581-3918d1816346","","null","
            <div class=""stimulus-container"">
                <img src=""images/instructions/movie_2.png"" class=""exp-image"">
                <div class=""question-area""></div> 
            </div>","null","","","","","","","","","","","",""
"","","","","","html-button-response","9","44015","0.0-9.0","43A2E3CAB6394D7487FAF66113113D02","019d6b0d-275e-762a-b913-951ad847afb0","019d6ae6-5d89-74c6-b581-3918d1816346","","1551","
            <div class=""stimulus-container"">
                <img src=""images/instructions/movie_2.png"" class=""exp-image"">
                <div class=""question-area"">
                    <p style=""font-size: 20px; font-weight: bold; margin: 0;"">Was there a person in this image?</p>
                </div>
            </div>","1","example_question","2","","","","","","","","","",""
"","","","","","html-keyboard-response","10","48024","0.0-10.0","43A2E3CAB6394D7487FAF66113113D02","019d6b0d-275e-762a-b913-951ad847afb0","019d6ae6-5d89-74c6-b581-3918d1816346","","null","
            <div class=""stimulus-container"">
                <img src=""images/instructions/movie_3.png"" class=""exp-image"">
                <div class=""question-area""></div> 
            </div>","null","","","","","","","","","","","",""
"","","","","","html-button-response","11","48633","0.0-11.0","43A2E3CAB6394D7487FAF66113113D02","019d6b0d-275e-762a-b913-951ad847afb0","019d6ae6-5d89-74c6-b581-3918d1816346","","608","
            <div class=""stimulus-container"">
                <img src=""images/instructions/movie_3.png"" class=""exp-image"">
                <div class=""question-area"">
                    <p style=""font-size: 20px; font-weight: bold; margin: 0;"">Was there a person in this image?</p>
                </div>
            </div>","0","example_question","3","","","","","","","","","",""
"","","","","","html-keyboard-response","12","52639","0.0-12.0","43A2E3CAB6394D7487FAF66113113D02","019d6b0d-275e-762a-b913-951ad847afb0","019d6ae6-5d89-74c6-b581-3918d1816346","","null","
            <div class=""stimulus-container"">
                <img src=""images/instructions/movie_4.png"" class=""exp-image"">
                <div class=""question-area""></div> 
            </div>","null","","","","","","","","","","","",""
"","","","","","html-button-response","13","53021","0.0-13.0","43A2E3CAB6394D7487FAF66113113D02","019d6b0d-275e-762a-b913-951ad847afb0","019d6ae6-5d89-74c6-b581-3918d1816346","","381","
            <div class=""stimulus-container"">
                <img src=""images/instructions/movie_4.png"" class=""exp-image"">
                <div class=""question-area"">
                    <p style=""font-size: 20px; font-weight: bold; margin: 0;"">Was there a person in this image?</p>
                </div>
            </div>","0","example_question","4","","","","","","","","","",""
"","","","","","instructions","14","65835","0.0-14.0","43A2E3CAB6394D7487FAF66113113D02","019d6b0d-275e-762a-b913-951ad847afb0","019d6ae6-5d89-74c6-b581-3918d1816346","[{""page_index"":0,""viewing_time"":12813}]","12814","","","","","","","","","","","","","",""
"","","","","","instructions","15","71585","0.0-15.0","43A2E3CAB6394D7487FAF66113113D02","019d6b0d-275e-762a-b913-951ad847afb0","019d6ae6-5d89-74c6-b581-3918d1816346","[{""page_index"":0,""viewing_time"":5750}]","5750","","","","","","","","","","","","","",""
"","","","","","html-keyboard-response","16","76586","0.0-16.0","43A2E3CAB6394D7487FAF66113113D02","019d6b0d-275e-762a-b913-951ad847afb0","019d6ae6-5d89-74c6-b581-3918d1816346","","null","<div style=""background-color: white; width: 100vw; height: 100vh;""></div>","null","","","","","","","","","","","",""
"","","","","","html-keyboard-response","17","81600","0.0-17.0","43A2E3CAB6394D7487FAF66113113D02","019d6b0d-275e-762a-b913-951ad847afb0","019d6ae6-5d89-74c6-b581-3918d1816346","","null","
                <div class=""stimulus-container"">
                    <img src=""semantic_sequence_notimeline/clothing_semantic/clothing_semantic_1.png"" class=""exp-image"">
                    <div class=""question-area""></div> 
                </div>","null","","","","","","","","","","","",""
"","","","","","html-button-response","18","82759","0.0-18.0","43A2E3CAB6394D7487FAF66113113D02","019d6b0d-275e-762a-b913-951ad847afb0","019d6ae6-5d89-74c6-b581-3918d1816346","","1159","
                <div class=""stimulus-container"">
                    <img src=""semantic_sequence_notimeline/clothing_semantic/clothing_semantic_1.png"" class=""exp-image"">
                    <div class=""question-area"">
                        <p style=""font-size: 20px; font-weight: bold; margin: 0;"">Is there a person in this image?</p>
                    </div>
                </div>","0","main_experiment_trial","1","clothing_semantic","semantic_sequence_notimeline","chronological","","","","","","",""
"","","","","","html-keyboard-response","19","87759","0.0-19.0","43A2E3CAB6394D7487FAF66113113D02","019d6b0d-275e-762a-b913-951ad847afb0","019d6ae6-5d89-74c6-b581-3918d1816346","","null","
                <div class=""stimulus-container"">
                    <img src=""semantic_sequence_notimeline/clothing_semantic/clothing_semantic_2.png"" class=""exp-image"">
                    <div class=""question-area""></div> 
                </div>","null","","","","","","","","","","","",""
"","","","","","html-button-response","20","88679","0.0-20.0","43A2E3CAB6394D7487FAF66113113D02","019d6b0d-275e-762a-b913-951ad847afb0","019d6ae6-5d89-74c6-b581-3918d1816346","","919","
                <div class=""stimulus-container"">
                    <img src=""semantic_sequence_notimeline/clothing_semantic/clothing_semantic_2.png"" class=""exp-image"">
                    <div class=""question-area"">
                        <p style=""font-size: 20px; font-weight: bold; margin: 0;"">Is there a person in this image?</p>
                    </div>
                </div>","1","main_experiment_trial","2","clothing_semantic","semantic_sequence_notimeline","chronological","","","","","","",""
"","","","","","html-keyboard-response","21","93694","0.0-21.0","43A2E3CAB6394D7487FAF66113113D02","019d6b0d-275e-762a-b913-951ad847afb0","019d6ae6-5d89-74c6-b581-3918d1816346","","null","
                <div class=""stimulus-container"">
                    <img src=""semantic_sequence_notimeline/clothing_semantic/clothing_semantic_3.png"" class=""exp-image"">
                    <div class=""question-area""></div> 
                </div>","null","","","","","","","","","","","",""
"","","","","","html-button-response","22","94227","0.0-22.0","43A2E3CAB6394D7487FAF66113113D02","019d6b0d-275e-762a-b913-951ad847afb0","019d6ae6-5d89-74c6-b581-3918d1816346","","532","
                <div class=""stimulus-container"">
                    <img src=""semantic_sequence_notimeline/clothing_semantic/clothing_semantic_3.png"" class=""exp-image"">
                    <div class=""question-area"">
                        <p style=""font-size: 20px; font-weight: bold; margin: 0;"">Is there a person in this image?</p>
                    </div>
                </div>","1","main_experiment_trial","3","clothing_semantic","semantic_sequence_notimeline","chronological","","","","","","",""
"","","","","","html-keyboard-response","23","99227","0.0-23.0","43A2E3CAB6394D7487FAF66113113D02","019d6b0d-275e-762a-b913-951ad847afb0","019d6ae6-5d89-74c6-b581-3918d1816346","","null","
                <div class=""stimulus-container"">
                    <img src=""semantic_sequence_notimeline/clothing_semantic/clothing_semantic_4.png"" class=""exp-image"">
                    <div class=""question-area""></div> 
                </div>","null","","","","","","","","","","","",""
"","","","","","html-button-response","24","99777","0.0-24.0","43A2E3CAB6394D7487FAF66113113D02","019d6b0d-275e-762a-b913-951ad847afb0","019d6ae6-5d89-74c6-b581-3918d1816346","","549","
                <div class=""stimulus-container"">
                    <img src=""semantic_sequence_notimeline/clothing_semantic/clothing_semantic_4.png"" class=""exp-image"">
                    <div class=""question-area"">
                        <p style=""font-size: 20px; font-weight: bold; margin: 0;"">Is there a person in this image?</p>
                    </div>
                </div>","1","main_experiment_trial","4","clothing_semantic","semantic_sequence_notimeline","chronological","","","","","","",""
"","","","","","html-keyboard-response","25","104780","0.0-25.0","43A2E3CAB6394D7487FAF66113113D02","019d6b0d-275e-762a-b913-951ad847afb0","019d6ae6-5d89-74c6-b581-3918d1816346","","null","
                <div class=""stimulus-container"">
                    <img src=""semantic_sequence_notimeline/clothing_semantic/clothing_semantic_5.png"" class=""exp-image"">
                    <div class=""question-area""></div> 
                </div>","null","","","","","","","","","","","",""
"","","","","","html-button-response","26","105524","0.0-26.0","43A2E3CAB6394D7487FAF66113113D02","019d6b0d-275e-762a-b913-951ad847afb0","019d6ae6-5d89-74c6-b581-3918d1816346","","744","
                <div class=""stimulus-container"">
                    <img src=""semantic_sequence_notimeline/clothing_semantic/clothing_semantic_5.png"" class=""exp-image"">
                    <div class=""question-area"">
                        <p style=""font-size: 20px; font-weight: bold; margin: 0;"">Is there a person in this image?</p>
                    </div>
                </div>","1","main_experiment_trial","5","clothing_semantic","semantic_sequence_notimeline","chronological","","","","","","",""
"","","","","","html-keyboard-response","27","110525","0.0-27.0","43A2E3CAB6394D7487FAF66113113D02","019d6b0d-275e-762a-b913-951ad847afb0","019d6ae6-5d89-74c6-b581-3918d1816346","","null","
                <div class=""stimulus-container"">
                    <img src=""semantic_sequence_notimeline/clothing_semantic/clothing_semantic_6.png"" class=""exp-image"">
                    <div class=""question-area""></div> 
                </div>","null","","","","","","","","","","","",""
"","","","","","html-button-response","28","111082","0.0-28.0","43A2E3CAB6394D7487FAF66113113D02","019d6b0d-275e-762a-b913-951ad847afb0","019d6ae6-5d89-74c6-b581-3918d1816346","","557","
                <div class=""stimulus-container"">
                    <img src=""semantic_sequence_notimeline/clothing_semantic/clothing_semantic_6.png"" class=""exp-image"">
                    <div class=""question-area"">
                        <p style=""font-size: 20px; font-weight: bold; margin: 0;"">Is there a person in this image?</p>
                    </div>
                </div>","1","main_experiment_trial","6","clothing_semantic","semantic_sequence_notimeline","chronological","","","","","","",""
"","","","","","html-keyboard-response","29","116093","0.0-29.0","43A2E3CAB6394D7487FAF66113113D02","019d6b0d-275e-762a-b913-951ad847afb0","019d6ae6-5d89-74c6-b581-3918d1816346","","null","
                <div class=""stimulus-container"">
                    <img src=""semantic_sequence_notimeline/clothing_semantic/clothing_semantic_7.png"" class=""exp-image"">
                    <div class=""question-area""></div> 
                </div>","null","","","","","","","","","","","",""
"","","","","","html-button-response","30","119109","0.0-30.0","43A2E3CAB6394D7487FAF66113113D02","019d6b0d-275e-762a-b913-951ad847afb0","019d6ae6-5d89-74c6-b581-3918d1816346","","null","
                <div class=""stimulus-container"">
                    <img src=""semantic_sequence_notimeline/clothing_semantic/clothing_semantic_7.png"" class=""exp-image"">
                    <div class=""question-area"">
                        <p style=""font-size: 20px; font-weight: bold; margin: 0;"">Is there a person in this image?</p>
                    </div>
                </div>","null","main_experiment_trial","7","clothing_semantic","semantic_sequence_notimeline","chronological","","","","","","",""
"","","","","","html-keyboard-response","31","124118","0.0-31.0","43A2E3CAB6394D7487FAF66113113D02","019d6b0d-275e-762a-b913-951ad847afb0","019d6ae6-5d89-74c6-b581-3918d1816346","","null","
                <div class=""stimulus-container"">
                    <img src=""semantic_sequence_notimeline/clothing_semantic/clothing_semantic_8.png"" class=""exp-image"">
                    <div class=""question-area""></div> 
                </div>","null","","","","","","","","","","","",""
"","","","","","html-button-response","32","126099","0.0-32.0","43A2E3CAB6394D7487FAF66113113D02","019d6b0d-275e-762a-b913-951ad847afb0","019d6ae6-5d89-74c6-b581-3918d1816346","","1980","
                <div class=""stimulus-container"">
                    <img src=""semantic_sequence_notimeline/clothing_semantic/clothing_semantic_8.png"" class=""exp-image"">
                    <div class=""question-area"">
                        <p style=""font-size: 20px; font-weight: bold; margin: 0;"">Is there a person in this image?</p>
                    </div>
                </div>","1","main_experiment_trial","8","clothing_semantic","semantic_sequence_notimeline","chronological","","","","","","",""
"","","","","","html-keyboard-response","33","131113","0.0-33.0","43A2E3CAB6394D7487FAF66113113D02","019d6b0d-275e-762a-b913-951ad847afb0","019d6ae6-5d89-74c6-b581-3918d1816346","","null","
                <div class=""stimulus-container"">
                    <img src=""semantic_sequence_notimeline/clothing_semantic/clothing_semantic_9.png"" class=""exp-image"">
                    <div class=""question-area""></div> 
                </div>","null","","","","","","","","","","","",""
"","","","","","html-button-response","34","132645","0.0-34.0","43A2E3CAB6394D7487FAF66113113D02","019d6b0d-275e-762a-b913-951ad847afb0","019d6ae6-5d89-74c6-b581-3918d1816346","","1532","
                <div class=""stimulus-container"">
                    <img src=""semantic_sequence_notimeline/clothing_semantic/clothing_semantic_9.png"" class=""exp-image"">
                    <div class=""question-area"">
                        <p style=""font-size: 20px; font-weight: bold; margin: 0;"">Is there a person in this image?</p>
                    </div>
                </div>","1","main_experiment_trial","9","clothing_semantic","semantic_sequence_notimeline","chronological","","","","","","",""
"","","","","","html-keyboard-response","35","137645","0.0-35.0","43A2E3CAB6394D7487FAF66113113D02","019d6b0d-275e-762a-b913-951ad847afb0","019d6ae6-5d89-74c6-b581-3918d1816346","","null","
                <div class=""stimulus-container"">
                    <img src=""semantic_sequence_notimeline/clothing_semantic/clothing_semantic_ten.png"" class=""exp-image"">
                    <div class=""question-area""></div> 
                </div>","null","","","","","","","","","","","",""
"","","","","","html-button-response","36","139701","0.0-36.0","43A2E3CAB6394D7487FAF66113113D02","019d6b0d-275e-762a-b913-951ad847afb0","019d6ae6-5d89-74c6-b581-3918d1816346","","2055","
                <div class=""stimulus-container"">
                    <img src=""semantic_sequence_notimeline/clothing_semantic/clothing_semantic_ten.png"" class=""exp-image"">
                    <div class=""question-area"">
                        <p style=""font-size: 20px; font-weight: bold; margin: 0;"">Is there a person in this image?</p>
                    </div>
                </div>","1","main_experiment_trial","ten","clothing_semantic","semantic_sequence_notimeline","chronological","","","","","","",""
"","","","","","html-keyboard-response","37","144709","0.0-37.0","43A2E3CAB6394D7487FAF66113113D02","019d6b0d-275e-762a-b913-951ad847afb0","019d6ae6-5d89-74c6-b581-3918d1816346","","null","<div style=""background-color: white; width: 100vw; height: 100vh;""></div>","null","","","","","","","","","","","",""
"","","","","","html-keyboard-response","38","149710","0.0-38.0","43A2E3CAB6394D7487FAF66113113D02","019d6b0d-275e-762a-b913-951ad847afb0","019d6ae6-5d89-74c6-b581-3918d1816346","","null","
                <div class=""stimulus-container"">
                    <img src=""images/causal_sequence/package_causal/package_causal_1.png"" class=""exp-image"">
                    <div class=""question-area""></div> 
                </div>","null","","","","","","","","","","","",""
"","","","","","html-button-response","39","150739","0.0-39.0","43A2E3CAB6394D7487FAF66113113D02","019d6b0d-275e-762a-b913-951ad847afb0","019d6ae6-5d89-74c6-b581-3918d1816346","","1028","
                <div class=""stimulus-container"">
                    <img src=""images/causal_sequence/package_causal/package_causal_1.png"" class=""exp-image"">
                    <div class=""question-area"">
                        <p style=""font-size: 20px; font-weight: bold; margin: 0;"">Is there a person in this image?</p>
                    </div>
                </div>","0","main_experiment_trial","1","package_causal","causal_sequence","chronological","","","","","","",""
"","","","","","html-keyboard-response","40","155743","0.0-40.0","43A2E3CAB6394D7487FAF66113113D02","019d6b0d-275e-762a-b913-951ad847afb0","019d6ae6-5d89-74c6-b581-3918d1816346","","null","
                <div class=""stimulus-container"">
                    <img src=""images/causal_sequence/package_causal/package_causal_2.png"" class=""exp-image"">
                    <div class=""question-area""></div> 
                </div>","null","","","","","","","","","","","",""
"","","","","","html-button-response","41","156983","0.0-41.0","43A2E3CAB6394D7487FAF66113113D02","019d6b0d-275e-762a-b913-951ad847afb0","019d6ae6-5d89-74c6-b581-3918d1816346","","1240","
                <div class=""stimulus-container"">
                    <img src=""images/causal_sequence/package_causal/package_causal_2.png"" class=""exp-image"">
                    <div class=""question-area"">
                        <p style=""font-size: 20px; font-weight: bold; margin: 0;"">Is there a person in this image?</p>
                    </div>
                </div>","1","main_experiment_trial","2","package_causal","causal_sequence","chronological","","","","","","",""
"","","","","","html-keyboard-response","42","161983","0.0-42.0","43A2E3CAB6394D7487FAF66113113D02","019d6b0d-275e-762a-b913-951ad847afb0","019d6ae6-5d89-74c6-b581-3918d1816346","","null","
                <div class=""stimulus-container"">
                    <img src=""images/causal_sequence/package_causal/package_causal_3.png"" class=""exp-image"">
                    <div class=""question-area""></div> 
                </div>","null","","","","","","","","","","","",""
"","","","","","html-button-response","43","162914","0.0-43.0","43A2E3CAB6394D7487FAF66113113D02","019d6b0d-275e-762a-b913-951ad847afb0","019d6ae6-5d89-74c6-b581-3918d1816346","","931","
                <div class=""stimulus-container"">
                    <img src=""images/causal_sequence/package_causal/package_causal_3.png"" class=""exp-image"">
                    <div class=""question-area"">
                        <p style=""font-size: 20px; font-weight: bold; margin: 0;"">Is there a person in this image?</p>
                    </div>
                </div>","0","main_experiment_trial","3","package_causal","causal_sequence","chronological","","","","","","",""
"","","","","","html-keyboard-response","44","167927","0.0-44.0","43A2E3CAB6394D7487FAF66113113D02","019d6b0d-275e-762a-b913-951ad847afb0","019d6ae6-5d89-74c6-b581-3918d1816346","","null","
                <div class=""stimulus-container"">
                    <img src=""images/causal_sequence/package_causal/package_causal_4.png"" class=""exp-image"">
                    <div class=""question-area""></div> 
                </div>","null","","","","","","","","","","","",""
"","","","","","html-button-response","45","170136","0.0-45.0","43A2E3CAB6394D7487FAF66113113D02","019d6b0d-275e-762a-b913-951ad847afb0","019d6ae6-5d89-74c6-b581-3918d1816346","","2209","
                <div class=""stimulus-container"">
                    <img src=""images/causal_sequence/package_causal/package_causal_4.png"" class=""exp-image"">
                    <div class=""question-area"">
                        <p style=""font-size: 20px; font-weight: bold; margin: 0;"">Is there a person in this image?</p>
                    </div>
                </div>","1","main_experiment_trial","4","package_causal","causal_sequence","chronological","","","","","","",""
"","","","","","html-keyboard-response","46","175143","0.0-46.0","43A2E3CAB6394D7487FAF66113113D02","019d6b0d-275e-762a-b913-951ad847afb0","019d6ae6-5d89-74c6-b581-3918d1816346","","null","
                <div class=""stimulus-container"">
                    <img src=""images/causal_sequence/package_causal/package_causal_5.png"" class=""exp-image"">
                    <div class=""question-area""></div> 
                </div>","null","","","","","","","","","","","",""
"","","","","","html-button-response","47","176569","0.0-47.0","43A2E3CAB6394D7487FAF66113113D02","019d6b0d-275e-762a-b913-951ad847afb0","019d6ae6-5d89-74c6-b581-3918d1816346","","1425","
                <div class=""stimulus-container"">
                    <img src=""images/causal_sequence/package_causal/package_causal_5.png"" class=""exp-image"">
                    <div class=""question-area"">
                        <p style=""font-size: 20px; font-weight: bold; margin: 0;"">Is there a person in this image?</p>
                    </div>
                </div>","0","main_experiment_trial","5","package_causal","causal_sequence","chronological","","","","","","",""
"","","","","","html-keyboard-response","48","181569","0.0-48.0","43A2E3CAB6394D7487FAF66113113D02","019d6b0d-275e-762a-b913-951ad847afb0","019d6ae6-5d89-74c6-b581-3918d1816346","","null","
                <div class=""stimulus-container"">
                    <img src=""images/causal_sequence/package_causal/package_causal_6.png"" class=""exp-image"">
                    <div class=""question-area""></div> 
                </div>","null","","","","","","","","","","","",""
"","","","","","html-button-response","49","183037","0.0-49.0","43A2E3CAB6394D7487FAF66113113D02","019d6b0d-275e-762a-b913-951ad847afb0","019d6ae6-5d89-74c6-b581-3918d1816346","","1467","
                <div class=""stimulus-container"">
                    <img src=""images/causal_sequence/package_causal/package_causal_6.png"" class=""exp-image"">
                    <div class=""question-area"">
                        <p style=""font-size: 20px; font-weight: bold; margin: 0;"">Is there a person in this image?</p>
                    </div>
                </div>","0","main_experiment_trial","6","package_causal","causal_sequence","chronological","","","","","","",""
"","","","","","html-keyboard-response","50","188042","0.0-50.0","43A2E3CAB6394D7487FAF66113113D02","019d6b0d-275e-762a-b913-951ad847afb0","019d6ae6-5d89-74c6-b581-3918d1816346","","null","
                <div class=""stimulus-container"">
                    <img src=""images/causal_sequence/package_causal/package_causal_7.png"" class=""exp-image"">
                    <div class=""question-area""></div> 
                </div>","null","","","","","","","","","","","",""
"","","","","","html-button-response","51","189547","0.0-51.0","43A2E3CAB6394D7487FAF66113113D02","019d6b0d-275e-762a-b913-951ad847afb0","019d6ae6-5d89-74c6-b581-3918d1816346","","1504","
                <div class=""stimulus-container"">
                    <img src=""images/causal_sequence/package_causal/package_causal_7.png"" class=""exp-image"">
                    <div class=""question-area"">
                        <p style=""font-size: 20px; font-weight: bold; margin: 0;"">Is there a person in this image?</p>
                    </div>
                </div>","0","main_experiment_trial","7","package_causal","causal_sequence","chronological","","","","","","",""
"","","","","","html-keyboard-response","52","194554","0.0-52.0","43A2E3CAB6394D7487FAF66113113D02","019d6b0d-275e-762a-b913-951ad847afb0","019d6ae6-5d89-74c6-b581-3918d1816346","","null","
                <div class=""stimulus-container"">
                    <img src=""images/causal_sequence/package_causal/package_causal_8.png"" class=""exp-image"">
                    <div class=""question-area""></div> 
                </div>","null","","","","","","","","","","","",""
"","","","","","html-button-response","53","195163","0.0-53.0","43A2E3CAB6394D7487FAF66113113D02","019d6b0d-275e-762a-b913-951ad847afb0","019d6ae6-5d89-74c6-b581-3918d1816346","","608","
                <div class=""stimulus-container"">
                    <img src=""images/causal_sequence/package_causal/package_causal_8.png"" class=""exp-image"">
                    <div class=""question-area"">
                        <p style=""font-size: 20px; font-weight: bold; margin: 0;"">Is there a person in this image?</p>
                    </div>
                </div>","0","main_experiment_trial","8","package_causal","causal_sequence","chronological","","","","","","",""
"","","","","","html-keyboard-response","54","200167","0.0-54.0","43A2E3CAB6394D7487FAF66113113D02","019d6b0d-275e-762a-b913-951ad847afb0","019d6ae6-5d89-74c6-b581-3918d1816346","","null","
                <div class=""stimulus-container"">
                    <img src=""images/causal_sequence/package_causal/package_causal_9.png"" class=""exp-image"">
                    <div class=""question-area""></div> 
                </div>","null","","","","","","","","","","","",""
"","","","","","html-button-response","55","200836","0.0-55.0","43A2E3CAB6394D7487FAF66113113D02","019d6b0d-275e-762a-b913-951ad847afb0","019d6ae6-5d89-74c6-b581-3918d1816346","","669","
                <div class=""stimulus-container"">
                    <img src=""images/causal_sequence/package_causal/package_causal_9.png"" class=""exp-image"">
                    <div class=""question-area"">
                        <p style=""font-size: 20px; font-weight: bold; margin: 0;"">Is there a person in this image?</p>
                    </div>
                </div>","0","main_experiment_trial","9","package_causal","causal_sequence","chronological","","","","","","",""
"","","","","","html-keyboard-response","56","205844","0.0-56.0","43A2E3CAB6394D7487FAF66113113D02","019d6b0d-275e-762a-b913-951ad847afb0","019d6ae6-5d89-74c6-b581-3918d1816346","","null","
                <div class=""stimulus-container"">
                    <img src=""images/causal_sequence/package_causal/package_causal_ten.png"" class=""exp-image"">
                    <div class=""question-area""></div> 
                </div>","null","","","","","","","","","","","",""
"","","","","","html-button-response","57","206293","0.0-57.0","43A2E3CAB6394D7487FAF66113113D02","019d6b0d-275e-762a-b913-951ad847afb0","019d6ae6-5d89-74c6-b581-3918d1816346","","449","
                <div class=""stimulus-container"">
                    <img src=""images/causal_sequence/package_causal/package_causal_ten.png"" class=""exp-image"">
                    <div class=""question-area"">
                        <p style=""font-size: 20px; font-weight: bold; margin: 0;"">Is there a person in this image?</p>
                    </div>
                </div>","0","main_experiment_trial","ten","package_causal","causal_sequence","chronological","","","","","","",""
"","","","","","html-keyboard-response","58","211303","0.0-58.0","43A2E3CAB6394D7487FAF66113113D02","019d6b0d-275e-762a-b913-951ad847afb0","019d6ae6-5d89-74c6-b581-3918d1816346","","null","<div style=""background-color: white; width: 100vw; height: 100vh;""></div>","null","","","","","","","","","","","",""
"","","","","","html-keyboard-response","59","216307","0.0-59.0","43A2E3CAB6394D7487FAF66113113D02","019d6b0d-275e-762a-b913-951ad847afb0","019d6ae6-5d89-74c6-b581-3918d1816346","","null","
                <div class=""stimulus-container"">
                    <img src=""images/causal_sequence/saving_a_cat_causal/saving_a_cat_causal_1.png"" class=""exp-image"">
                    <div class=""question-area""></div> 
                </div>","null","","","","","","","","","","","",""
"","","","","","html-button-response","60","217914","0.0-60.0","43A2E3CAB6394D7487FAF66113113D02","019d6b0d-275e-762a-b913-951ad847afb0","019d6ae6-5d89-74c6-b581-3918d1816346","","1607","
                <div class=""stimulus-container"">
                    <img src=""images/causal_sequence/saving_a_cat_causal/saving_a_cat_causal_1.png"" class=""exp-image"">
                    <div class=""question-area"">
                        <p style=""font-size: 20px; font-weight: bold; margin: 0;"">Is there a person in this image?</p>
                    </div>
                </div>","0","main_experiment_trial","1","saving_a_cat_causal","causal_sequence","chronological","","","","","","",""
"","","","","","html-keyboard-response","61","222921","0.0-61.0","43A2E3CAB6394D7487FAF66113113D02","019d6b0d-275e-762a-b913-951ad847afb0","019d6ae6-5d89-74c6-b581-3918d1816346","","null","
                <div class=""stimulus-container"">
                    <img src=""images/causal_sequence/saving_a_cat_causal/saving_a_cat_causal_2.png"" class=""exp-image"">
                    <div class=""question-area""></div> 
                </div>","null","","","","","","","","","","","",""
"","","","","","html-button-response","62","223929","0.0-62.0","43A2E3CAB6394D7487FAF66113113D02","019d6b0d-275e-762a-b913-951ad847afb0","019d6ae6-5d89-74c6-b581-3918d1816346","","1007","
                <div class=""stimulus-container"">
                    <img src=""images/causal_sequence/saving_a_cat_causal/saving_a_cat_causal_2.png"" class=""exp-image"">
                    <div class=""question-area"">
                        <p style=""font-size: 20px; font-weight: bold; margin: 0;"">Is there a person in this image?</p>
                    </div>
                </div>","1","main_experiment_trial","2","saving_a_cat_causal","causal_sequence","chronological","","","","","","",""
"","","","","","html-keyboard-response","63","228929","0.0-63.0","43A2E3CAB6394D7487FAF66113113D02","019d6b0d-275e-762a-b913-951ad847afb0","019d6ae6-5d89-74c6-b581-3918d1816346","","null","
                <div class=""stimulus-container"">
                    <img src=""images/causal_sequence/saving_a_cat_causal/saving_a_cat_causal_3.png"" class=""exp-image"">
                    <div class=""question-area""></div> 
                </div>","null","","","","","","","","","","","",""
"","","","","","html-button-response","64","229436","0.0-64.0","43A2E3CAB6394D7487FAF66113113D02","019d6b0d-275e-762a-b913-951ad847afb0","019d6ae6-5d89-74c6-b581-3918d1816346","","507","
                <div class=""stimulus-container"">
                    <img src=""images/causal_sequence/saving_a_cat_causal/saving_a_cat_causal_3.png"" class=""exp-image"">
                    <div class=""question-area"">
                        <p style=""font-size: 20px; font-weight: bold; margin: 0;"">Is there a person in this image?</p>
                    </div>
                </div>","1","main_experiment_trial","3","saving_a_cat_causal","causal_sequence","chronological","","","","","","",""
"","","","","","html-keyboard-response","65","234439","0.0-65.0","43A2E3CAB6394D7487FAF66113113D02","019d6b0d-275e-762a-b913-951ad847afb0","019d6ae6-5d89-74c6-b581-3918d1816346","","null","
                <div class=""stimulus-container"">
                    <img src=""images/causal_sequence/saving_a_cat_causal/saving_a_cat_causal_4.png"" class=""exp-image"">
                    <div class=""question-area""></div> 
                </div>","null","","","","","","","","","","","",""
"","","","","","html-button-response","66","235688","0.0-66.0","43A2E3CAB6394D7487FAF66113113D02","019d6b0d-275e-762a-b913-951ad847afb0","019d6ae6-5d89-74c6-b581-3918d1816346","","1249","
                <div class=""stimulus-container"">
                    <img src=""images/causal_sequence/saving_a_cat_causal/saving_a_cat_causal_4.png"" class=""exp-image"">
                    <div class=""question-area"">
                        <p style=""font-size: 20px; font-weight: bold; margin: 0;"">Is there a person in this image?</p>
                    </div>
                </div>","0","main_experiment_trial","4","saving_a_cat_causal","causal_sequence","chronological","","","","","","",""
"","","","","","html-keyboard-response","67","240695","0.0-67.0","43A2E3CAB6394D7487FAF66113113D02","019d6b0d-275e-762a-b913-951ad847afb0","019d6ae6-5d89-74c6-b581-3918d1816346","","null","
                <div class=""stimulus-container"">
                    <img src=""images/causal_sequence/saving_a_cat_causal/saving_a_cat_causal_5.png"" class=""exp-image"">
                    <div class=""question-area""></div> 
                </div>","null","","","","","","","","","","","",""
"","","","","","html-button-response","68","243703","0.0-68.0","43A2E3CAB6394D7487FAF66113113D02","019d6b0d-275e-762a-b913-951ad847afb0","019d6ae6-5d89-74c6-b581-3918d1816346","","null","
                <div class=""stimulus-container"">
                    <img src=""images/causal_sequence/saving_a_cat_causal/saving_a_cat_causal_5.png"" class=""exp-image"">
                    <div class=""question-area"">
                        <p style=""font-size: 20px; font-weight: bold; margin: 0;"">Is there a person in this image?</p>
                    </div>
                </div>","null","main_experiment_trial","5","saving_a_cat_causal","causal_sequence","chronological","","","","","","",""
"","","","","","html-keyboard-response","69","248713","0.0-69.0","43A2E3CAB6394D7487FAF66113113D02","019d6b0d-275e-762a-b913-951ad847afb0","019d6ae6-5d89-74c6-b581-3918d1816346","","null","
                <div class=""stimulus-container"">
                    <img src=""images/causal_sequence/saving_a_cat_causal/saving_a_cat_causal_6.png"" class=""exp-image"">
                    <div class=""question-area""></div> 
                </div>","null","","","","","","","","","","","",""
"","","","","","html-button-response","70","251727","0.0-70.0","43A2E3CAB6394D7487FAF66113113D02","019d6b0d-275e-762a-b913-951ad847afb0","019d6ae6-5d89-74c6-b581-3918d1816346","","null","
                <div class=""stimulus-container"">
                    <img src=""images/causal_sequence/saving_a_cat_causal/saving_a_cat_causal_6.png"" class=""exp-image"">
                    <div class=""question-area"">
                        <p style=""font-size: 20px; font-weight: bold; margin: 0;"">Is there a person in this image?</p>
                    </div>
                </div>","null","main_experiment_trial","6","saving_a_cat_causal","causal_sequence","chronological","","","","","","",""
"","","","","","html-keyboard-response","71","256731","0.0-71.0","43A2E3CAB6394D7487FAF66113113D02","019d6b0d-275e-762a-b913-951ad847afb0","019d6ae6-5d89-74c6-b581-3918d1816346","","null","
                <div class=""stimulus-container"">
                    <img src=""images/causal_sequence/saving_a_cat_causal/saving_a_cat_causal_7.png"" class=""exp-image"">
                    <div class=""question-area""></div> 
                </div>","null","","","","","","","","","","","",""
"","","","","","html-button-response","72","259745","0.0-72.0","43A2E3CAB6394D7487FAF66113113D02","019d6b0d-275e-762a-b913-951ad847afb0","019d6ae6-5d89-74c6-b581-3918d1816346","","null","
                <div class=""stimulus-container"">
                    <img src=""images/causal_sequence/saving_a_cat_causal/saving_a_cat_causal_7.png"" class=""exp-image"">
                    <div class=""question-area"">
                        <p style=""font-size: 20px; font-weight: bold; margin: 0;"">Is there a person in this image?</p>
                    </div>
                </div>","null","main_experiment_trial","7","saving_a_cat_causal","causal_sequence","chronological","","","","","","",""
"","","","","","html-keyboard-response","73","264746","0.0-73.0","43A2E3CAB6394D7487FAF66113113D02","019d6b0d-275e-762a-b913-951ad847afb0","019d6ae6-5d89-74c6-b581-3918d1816346","","null","
                <div class=""stimulus-container"">
                    <img src=""images/causal_sequence/saving_a_cat_causal/saving_a_cat_causal_8.png"" class=""exp-image"">
                    <div class=""question-area""></div> 
                </div>","null","","","","","","","","","","","",""
"","","","","","html-button-response","74","266388","0.0-74.0","43A2E3CAB6394D7487FAF66113113D02","019d6b0d-275e-762a-b913-951ad847afb0","019d6ae6-5d89-74c6-b581-3918d1816346","","1642","
                <div class=""stimulus-container"">
                    <img src=""images/causal_sequence/saving_a_cat_causal/saving_a_cat_causal_8.png"" class=""exp-image"">
                    <div class=""question-area"">
                        <p style=""font-size: 20px; font-weight: bold; margin: 0;"">Is there a person in this image?</p>
                    </div>
                </div>","1","main_experiment_trial","8","saving_a_cat_causal","causal_sequence","chronological","","","","","","",""
"","","","","","html-keyboard-response","75","271392","0.0-75.0","43A2E3CAB6394D7487FAF66113113D02","019d6b0d-275e-762a-b913-951ad847afb0","019d6ae6-5d89-74c6-b581-3918d1816346","","null","
                <div class=""stimulus-container"">
                    <img src=""images/causal_sequence/saving_a_cat_causal/saving_a_cat_causal_9.png"" class=""exp-image"">
                    <div class=""question-area""></div> 
                </div>","null","","","","","","","","","","","",""
"","","","","","html-button-response","76","274386","0.0-76.0","43A2E3CAB6394D7487FAF66113113D02","019d6b0d-275e-762a-b913-951ad847afb0","019d6ae6-5d89-74c6-b581-3918d1816346","","2994","
                <div class=""stimulus-container"">
                    <img src=""images/causal_sequence/saving_a_cat_causal/saving_a_cat_causal_9.png"" class=""exp-image"">
                    <div class=""question-area"">
                        <p style=""font-size: 20px; font-weight: bold; margin: 0;"">Is there a person in this image?</p>
                    </div>
                </div>","0","main_experiment_trial","9","saving_a_cat_causal","causal_sequence","chronological","","","","","","",""
"","","","","","html-keyboard-response","77","279388","0.0-77.0","43A2E3CAB6394D7487FAF66113113D02","019d6b0d-275e-762a-b913-951ad847afb0","019d6ae6-5d89-74c6-b581-3918d1816346","","null","
                <div class=""stimulus-container"">
                    <img src=""images/causal_sequence/saving_a_cat_causal/saving_a_cat_causal_ten.png"" class=""exp-image"">
                    <div class=""question-area""></div> 
                </div>","null","","","","","","","","","","","",""
"","","","","","html-button-response","78","280358","0.0-78.0","43A2E3CAB6394D7487FAF66113113D02","019d6b0d-275e-762a-b913-951ad847afb0","019d6ae6-5d89-74c6-b581-3918d1816346","","970","
                <div class=""stimulus-container"">
                    <img src=""images/causal_sequence/saving_a_cat_causal/saving_a_cat_causal_ten.png"" class=""exp-image"">
                    <div class=""question-area"">
                        <p style=""font-size: 20px; font-weight: bold; margin: 0;"">Is there a person in this image?</p>
                    </div>
                </div>","0","main_experiment_trial","ten","saving_a_cat_causal","causal_sequence","chronological","","","","","","",""
"","","","","","html-keyboard-response","79","285365","0.0-79.0","43A2E3CAB6394D7487FAF66113113D02","019d6b0d-275e-762a-b913-951ad847afb0","019d6ae6-5d89-74c6-b581-3918d1816346","","null","<div style=""background-color: white; width: 100vw; height: 100vh;""></div>","null","","","","","","","","","","","",""
"","","","","","html-keyboard-response","80","290368","0.0-80.0","43A2E3CAB6394D7487FAF66113113D02","019d6b0d-275e-762a-b913-951ad847afb0","019d6ae6-5d89-74c6-b581-3918d1816346","","null","
                <div class=""stimulus-container"">
                    <img src=""images/causal_sequence/museum_causal/museum_causal_1.png"" class=""exp-image"">
                    <div class=""question-area""></div> 
                </div>","null","","","","","","","","","","","",""
"","","","","","html-button-response","81","291408","0.0-81.0","43A2E3CAB6394D7487FAF66113113D02","019d6b0d-275e-762a-b913-951ad847afb0","019d6ae6-5d89-74c6-b581-3918d1816346","","1040","
                <div class=""stimulus-container"">
                    <img src=""images/causal_sequence/museum_causal/museum_causal_1.png"" class=""exp-image"">
                    <div class=""question-area"">
                        <p style=""font-size: 20px; font-weight: bold; margin: 0;"">Is there a person in this image?</p>
                    </div>
                </div>","0","main_experiment_trial","1","museum_causal","causal_sequence","chronological","","","","","","",""
"","","","","","html-keyboard-response","82","296410","0.0-82.0","43A2E3CAB6394D7487FAF66113113D02","019d6b0d-275e-762a-b913-951ad847afb0","019d6ae6-5d89-74c6-b581-3918d1816346","","null","
                <div class=""stimulus-container"">
                    <img src=""images/causal_sequence/museum_causal/museum_causal_2.png"" class=""exp-image"">
                    <div class=""question-area""></div> 
                </div>","null","","","","","","","","","","","",""
"","","","","","html-button-response","83","298823","0.0-83.0","43A2E3CAB6394D7487FAF66113113D02","019d6b0d-275e-762a-b913-951ad847afb0","019d6ae6-5d89-74c6-b581-3918d1816346","","2412","
                <div class=""stimulus-container"">
                    <img src=""images/causal_sequence/museum_causal/museum_causal_2.png"" class=""exp-image"">
                    <div class=""question-area"">
                        <p style=""font-size: 20px; font-weight: bold; margin: 0;"">Is there a person in this image?</p>
                    </div>
                </div>","0","main_experiment_trial","2","museum_causal","causal_sequence","chronological","","","","","","",""
"","","","","","html-keyboard-response","84","303829","0.0-84.0","43A2E3CAB6394D7487FAF66113113D02","019d6b0d-275e-762a-b913-951ad847afb0","019d6ae6-5d89-74c6-b581-3918d1816346","","null","
                <div class=""stimulus-container"">
                    <img src=""images/causal_sequence/museum_causal/museum_causal_3.png"" class=""exp-image"">
                    <div class=""question-area""></div> 
                </div>","null","","","","","","","","","","","",""
"","","","","","html-button-response","85","304888","0.0-85.0","43A2E3CAB6394D7487FAF66113113D02","019d6b0d-275e-762a-b913-951ad847afb0","019d6ae6-5d89-74c6-b581-3918d1816346","","1059","
                <div class=""stimulus-container"">
                    <img src=""images/causal_sequence/museum_causal/museum_causal_3.png"" class=""exp-image"">
                    <div class=""question-area"">
                        <p style=""font-size: 20px; font-weight: bold; margin: 0;"">Is there a person in this image?</p>
                    </div>
                </div>","0","main_experiment_trial","3","museum_causal","causal_sequence","chronological","","","","","","",""
"","","","","","html-keyboard-response","86","309896","0.0-86.0","43A2E3CAB6394D7487FAF66113113D02","019d6b0d-275e-762a-b913-951ad847afb0","019d6ae6-5d89-74c6-b581-3918d1816346","","null","
                <div class=""stimulus-container"">
                    <img src=""images/causal_sequence/museum_causal/museum_causal_4.png"" class=""exp-image"">
                    <div class=""question-area""></div> 
                </div>","null","","","","","","","","","","","",""
"","","","","","html-button-response","87","310396","0.0-87.0","43A2E3CAB6394D7487FAF66113113D02","019d6b0d-275e-762a-b913-951ad847afb0","019d6ae6-5d89-74c6-b581-3918d1816346","","500","
                <div class=""stimulus-container"">
                    <img src=""images/causal_sequence/museum_causal/museum_causal_4.png"" class=""exp-image"">
                    <div class=""question-area"">
                        <p style=""font-size: 20px; font-weight: bold; margin: 0;"">Is there a person in this image?</p>
                    </div>
                </div>","1","main_experiment_trial","4","museum_causal","causal_sequence","chronological","","","","","","",""
"","","","","","html-keyboard-response","88","315401","0.0-88.0","43A2E3CAB6394D7487FAF66113113D02","019d6b0d-275e-762a-b913-951ad847afb0","019d6ae6-5d89-74c6-b581-3918d1816346","","null","
                <div class=""stimulus-container"">
                    <img src=""images/causal_sequence/museum_causal/museum_causal_5.png"" class=""exp-image"">
                    <div class=""question-area""></div> 
                </div>","null","","","","","","","","","","","",""
"","","","","","html-button-response","89","318414","0.0-89.0","43A2E3CAB6394D7487FAF66113113D02","019d6b0d-275e-762a-b913-951ad847afb0","019d6ae6-5d89-74c6-b581-3918d1816346","","null","
                <div class=""stimulus-container"">
                    <img src=""images/causal_sequence/museum_causal/museum_causal_5.png"" class=""exp-image"">
                    <div class=""question-area"">
                        <p style=""font-size: 20px; font-weight: bold; margin: 0;"">Is there a person in this image?</p>
                    </div>
                </div>","null","main_experiment_trial","5","museum_causal","causal_sequence","chronological","","","","","","",""
"","","","","","html-keyboard-response","90","323421","0.0-90.0","43A2E3CAB6394D7487FAF66113113D02","019d6b0d-275e-762a-b913-951ad847afb0","019d6ae6-5d89-74c6-b581-3918d1816346","","null","
                <div class=""stimulus-container"">
                    <img src=""images/causal_sequence/museum_causal/museum_causal_6.png"" class=""exp-image"">
                    <div class=""question-area""></div> 
                </div>","null","","","","","","","","","","","",""
"","","","","","html-button-response","91","326104","0.0-91.0","43A2E3CAB6394D7487FAF66113113D02","019d6b0d-275e-762a-b913-951ad847afb0","019d6ae6-5d89-74c6-b581-3918d1816346","","2683","
                <div class=""stimulus-container"">
                    <img src=""images/causal_sequence/museum_causal/museum_causal_6.png"" class=""exp-image"">
                    <div class=""question-area"">
                        <p style=""font-size: 20px; font-weight: bold; margin: 0;"">Is there a person in this image?</p>
                    </div>
                </div>","0","main_experiment_trial","6","museum_causal","causal_sequence","chronological","","","","","","",""
"","","","","","html-keyboard-response","92","331105","0.0-92.0","43A2E3CAB6394D7487FAF66113113D02","019d6b0d-275e-762a-b913-951ad847afb0","019d6ae6-5d89-74c6-b581-3918d1816346","","null","
                <div class=""stimulus-container"">
                    <img src=""images/causal_sequence/museum_causal/museum_causal_7.png"" class=""exp-image"">
                    <div class=""question-area""></div> 
                </div>","null","","","","","","","","","","","",""
"","","","","","html-button-response","93","334111","0.0-93.0","43A2E3CAB6394D7487FAF66113113D02","019d6b0d-275e-762a-b913-951ad847afb0","019d6ae6-5d89-74c6-b581-3918d1816346","","null","
                <div class=""stimulus-container"">
                    <img src=""images/causal_sequence/museum_causal/museum_causal_7.png"" class=""exp-image"">
                    <div class=""question-area"">
                        <p style=""font-size: 20px; font-weight: bold; margin: 0;"">Is there a person in this image?</p>
                    </div>
                </div>","null","main_experiment_trial","7","museum_causal","causal_sequence","chronological","","","","","","",""
"","","","","","html-keyboard-response","94","339121","0.0-94.0","43A2E3CAB6394D7487FAF66113113D02","019d6b0d-275e-762a-b913-951ad847afb0","019d6ae6-5d89-74c6-b581-3918d1816346","","null","
                <div class=""stimulus-container"">
                    <img src=""images/causal_sequence/museum_causal/museum_causal_8.png"" class=""exp-image"">
                    <div class=""question-area""></div> 
                </div>","null","","","","","","","","","","","",""
"","","","","","html-button-response","95","342128","0.0-95.0","43A2E3CAB6394D7487FAF66113113D02","019d6b0d-275e-762a-b913-951ad847afb0","019d6ae6-5d89-74c6-b581-3918d1816346","","null","
                <div class=""stimulus-container"">
                    <img src=""images/causal_sequence/museum_causal/museum_causal_8.png"" class=""exp-image"">
                    <div class=""question-area"">
                        <p style=""font-size: 20px; font-weight: bold; margin: 0;"">Is there a person in this image?</p>
                    </div>
                </div>","null","main_experiment_trial","8","museum_causal","causal_sequence","chronological","","","","","","",""
"","","","","","html-keyboard-response","96","347142","0.0-96.0","43A2E3CAB6394D7487FAF66113113D02","019d6b0d-275e-762a-b913-951ad847afb0","019d6ae6-5d89-74c6-b581-3918d1816346","","null","
                <div class=""stimulus-container"">
                    <img src=""images/causal_sequence/museum_causal/museum_causal_9.png"" class=""exp-image"">
                    <div class=""question-area""></div> 
                </div>","null","","","","","","","","","","","",""
"","","","","","html-button-response","97","348722","0.0-97.0","43A2E3CAB6394D7487FAF66113113D02","019d6b0d-275e-762a-b913-951ad847afb0","019d6ae6-5d89-74c6-b581-3918d1816346","","1580","
                <div class=""stimulus-container"">
                    <img src=""images/causal_sequence/museum_causal/museum_causal_9.png"" class=""exp-image"">
                    <div class=""question-area"">
                        <p style=""font-size: 20px; font-weight: bold; margin: 0;"">Is there a person in this image?</p>
                    </div>
                </div>","1","main_experiment_trial","9","museum_causal","causal_sequence","chronological","","","","","","",""
"","","","","","html-keyboard-response","98","353729","0.0-98.0","43A2E3CAB6394D7487FAF66113113D02","019d6b0d-275e-762a-b913-951ad847afb0","019d6ae6-5d89-74c6-b581-3918d1816346","","null","
                <div class=""stimulus-container"">
                    <img src=""images/causal_sequence/museum_causal/museum_causal_ten.png"" class=""exp-image"">
                    <div class=""question-area""></div> 
                </div>","null","","","","","","","","","","","",""
"","","","","","html-button-response","99","356734","0.0-99.0","43A2E3CAB6394D7487FAF66113113D02","019d6b0d-275e-762a-b913-951ad847afb0","019d6ae6-5d89-74c6-b581-3918d1816346","","null","
                <div class=""stimulus-container"">
                    <img src=""images/causal_sequence/museum_causal/museum_causal_ten.png"" class=""exp-image"">
                    <div class=""question-area"">
                        <p style=""font-size: 20px; font-weight: bold; margin: 0;"">Is there a person in this image?</p>
                    </div>
                </div>","null","main_experiment_trial","ten","museum_causal","causal_sequence","chronological","","","","","","",""
"","","","","","html-keyboard-response","100","361740","0.0-100.0","43A2E3CAB6394D7487FAF66113113D02","019d6b0d-275e-762a-b913-951ad847afb0","019d6ae6-5d89-74c6-b581-3918d1816346","","null","<div style=""background-color: white; width: 100vw; height: 100vh;""></div>","null","","","","","","","","","","","",""
"","","","","","html-keyboard-response","101","366756","0.0-101.0","43A2E3CAB6394D7487FAF66113113D02","019d6b0d-275e-762a-b913-951ad847afb0","019d6ae6-5d89-74c6-b581-3918d1816346","","null","
                <div class=""stimulus-container"">
                    <img src=""semantic_sequence_notimeline/fruits_semantic/fruits_semantic_1.png"" class=""exp-image"">
                    <div class=""question-area""></div> 
                </div>","null","","","","","","","","","","","",""
"","","","","","html-button-response","102","369758","0.0-102.0","43A2E3CAB6394D7487FAF66113113D02","019d6b0d-275e-762a-b913-951ad847afb0","019d6ae6-5d89-74c6-b581-3918d1816346","","null","
                <div class=""stimulus-container"">
                    <img src=""semantic_sequence_notimeline/fruits_semantic/fruits_semantic_1.png"" class=""exp-image"">
                    <div class=""question-area"">
                        <p style=""font-size: 20px; font-weight: bold; margin: 0;"">Is there a person in this image?</p>
                    </div>
                </div>","null","main_experiment_trial","1","fruits_semantic","semantic_sequence_notimeline","chronological","","","","","","",""
"","","","","","html-keyboard-response","103","374766","0.0-103.0","43A2E3CAB6394D7487FAF66113113D02","019d6b0d-275e-762a-b913-951ad847afb0","019d6ae6-5d89-74c6-b581-3918d1816346","","null","
                <div class=""stimulus-container"">
                    <img src=""semantic_sequence_notimeline/fruits_semantic/fruits_semantic_2.png"" class=""exp-image"">
                    <div class=""question-area""></div> 
                </div>","null","","","","","","","","","","","",""
"","","","","","html-button-response","104","375666","0.0-104.0","43A2E3CAB6394D7487FAF66113113D02","019d6b0d-275e-762a-b913-951ad847afb0","019d6ae6-5d89-74c6-b581-3918d1816346","","900","
                <div class=""stimulus-container"">
                    <img src=""semantic_sequence_notimeline/fruits_semantic/fruits_semantic_2.png"" class=""exp-image"">
                    <div class=""question-area"">
                        <p style=""font-size: 20px; font-weight: bold; margin: 0;"">Is there a person in this image?</p>
                    </div>
                </div>","1","main_experiment_trial","2","fruits_semantic","semantic_sequence_notimeline","chronological","","","","","","",""
"","","","","","html-keyboard-response","105","380673","0.0-105.0","43A2E3CAB6394D7487FAF66113113D02","019d6b0d-275e-762a-b913-951ad847afb0","019d6ae6-5d89-74c6-b581-3918d1816346","","null","
                <div class=""stimulus-container"">
                    <img src=""semantic_sequence_notimeline/fruits_semantic/fruits_semantic_3.png"" class=""exp-image"">
                    <div class=""question-area""></div> 
                </div>","null","","","","","","","","","","","",""
"","","","","","html-button-response","106","383687","0.0-106.0","43A2E3CAB6394D7487FAF66113113D02","019d6b0d-275e-762a-b913-951ad847afb0","019d6ae6-5d89-74c6-b581-3918d1816346","","null","
                <div class=""stimulus-container"">
                    <img src=""semantic_sequence_notimeline/fruits_semantic/fruits_semantic_3.png"" class=""exp-image"">
                    <div class=""question-area"">
                        <p style=""font-size: 20px; font-weight: bold; margin: 0;"">Is there a person in this image?</p>
                    </div>
                </div>","null","main_experiment_trial","3","fruits_semantic","semantic_sequence_notimeline","chronological","","","","","","",""
"","","","","","html-keyboard-response","107","388694","0.0-107.0","43A2E3CAB6394D7487FAF66113113D02","019d6b0d-275e-762a-b913-951ad847afb0","019d6ae6-5d89-74c6-b581-3918d1816346","","null","
                <div class=""stimulus-container"">
                    <img src=""semantic_sequence_notimeline/fruits_semantic/fruits_semantic_4.png"" class=""exp-image"">
                    <div class=""question-area""></div> 
                </div>","null","","","","","","","","","","","",""
"","","","","","html-button-response","108","391708","0.0-108.0","43A2E3CAB6394D7487FAF66113113D02","019d6b0d-275e-762a-b913-951ad847afb0","019d6ae6-5d89-74c6-b581-3918d1816346","","null","
                <div class=""stimulus-container"">
                    <img src=""semantic_sequence_notimeline/fruits_semantic/fruits_semantic_4.png"" class=""exp-image"">
                    <div class=""question-area"">
                        <p style=""font-size: 20px; font-weight: bold; margin: 0;"">Is there a person in this image?</p>
                    </div>
                </div>","null","main_experiment_trial","4","fruits_semantic","semantic_sequence_notimeline","chronological","","","","","","",""
"","","","","","html-keyboard-response","109","396724","0.0-109.0","43A2E3CAB6394D7487FAF66113113D02","019d6b0d-275e-762a-b913-951ad847afb0","019d6ae6-5d89-74c6-b581-3918d1816346","","null","
                <div class=""stimulus-container"">
                    <img src=""semantic_sequence_notimeline/fruits_semantic/fruits_semantic_5.png"" class=""exp-image"">
                    <div class=""question-area""></div> 
                </div>","null","","","","","","","","","","","",""
"","","","","","html-button-response","110","399164","0.0-110.0","43A2E3CAB6394D7487FAF66113113D02","019d6b0d-275e-762a-b913-951ad847afb0","019d6ae6-5d89-74c6-b581-3918d1816346","","2440","
                <div class=""stimulus-container"">
                    <img src=""semantic_sequence_notimeline/fruits_semantic/fruits_semantic_5.png"" class=""exp-image"">
                    <div class=""question-area"">
                        <p style=""font-size: 20px; font-weight: bold; margin: 0;"">Is there a person in this image?</p>
                    </div>
                </div>","1","main_experiment_trial","5","fruits_semantic","semantic_sequence_notimeline","chronological","","","","","","",""
"","","","","","html-keyboard-response","111","404504","0.0-111.0","43A2E3CAB6394D7487FAF66113113D02","019d6b0d-275e-762a-b913-951ad847afb0","019d6ae6-5d89-74c6-b581-3918d1816346","","null","
                <div class=""stimulus-container"">
                    <img src=""semantic_sequence_notimeline/fruits_semantic/fruits_semantic_6.png"" class=""exp-image"">
                    <div class=""question-area""></div> 
                </div>","null","","","","","","","","","","","",""
"","","","","","html-button-response","112","405412","0.0-112.0","43A2E3CAB6394D7487FAF66113113D02","019d6b0d-275e-762a-b913-951ad847afb0","019d6ae6-5d89-74c6-b581-3918d1816346","","908","
                <div class=""stimulus-container"">
                    <img src=""semantic_sequence_notimeline/fruits_semantic/fruits_semantic_6.png"" class=""exp-image"">
                    <div class=""question-area"">
                        <p style=""font-size: 20px; font-weight: bold; margin: 0;"">Is there a person in this image?</p>
                    </div>
                </div>","1","main_experiment_trial","6","fruits_semantic","semantic_sequence_notimeline","chronological","","","","","","",""
"","","","","","html-keyboard-response","113","410427","0.0-113.0","43A2E3CAB6394D7487FAF66113113D02","019d6b0d-275e-762a-b913-951ad847afb0","019d6ae6-5d89-74c6-b581-3918d1816346","","null","
                <div class=""stimulus-container"">
                    <img src=""semantic_sequence_notimeline/fruits_semantic/fruits_semantic_7.png"" class=""exp-image"">
                    <div class=""question-area""></div> 
                </div>","null","","","","","","","","","","","",""
"","","","","","html-button-response","114","411208","0.0-114.0","43A2E3CAB6394D7487FAF66113113D02","019d6b0d-275e-762a-b913-951ad847afb0","019d6ae6-5d89-74c6-b581-3918d1816346","","781","
                <div class=""stimulus-container"">
                    <img src=""semantic_sequence_notimeline/fruits_semantic/fruits_semantic_7.png"" class=""exp-image"">
                    <div class=""question-area"">
                        <p style=""font-size: 20px; font-weight: bold; margin: 0;"">Is there a person in this image?</p>
                    </div>
                </div>","1","main_experiment_trial","7","fruits_semantic","semantic_sequence_notimeline","chronological","","","","","","",""
"","","","","","html-keyboard-response","115","416212","0.0-115.0","43A2E3CAB6394D7487FAF66113113D02","019d6b0d-275e-762a-b913-951ad847afb0","019d6ae6-5d89-74c6-b581-3918d1816346","","null","
                <div class=""stimulus-container"">
                    <img src=""semantic_sequence_notimeline/fruits_semantic/fruits_semantic_8.png"" class=""exp-image"">
                    <div class=""question-area""></div> 
                </div>","null","","","","","","","","","","","",""
"","","","","","html-button-response","116","416727","0.0-116.0","43A2E3CAB6394D7487FAF66113113D02","019d6b0d-275e-762a-b913-951ad847afb0","019d6ae6-5d89-74c6-b581-3918d1816346","","514","
                <div class=""stimulus-container"">
                    <img src=""semantic_sequence_notimeline/fruits_semantic/fruits_semantic_8.png"" class=""exp-image"">
                    <div class=""question-area"">
                        <p style=""font-size: 20px; font-weight: bold; margin: 0;"">Is there a person in this image?</p>
                    </div>
                </div>","1","main_experiment_trial","8","fruits_semantic","semantic_sequence_notimeline","chronological","","","","","","",""
"","","","","","html-keyboard-response","117","421737","0.0-117.0","43A2E3CAB6394D7487FAF66113113D02","019d6b0d-275e-762a-b913-951ad847afb0","019d6ae6-5d89-74c6-b581-3918d1816346","","null","
                <div class=""stimulus-container"">
                    <img src=""semantic_sequence_notimeline/fruits_semantic/fruits_semantic_9.png"" class=""exp-image"">
                    <div class=""question-area""></div> 
                </div>","null","","","","","","","","","","","",""
"","","","","","html-button-response","118","422430","0.0-118.0","43A2E3CAB6394D7487FAF66113113D02","019d6b0d-275e-762a-b913-951ad847afb0","019d6ae6-5d89-74c6-b581-3918d1816346","","693","
                <div class=""stimulus-container"">
                    <img src=""semantic_sequence_notimeline/fruits_semantic/fruits_semantic_9.png"" class=""exp-image"">
                    <div class=""question-area"">
                        <p style=""font-size: 20px; font-weight: bold; margin: 0;"">Is there a person in this image?</p>
                    </div>
                </div>","1","main_experiment_trial","9","fruits_semantic","semantic_sequence_notimeline","chronological","","","","","","",""
"","","","","","html-keyboard-response","119","427442","0.0-119.0","43A2E3CAB6394D7487FAF66113113D02","019d6b0d-275e-762a-b913-951ad847afb0","019d6ae6-5d89-74c6-b581-3918d1816346","","null","
                <div class=""stimulus-container"">
                    <img src=""semantic_sequence_notimeline/fruits_semantic/fruits_semantic_ten.png"" class=""exp-image"">
                    <div class=""question-area""></div> 
                </div>","null","","","","","","","","","","","",""
"","","","","","html-button-response","120","428160","0.0-120.0","43A2E3CAB6394D7487FAF66113113D02","019d6b0d-275e-762a-b913-951ad847afb0","019d6ae6-5d89-74c6-b581-3918d1816346","","718","
                <div class=""stimulus-container"">
                    <img src=""semantic_sequence_notimeline/fruits_semantic/fruits_semantic_ten.png"" class=""exp-image"">
                    <div class=""question-area"">
                        <p style=""font-size: 20px; font-weight: bold; margin: 0;"">Is there a person in this image?</p>
                    </div>
                </div>","1","main_experiment_trial","ten","fruits_semantic","semantic_sequence_notimeline","chronological","","","","","","",""
"","","","","","html-keyboard-response","121","433162","0.0-121.0","43A2E3CAB6394D7487FAF66113113D02","019d6b0d-275e-762a-b913-951ad847afb0","019d6ae6-5d89-74c6-b581-3918d1816346","","null","<div style=""background-color: white; width: 100vw; height: 100vh;""></div>","null","","","","","","","","","","","",""
"","","","","","html-keyboard-response","122","438170","0.0-122.0","43A2E3CAB6394D7487FAF66113113D02","019d6b0d-275e-762a-b913-951ad847afb0","019d6ae6-5d89-74c6-b581-3918d1816346","","null","
                <div class=""stimulus-container"">
                    <img src=""semantic_sequence_notimeline/household_objects_semantic/household_objects_semantic_1.png"" class=""exp-image"">
                    <div class=""question-area""></div> 
                </div>","null","","","","","","","","","","","",""
"","","","","","html-button-response","123","439711","0.0-123.0","43A2E3CAB6394D7487FAF66113113D02","019d6b0d-275e-762a-b913-951ad847afb0","019d6ae6-5d89-74c6-b581-3918d1816346","","1540","
                <div class=""stimulus-container"">
                    <img src=""semantic_sequence_notimeline/household_objects_semantic/household_objects_semantic_1.png"" class=""exp-image"">
                    <div class=""question-area"">
                        <p style=""font-size: 20px; font-weight: bold; margin: 0;"">Is there a person in this image?</p>
                    </div>
                </div>","1","main_experiment_trial","1","household_objects_semantic","semantic_sequence_notimeline","chronological","","","","","","",""
"","","","","","html-keyboard-response","124","444722","0.0-124.0","43A2E3CAB6394D7487FAF66113113D02","019d6b0d-275e-762a-b913-951ad847afb0","019d6ae6-5d89-74c6-b581-3918d1816346","","null","
                <div class=""stimulus-container"">
                    <img src=""semantic_sequence_notimeline/household_objects_semantic/household_objects_semantic_2.png"" class=""exp-image"">
                    <div class=""question-area""></div> 
                </div>","null","","","","","","","","","","","",""
"","","","","","html-button-response","125","447726","0.0-125.0","43A2E3CAB6394D7487FAF66113113D02","019d6b0d-275e-762a-b913-951ad847afb0","019d6ae6-5d89-74c6-b581-3918d1816346","","null","
                <div class=""stimulus-container"">
                    <img src=""semantic_sequence_notimeline/household_objects_semantic/household_objects_semantic_2.png"" class=""exp-image"">
                    <div class=""question-area"">
                        <p style=""font-size: 20px; font-weight: bold; margin: 0;"">Is there a person in this image?</p>
                    </div>
                </div>","null","main_experiment_trial","2","household_objects_semantic","semantic_sequence_notimeline","chronological","","","","","","",""
"","","","","","html-keyboard-response","126","452733","0.0-126.0","43A2E3CAB6394D7487FAF66113113D02","019d6b0d-275e-762a-b913-951ad847afb0","019d6ae6-5d89-74c6-b581-3918d1816346","","null","
                <div class=""stimulus-container"">
                    <img src=""semantic_sequence_notimeline/household_objects_semantic/household_objects_semantic_3.png"" class=""exp-image"">
                    <div class=""question-area""></div> 
                </div>","null","","","","","","","","","","","",""
"","","","","","html-button-response","127","455735","0.0-127.0","43A2E3CAB6394D7487FAF66113113D02","019d6b0d-275e-762a-b913-951ad847afb0","019d6ae6-5d89-74c6-b581-3918d1816346","","null","
                <div class=""stimulus-container"">
                    <img src=""semantic_sequence_notimeline/household_objects_semantic/household_objects_semantic_3.png"" class=""exp-image"">
                    <div class=""question-area"">
                        <p style=""font-size: 20px; font-weight: bold; margin: 0;"">Is there a person in this image?</p>
                    </div>
                </div>","null","main_experiment_trial","3","household_objects_semantic","semantic_sequence_notimeline","chronological","","","","","","",""
"","","","","","html-keyboard-response","128","460740","0.0-128.0","43A2E3CAB6394D7487FAF66113113D02","019d6b0d-275e-762a-b913-951ad847afb0","019d6ae6-5d89-74c6-b581-3918d1816346","","null","
                <div class=""stimulus-container"">
                    <img src=""semantic_sequence_notimeline/household_objects_semantic/household_objects_semantic_4.png"" class=""exp-image"">
                    <div class=""question-area""></div> 
                </div>","null","","","","","","","","","","","",""
"","","","","","html-button-response","129","462090","0.0-129.0","43A2E3CAB6394D7487FAF66113113D02","019d6b0d-275e-762a-b913-951ad847afb0","019d6ae6-5d89-74c6-b581-3918d1816346","","1349","
                <div class=""stimulus-container"">
                    <img src=""semantic_sequence_notimeline/household_objects_semantic/household_objects_semantic_4.png"" class=""exp-image"">
                    <div class=""question-area"">
                        <p style=""font-size: 20px; font-weight: bold; margin: 0;"">Is there a person in this image?</p>
                    </div>
                </div>","1","main_experiment_trial","4","household_objects_semantic","semantic_sequence_notimeline","chronological","","","","","","",""
"","","","","","html-keyboard-response","130","467101","0.0-130.0","43A2E3CAB6394D7487FAF66113113D02","019d6b0d-275e-762a-b913-951ad847afb0","019d6ae6-5d89-74c6-b581-3918d1816346","","null","
                <div class=""stimulus-container"">
                    <img src=""semantic_sequence_notimeline/household_objects_semantic/household_objects_semantic_5.png"" class=""exp-image"">
                    <div class=""question-area""></div> 
                </div>","null","","","","","","","","","","","",""
"","","","","","html-button-response","131","468834","0.0-131.0","43A2E3CAB6394D7487FAF66113113D02","019d6b0d-275e-762a-b913-951ad847afb0","019d6ae6-5d89-74c6-b581-3918d1816346","","1733","
                <div class=""stimulus-container"">
                    <img src=""semantic_sequence_notimeline/household_objects_semantic/household_objects_semantic_5.png"" class=""exp-image"">
                    <div class=""question-area"">
                        <p style=""font-size: 20px; font-weight: bold; margin: 0;"">Is there a person in this image?</p>
                    </div>
                </div>","1","main_experiment_trial","5","household_objects_semantic","semantic_sequence_notimeline","chronological","","","","","","",""
"","","","","","html-keyboard-response","132","473846","0.0-132.0","43A2E3CAB6394D7487FAF66113113D02","019d6b0d-275e-762a-b913-951ad847afb0","019d6ae6-5d89-74c6-b581-3918d1816346","","null","
                <div class=""stimulus-container"">
                    <img src=""semantic_sequence_notimeline/household_objects_semantic/household_objects_semantic_6.png"" class=""exp-image"">
                    <div class=""question-area""></div> 
                </div>","null","","","","","","","","","","","",""
"","","","","","html-button-response","133","475932","0.0-133.0","43A2E3CAB6394D7487FAF66113113D02","019d6b0d-275e-762a-b913-951ad847afb0","019d6ae6-5d89-74c6-b581-3918d1816346","","2086","
                <div class=""stimulus-container"">
                    <img src=""semantic_sequence_notimeline/household_objects_semantic/household_objects_semantic_6.png"" class=""exp-image"">
                    <div class=""question-area"">
                        <p style=""font-size: 20px; font-weight: bold; margin: 0;"">Is there a person in this image?</p>
                    </div>
                </div>","1","main_experiment_trial","6","household_objects_semantic","semantic_sequence_notimeline","chronological","","","","","","",""
"","","","","","html-keyboard-response","134","480942","0.0-134.0","43A2E3CAB6394D7487FAF66113113D02","019d6b0d-275e-762a-b913-951ad847afb0","019d6ae6-5d89-74c6-b581-3918d1816346","","null","
                <div class=""stimulus-container"">
                    <img src=""semantic_sequence_notimeline/household_objects_semantic/household_objects_semantic_7.png"" class=""exp-image"">
                    <div class=""question-area""></div> 
                </div>","null","","","","","","","","","","","",""
"","","","","","html-button-response","135","483943","0.0-135.0","43A2E3CAB6394D7487FAF66113113D02","019d6b0d-275e-762a-b913-951ad847afb0","019d6ae6-5d89-74c6-b581-3918d1816346","","null","
                <div class=""stimulus-container"">
                    <img src=""semantic_sequence_notimeline/household_objects_semantic/household_objects_semantic_7.png"" class=""exp-image"">
                    <div class=""question-area"">
                        <p style=""font-size: 20px; font-weight: bold; margin: 0;"">Is there a person in this image?</p>
                    </div>
                </div>","null","main_experiment_trial","7","household_objects_semantic","semantic_sequence_notimeline","chronological","","","","","","",""
"","","","","","html-keyboard-response","136","488952","0.0-136.0","43A2E3CAB6394D7487FAF66113113D02","019d6b0d-275e-762a-b913-951ad847afb0","019d6ae6-5d89-74c6-b581-3918d1816346","","null","
                <div class=""stimulus-container"">
                    <img src=""semantic_sequence_notimeline/household_objects_semantic/household_objects_semantic_8.png"" class=""exp-image"">
                    <div class=""question-area""></div> 
                </div>","null","","","","","","","","","","","",""
"","","","","","html-button-response","137","491953","0.0-137.0","43A2E3CAB6394D7487FAF66113113D02","019d6b0d-275e-762a-b913-951ad847afb0","019d6ae6-5d89-74c6-b581-3918d1816346","","null","
                <div class=""stimulus-container"">
                    <img src=""semantic_sequence_notimeline/household_objects_semantic/household_objects_semantic_8.png"" class=""exp-image"">
                    <div class=""question-area"">
                        <p style=""font-size: 20px; font-weight: bold; margin: 0;"">Is there a person in this image?</p>
                    </div>
                </div>","null","main_experiment_trial","8","household_objects_semantic","semantic_sequence_notimeline","chronological","","","","","","",""
"","","","","","html-keyboard-response","138","496966","0.0-138.0","43A2E3CAB6394D7487FAF66113113D02","019d6b0d-275e-762a-b913-951ad847afb0","019d6ae6-5d89-74c6-b581-3918d1816346","","null","
                <div class=""stimulus-container"">
                    <img src=""semantic_sequence_notimeline/household_objects_semantic/household_objects_semantic_9.png"" class=""exp-image"">
                    <div class=""question-area""></div> 
                </div>","null","","","","","","","","","","","",""
"","","","","","html-button-response","139","498196","0.0-139.0","43A2E3CAB6394D7487FAF66113113D02","019d6b0d-275e-762a-b913-951ad847afb0","019d6ae6-5d89-74c6-b581-3918d1816346","","1230","
                <div class=""stimulus-container"">
                    <img src=""semantic_sequence_notimeline/household_objects_semantic/household_objects_semantic_9.png"" class=""exp-image"">
                    <div class=""question-area"">
                        <p style=""font-size: 20px; font-weight: bold; margin: 0;"">Is there a person in this image?</p>
                    </div>
                </div>","1","main_experiment_trial","9","household_objects_semantic","semantic_sequence_notimeline","chronological","","","","","","",""
"","","","","","html-keyboard-response","140","503201","0.0-140.0","43A2E3CAB6394D7487FAF66113113D02","019d6b0d-275e-762a-b913-951ad847afb0","019d6ae6-5d89-74c6-b581-3918d1816346","","null","
                <div class=""stimulus-container"">
                    <img src=""semantic_sequence_notimeline/household_objects_semantic/household_objects_semantic_ten.png"" class=""exp-image"">
                    <div class=""question-area""></div> 
                </div>","null","","","","","","","","","","","",""
"","","","","","html-button-response","141","505744","0.0-141.0","43A2E3CAB6394D7487FAF66113113D02","019d6b0d-275e-762a-b913-951ad847afb0","019d6ae6-5d89-74c6-b581-3918d1816346","","2542","
                <div class=""stimulus-container"">
                    <img src=""semantic_sequence_notimeline/household_objects_semantic/household_objects_semantic_ten.png"" class=""exp-image"">
                    <div class=""question-area"">
                        <p style=""font-size: 20px; font-weight: bold; margin: 0;"">Is there a person in this image?</p>
                    </div>
                </div>","1","main_experiment_trial","ten","household_objects_semantic","semantic_sequence_notimeline","chronological","","","","","","",""
"","","","","","html-keyboard-response","142","510758","0.0-142.0","43A2E3CAB6394D7487FAF66113113D02","019d6b0d-275e-762a-b913-951ad847afb0","019d6ae6-5d89-74c6-b581-3918d1816346","","null","<div style=""background-color: white; width: 100vw; height: 100vh;""></div>","null","","","","","","","","","","","",""
"","","","","","html-keyboard-response","143","515766","0.0-143.0","43A2E3CAB6394D7487FAF66113113D02","019d6b0d-275e-762a-b913-951ad847afb0","019d6ae6-5d89-74c6-b581-3918d1816346","","null","
                <div class=""stimulus-container"">
                    <img src=""semantic_sequence_notimeline/professions_semantic/professions_semantic_1.png"" class=""exp-image"">
                    <div class=""question-area""></div> 
                </div>","null","","","","","","","","","","","",""
"","","","","","html-button-response","144","516230","0.0-144.0","43A2E3CAB6394D7487FAF66113113D02","019d6b0d-275e-762a-b913-951ad847afb0","019d6ae6-5d89-74c6-b581-3918d1816346","","464","
                <div class=""stimulus-container"">
                    <img src=""semantic_sequence_notimeline/professions_semantic/professions_semantic_1.png"" class=""exp-image"">
                    <div class=""question-area"">
                        <p style=""font-size: 20px; font-weight: bold; margin: 0;"">Is there a person in this image?</p>
                    </div>
                </div>","0","main_experiment_trial","1","professions_semantic","semantic_sequence_notimeline","chronological","","","","","","",""
"","","","","","html-keyboard-response","145","521231","0.0-145.0","43A2E3CAB6394D7487FAF66113113D02","019d6b0d-275e-762a-b913-951ad847afb0","019d6ae6-5d89-74c6-b581-3918d1816346","","null","
                <div class=""stimulus-container"">
                    <img src=""semantic_sequence_notimeline/professions_semantic/professions_semantic_2.png"" class=""exp-image"">
                    <div class=""question-area""></div> 
                </div>","null","","","","","","","","","","","",""
"","","","","","html-button-response","146","521772","0.0-146.0","43A2E3CAB6394D7487FAF66113113D02","019d6b0d-275e-762a-b913-951ad847afb0","019d6ae6-5d89-74c6-b581-3918d1816346","","540","
                <div class=""stimulus-container"">
                    <img src=""semantic_sequence_notimeline/professions_semantic/professions_semantic_2.png"" class=""exp-image"">
                    <div class=""question-area"">
                        <p style=""font-size: 20px; font-weight: bold; margin: 0;"">Is there a person in this image?</p>
                    </div>
                </div>","0","main_experiment_trial","2","professions_semantic","semantic_sequence_notimeline","chronological","","","","","","",""
"","","","","","html-keyboard-response","147","526776","0.0-147.0","43A2E3CAB6394D7487FAF66113113D02","019d6b0d-275e-762a-b913-951ad847afb0","019d6ae6-5d89-74c6-b581-3918d1816346","","null","
                <div class=""stimulus-container"">
                    <img src=""semantic_sequence_notimeline/professions_semantic/professions_semantic_3.png"" class=""exp-image"">
                    <div class=""question-area""></div> 
                </div>","null","","","","","","","","","","","",""
"","","","","","html-button-response","148","527400","0.0-148.0","43A2E3CAB6394D7487FAF66113113D02","019d6b0d-275e-762a-b913-951ad847afb0","019d6ae6-5d89-74c6-b581-3918d1816346","","624","
                <div class=""stimulus-container"">
                    <img src=""semantic_sequence_notimeline/professions_semantic/professions_semantic_3.png"" class=""exp-image"">
                    <div class=""question-area"">
                        <p style=""font-size: 20px; font-weight: bold; margin: 0;"">Is there a person in this image?</p>
                    </div>
                </div>","0","main_experiment_trial","3","professions_semantic","semantic_sequence_notimeline","chronological","","","","","","",""
"","","","","","html-keyboard-response","149","532404","0.0-149.0","43A2E3CAB6394D7487FAF66113113D02","019d6b0d-275e-762a-b913-951ad847afb0","019d6ae6-5d89-74c6-b581-3918d1816346","","null","
                <div class=""stimulus-container"">
                    <img src=""semantic_sequence_notimeline/professions_semantic/professions_semantic_4.png"" class=""exp-image"">
                    <div class=""question-area""></div> 
                </div>","null","","","","","","","","","","","",""
"","","","","","html-button-response","150","535420","0.0-150.0","43A2E3CAB6394D7487FAF66113113D02","019d6b0d-275e-762a-b913-951ad847afb0","019d6ae6-5d89-74c6-b581-3918d1816346","","null","
                <div class=""stimulus-container"">
                    <img src=""semantic_sequence_notimeline/professions_semantic/professions_semantic_4.png"" class=""exp-image"">
                    <div class=""question-area"">
                        <p style=""font-size: 20px; font-weight: bold; margin: 0;"">Is there a person in this image?</p>
                    </div>
                </div>","null","main_experiment_trial","4","professions_semantic","semantic_sequence_notimeline","chronological","","","","","","",""
"","","","","","html-keyboard-response","151","540430","0.0-151.0","43A2E3CAB6394D7487FAF66113113D02","019d6b0d-275e-762a-b913-951ad847afb0","019d6ae6-5d89-74c6-b581-3918d1816346","","null","
                <div class=""stimulus-container"">
                    <img src=""semantic_sequence_notimeline/professions_semantic/professions_semantic_5.png"" class=""exp-image"">
                    <div class=""question-area""></div> 
                </div>","null","","","","","","","","","","","",""
"","","","","","html-button-response","152","542832","0.0-152.0","43A2E3CAB6394D7487FAF66113113D02","019d6b0d-275e-762a-b913-951ad847afb0","019d6ae6-5d89-74c6-b581-3918d1816346","","2401","
                <div class=""stimulus-container"">
                    <img src=""semantic_sequence_notimeline/professions_semantic/professions_semantic_5.png"" class=""exp-image"">
                    <div class=""question-area"">
                        <p style=""font-size: 20px; font-weight: bold; margin: 0;"">Is there a person in this image?</p>
                    </div>
                </div>","0","main_experiment_trial","5","professions_semantic","semantic_sequence_notimeline","chronological","","","","","","",""
"","","","","","html-keyboard-response","153","547845","0.0-153.0","43A2E3CAB6394D7487FAF66113113D02","019d6b0d-275e-762a-b913-951ad847afb0","019d6ae6-5d89-74c6-b581-3918d1816346","","null","
                <div class=""stimulus-container"">
                    <img src=""semantic_sequence_notimeline/professions_semantic/professions_semantic_6.png"" class=""exp-image"">
                    <div class=""question-area""></div> 
                </div>","null","","","","","","","","","","","",""
"","","","","","html-button-response","154","549364","0.0-154.0","43A2E3CAB6394D7487FAF66113113D02","019d6b0d-275e-762a-b913-951ad847afb0","019d6ae6-5d89-74c6-b581-3918d1816346","","1519","
                <div class=""stimulus-container"">
                    <img src=""semantic_sequence_notimeline/professions_semantic/professions_semantic_6.png"" class=""exp-image"">
                    <div class=""question-area"">
                        <p style=""font-size: 20px; font-weight: bold; margin: 0;"">Is there a person in this image?</p>
                    </div>
                </div>","0","main_experiment_trial","6","professions_semantic","semantic_sequence_notimeline","chronological","","","","","","",""
"","","","","","html-keyboard-response","155","554379","0.0-155.0","43A2E3CAB6394D7487FAF66113113D02","019d6b0d-275e-762a-b913-951ad847afb0","019d6ae6-5d89-74c6-b581-3918d1816346","","null","
                <div class=""stimulus-container"">
                    <img src=""semantic_sequence_notimeline/professions_semantic/professions_semantic_7.png"" class=""exp-image"">
                    <div class=""question-area""></div> 
                </div>","null","","","","","","","","","","","",""
"","","","","","html-button-response","156","557393","0.0-156.0","43A2E3CAB6394D7487FAF66113113D02","019d6b0d-275e-762a-b913-951ad847afb0","019d6ae6-5d89-74c6-b581-3918d1816346","","null","
                <div class=""stimulus-container"">
                    <img src=""semantic_sequence_notimeline/professions_semantic/professions_semantic_7.png"" class=""exp-image"">
                    <div class=""question-area"">
                        <p style=""font-size: 20px; font-weight: bold; margin: 0;"">Is there a person in this image?</p>
                    </div>
                </div>","null","main_experiment_trial","7","professions_semantic","semantic_sequence_notimeline","chronological","","","","","","",""
"","","","","","html-keyboard-response","157","562398","0.0-157.0","43A2E3CAB6394D7487FAF66113113D02","019d6b0d-275e-762a-b913-951ad847afb0","019d6ae6-5d89-74c6-b581-3918d1816346","","null","
                <div class=""stimulus-container"">
                    <img src=""semantic_sequence_notimeline/professions_semantic/professions_semantic_8.png"" class=""exp-image"">
                    <div class=""question-area""></div> 
                </div>","null","","","","","","","","","","","",""
"","","","","","html-button-response","158","565405","0.0-158.0","43A2E3CAB6394D7487FAF66113113D02","019d6b0d-275e-762a-b913-951ad847afb0","019d6ae6-5d89-74c6-b581-3918d1816346","","null","
                <div class=""stimulus-container"">
                    <img src=""semantic_sequence_notimeline/professions_semantic/professions_semantic_8.png"" class=""exp-image"">
                    <div class=""question-area"">
                        <p style=""font-size: 20px; font-weight: bold; margin: 0;"">Is there a person in this image?</p>
                    </div>
                </div>","null","main_experiment_trial","8","professions_semantic","semantic_sequence_notimeline","chronological","","","","","","",""
"","","","","","html-keyboard-response","159","570408","0.0-159.0","43A2E3CAB6394D7487FAF66113113D02","019d6b0d-275e-762a-b913-951ad847afb0","019d6ae6-5d89-74c6-b581-3918d1816346","","null","
                <div class=""stimulus-container"">
                    <img src=""semantic_sequence_notimeline/professions_semantic/professions_semantic_9.png"" class=""exp-image"">
                    <div class=""question-area""></div> 
                </div>","null","","","","","","","","","","","",""
"","","","","","html-button-response","160","573410","0.0-160.0","43A2E3CAB6394D7487FAF66113113D02","019d6b0d-275e-762a-b913-951ad847afb0","019d6ae6-5d89-74c6-b581-3918d1816346","","null","
                <div class=""stimulus-container"">
                    <img src=""semantic_sequence_notimeline/professions_semantic/professions_semantic_9.png"" class=""exp-image"">
                    <div class=""question-area"">
                        <p style=""font-size: 20px; font-weight: bold; margin: 0;"">Is there a person in this image?</p>
                    </div>
                </div>","null","main_experiment_trial","9","professions_semantic","semantic_sequence_notimeline","chronological","","","","","","",""
"","","","","","html-keyboard-response","161","578415","0.0-161.0","43A2E3CAB6394D7487FAF66113113D02","019d6b0d-275e-762a-b913-951ad847afb0","019d6ae6-5d89-74c6-b581-3918d1816346","","null","
                <div class=""stimulus-container"">
                    <img src=""semantic_sequence_notimeline/professions_semantic/professions_semantic_ten.png"" class=""exp-image"">
                    <div class=""question-area""></div> 
                </div>","null","","","","","","","","","","","",""
"","","","","","html-button-response","162","579646","0.0-162.0","43A2E3CAB6394D7487FAF66113113D02","019d6b0d-275e-762a-b913-951ad847afb0","019d6ae6-5d89-74c6-b581-3918d1816346","","1230","
                <div class=""stimulus-container"">
                    <img src=""semantic_sequence_notimeline/professions_semantic/professions_semantic_ten.png"" class=""exp-image"">
                    <div class=""question-area"">
                        <p style=""font-size: 20px; font-weight: bold; margin: 0;"">Is there a person in this image?</p>
                    </div>
                </div>","0","main_experiment_trial","ten","professions_semantic","semantic_sequence_notimeline","chronological","","","","","","",""
"","","","","","html-keyboard-response","163","584653","0.0-163.0","43A2E3CAB6394D7487FAF66113113D02","019d6b0d-275e-762a-b913-951ad847afb0","019d6ae6-5d89-74c6-b581-3918d1816346","","null","<div style=""background-color: white; width: 100vw; height: 100vh;""></div>","null","","","","","","","","","","","",""
"","","","","","html-keyboard-response","164","589661","0.0-164.0","43A2E3CAB6394D7487FAF66113113D02","019d6b0d-275e-762a-b913-951ad847afb0","019d6ae6-5d89-74c6-b581-3918d1816346","","null","
                <div class=""stimulus-container"">
                    <img src=""semantic_sequence_notimeline/animals_semantic/animals_semantic_1.png"" class=""exp-image"">
                    <div class=""question-area""></div> 
                </div>","null","","","","","","","","","","","",""
"","","","","","html-button-response","165","592660","0.0-165.0","43A2E3CAB6394D7487FAF66113113D02","019d6b0d-275e-762a-b913-951ad847afb0","019d6ae6-5d89-74c6-b581-3918d1816346","","2999","
                <div class=""stimulus-container"">
                    <img src=""semantic_sequence_notimeline/animals_semantic/animals_semantic_1.png"" class=""exp-image"">
                    <div class=""question-area"">
                        <p style=""font-size: 20px; font-weight: bold; margin: 0;"">Is there a person in this image?</p>
                    </div>
                </div>","1","main_experiment_trial","1","animals_semantic","semantic_sequence_notimeline","chronological","","","","","","",""
"","","","","","html-keyboard-response","166","597672","0.0-166.0","43A2E3CAB6394D7487FAF66113113D02","019d6b0d-275e-762a-b913-951ad847afb0","019d6ae6-5d89-74c6-b581-3918d1816346","","null","
                <div class=""stimulus-container"">
                    <img src=""semantic_sequence_notimeline/animals_semantic/animals_semantic_2.png"" class=""exp-image"">
                    <div class=""question-area""></div> 
                </div>","null","","","","","","","","","","","",""
"","","","","","html-button-response","167","598302","0.0-167.0","43A2E3CAB6394D7487FAF66113113D02","019d6b0d-275e-762a-b913-951ad847afb0","019d6ae6-5d89-74c6-b581-3918d1816346","","630","
                <div class=""stimulus-container"">
                    <img src=""semantic_sequence_notimeline/animals_semantic/animals_semantic_2.png"" class=""exp-image"">
                    <div class=""question-area"">
                        <p style=""font-size: 20px; font-weight: bold; margin: 0;"">Is there a person in this image?</p>
                    </div>
                </div>","1","main_experiment_trial","2","animals_semantic","semantic_sequence_notimeline","chronological","","","","","","",""
"","","","","","html-keyboard-response","168","603305","0.0-168.0","43A2E3CAB6394D7487FAF66113113D02","019d6b0d-275e-762a-b913-951ad847afb0","019d6ae6-5d89-74c6-b581-3918d1816346","","null","
                <div class=""stimulus-container"">
                    <img src=""semantic_sequence_notimeline/animals_semantic/animals_semantic_3.png"" class=""exp-image"">
                    <div class=""question-area""></div> 
                </div>","null","","","","","","","","","","","",""
"","","","","","html-button-response","169","603952","0.0-169.0","43A2E3CAB6394D7487FAF66113113D02","019d6b0d-275e-762a-b913-951ad847afb0","019d6ae6-5d89-74c6-b581-3918d1816346","","647","
                <div class=""stimulus-container"">
                    <img src=""semantic_sequence_notimeline/animals_semantic/animals_semantic_3.png"" class=""exp-image"">
                    <div class=""question-area"">
                        <p style=""font-size: 20px; font-weight: bold; margin: 0;"">Is there a person in this image?</p>
                    </div>
                </div>","1","main_experiment_trial","3","animals_semantic","semantic_sequence_notimeline","chronological","","","","","","",""
"","","","","","html-keyboard-response","170","608960","0.0-170.0","43A2E3CAB6394D7487FAF66113113D02","019d6b0d-275e-762a-b913-951ad847afb0","019d6ae6-5d89-74c6-b581-3918d1816346","","null","
                <div class=""stimulus-container"">
                    <img src=""semantic_sequence_notimeline/animals_semantic/animals_semantic_4.png"" class=""exp-image"">
                    <div class=""question-area""></div> 
                </div>","null","","","","","","","","","","","",""
"","","","","","html-button-response","171","611961","0.0-171.0","43A2E3CAB6394D7487FAF66113113D02","019d6b0d-275e-762a-b913-951ad847afb0","019d6ae6-5d89-74c6-b581-3918d1816346","","null","
                <div class=""stimulus-container"">
                    <img src=""semantic_sequence_notimeline/animals_semantic/animals_semantic_4.png"" class=""exp-image"">
                    <div class=""question-area"">
                        <p style=""font-size: 20px; font-weight: bold; margin: 0;"">Is there a person in this image?</p>
                    </div>
                </div>","null","main_experiment_trial","4","animals_semantic","semantic_sequence_notimeline","chronological","","","","","","",""
"","","","","","html-keyboard-response","172","616974","0.0-172.0","43A2E3CAB6394D7487FAF66113113D02","019d6b0d-275e-762a-b913-951ad847afb0","019d6ae6-5d89-74c6-b581-3918d1816346","","null","
                <div class=""stimulus-container"">
                    <img src=""semantic_sequence_notimeline/animals_semantic/animals_semantic_5.png"" class=""exp-image"">
                    <div class=""question-area""></div> 
                </div>","null","","","","","","","","","","","",""
"","","","","","html-button-response","173","619164","0.0-173.0","43A2E3CAB6394D7487FAF66113113D02","019d6b0d-275e-762a-b913-951ad847afb0","019d6ae6-5d89-74c6-b581-3918d1816346","","2190","
                <div class=""stimulus-container"">
                    <img src=""semantic_sequence_notimeline/animals_semantic/animals_semantic_5.png"" class=""exp-image"">
                    <div class=""question-area"">
                        <p style=""font-size: 20px; font-weight: bold; margin: 0;"">Is there a person in this image?</p>
                    </div>
                </div>","1","main_experiment_trial","5","animals_semantic","semantic_sequence_notimeline","chronological","","","","","","",""
"","","","","","html-keyboard-response","174","624173","0.0-174.0","43A2E3CAB6394D7487FAF66113113D02","019d6b0d-275e-762a-b913-951ad847afb0","019d6ae6-5d89-74c6-b581-3918d1816346","","null","
                <div class=""stimulus-container"">
                    <img src=""semantic_sequence_notimeline/animals_semantic/animals_semantic_6.png"" class=""exp-image"">
                    <div class=""question-area""></div> 
                </div>","null","","","","","","","","","","","",""
"","","","","","html-button-response","175","627177","0.0-175.0","43A2E3CAB6394D7487FAF66113113D02","019d6b0d-275e-762a-b913-951ad847afb0","019d6ae6-5d89-74c6-b581-3918d1816346","","null","
                <div class=""stimulus-container"">
                    <img src=""semantic_sequence_notimeline/animals_semantic/animals_semantic_6.png"" class=""exp-image"">
                    <div class=""question-area"">
                        <p style=""font-size: 20px; font-weight: bold; margin: 0;"">Is there a person in this image?</p>
                    </div>
                </div>","null","main_experiment_trial","6","animals_semantic","semantic_sequence_notimeline","chronological","","","","","","",""
"","","","","","html-keyboard-response","176","632181","0.0-176.0","43A2E3CAB6394D7487FAF66113113D02","019d6b0d-275e-762a-b913-951ad847afb0","019d6ae6-5d89-74c6-b581-3918d1816346","","null","
                <div class=""stimulus-container"">
