"success","timeout","failed_images","failed_audio","failed_video","trial_type","trial_index","time_elapsed","internal_node_id","subject_id","study_id","session_id","view_history","rt","stimulus","response","task","image_index","folder","sequence_type","valuable_image_index","reward_type","chosen_image_index","target_X","correct_choice"
"true","false","[]","[]","[]","preload","0","63416","0.0-0.0","5DC2AD932E304BAB90DE11FAAE7EAD79","019cf05a-461a-754a-9e39-cc6aba6dda95","019ceff9-9f67-7034-9722-02cda2445e09","","","","","","","","","","","","",""
"","","","","","instructions","1","128699","0.0-1.0","5DC2AD932E304BAB90DE11FAAE7EAD79","019cf05a-461a-754a-9e39-cc6aba6dda95","019ceff9-9f67-7034-9722-02cda2445e09","[{""page_index"":0,""viewing_time"":65281}]","65281","","","","","","","","","","",""
"","","","","","instructions","2","134576","0.0-2.0","5DC2AD932E304BAB90DE11FAAE7EAD79","019cf05a-461a-754a-9e39-cc6aba6dda95","019ceff9-9f67-7034-9722-02cda2445e09","[{""page_index"":0,""viewing_time"":5876}]","5876","","","","","","","","","","",""
"true","","","","","fullscreen","3","138417","0.0-3.0","5DC2AD932E304BAB90DE11FAAE7EAD79","019cf05a-461a-754a-9e39-cc6aba6dda95","019ceff9-9f67-7034-9722-02cda2445e09","","2815","","","","","","","","","","",""
"","","","","","instructions","4","160641","0.0-4.0","5DC2AD932E304BAB90DE11FAAE7EAD79","019cf05a-461a-754a-9e39-cc6aba6dda95","019ceff9-9f67-7034-9722-02cda2445e09","[{""page_index"":0,""viewing_time"":22223}]","22223","","","","","","","","","","",""
"","","","","","instructions","5","284159","0.0-5.0","5DC2AD932E304BAB90DE11FAAE7EAD79","019cf05a-461a-754a-9e39-cc6aba6dda95","019ceff9-9f67-7034-9722-02cda2445e09","[{""page_index"":0,""viewing_time"":123517}]","123517","","","","","","","","","","",""
"","","","","","html-keyboard-response","6","288169","0.0-6.0","5DC2AD932E304BAB90DE11FAAE7EAD79","019cf05a-461a-754a-9e39-cc6aba6dda95","019ceff9-9f67-7034-9722-02cda2445e09","","null","
                <div class=""stimulus-container"">
                    <img src=""images/instructions/movie_1.png"" class=""exp-image"">
                    <div class=""question-area""></div> 
                </div>","null","","","","","","","","",""
"","","","","","html-button-response","7","291186","0.0-7.0","5DC2AD932E304BAB90DE11FAAE7EAD79","019cf05a-461a-754a-9e39-cc6aba6dda95","019ceff9-9f67-7034-9722-02cda2445e09","","null","
                <div class=""stimulus-container"">
                    <img src=""images/instructions/movie_1.png"" class=""exp-image"">
                    <div class=""question-area"">
                        <p style=""font-size: 20px; font-weight: bold; margin: 0;"">Was there a person in this image?</p>
                    </div>
                </div>","null","example_question","1","","","","","","",""
"","","","","","html-keyboard-response","8","295197","0.0-8.0","5DC2AD932E304BAB90DE11FAAE7EAD79","019cf05a-461a-754a-9e39-cc6aba6dda95","019ceff9-9f67-7034-9722-02cda2445e09","","null","
                <div class=""stimulus-container"">
                    <img src=""images/instructions/movie_2.png"" class=""exp-image"">
                    <div class=""question-area""></div> 
                </div>","null","","","","","","","","",""
"","","","","","html-button-response","9","297554","0.0-9.0","5DC2AD932E304BAB90DE11FAAE7EAD79","019cf05a-461a-754a-9e39-cc6aba6dda95","019ceff9-9f67-7034-9722-02cda2445e09","","2352","
                <div class=""stimulus-container"">
                    <img src=""images/instructions/movie_2.png"" class=""exp-image"">
                    <div class=""question-area"">
                        <p style=""font-size: 20px; font-weight: bold; margin: 0;"">Was there a person in this image?</p>
                    </div>
                </div>","0","example_question","2","","","","","","",""
"","","","","","html-keyboard-response","10","301561","0.0-10.0","5DC2AD932E304BAB90DE11FAAE7EAD79","019cf05a-461a-754a-9e39-cc6aba6dda95","019ceff9-9f67-7034-9722-02cda2445e09","","null","
                <div class=""stimulus-container"">
                    <img src=""images/instructions/movie_3.png"" class=""exp-image"">
                    <div class=""question-area""></div> 
                </div>","null","","","","","","","","",""
"","","","","","html-button-response","11","302685","0.0-11.0","5DC2AD932E304BAB90DE11FAAE7EAD79","019cf05a-461a-754a-9e39-cc6aba6dda95","019ceff9-9f67-7034-9722-02cda2445e09","","1121","
                <div class=""stimulus-container"">
                    <img src=""images/instructions/movie_3.png"" class=""exp-image"">
                    <div class=""question-area"">
                        <p style=""font-size: 20px; font-weight: bold; margin: 0;"">Was there a person in this image?</p>
                    </div>
                </div>","0","example_question","3","","","","","","",""
"","","","","","html-keyboard-response","12","306691","0.0-12.0","5DC2AD932E304BAB90DE11FAAE7EAD79","019cf05a-461a-754a-9e39-cc6aba6dda95","019ceff9-9f67-7034-9722-02cda2445e09","","null","
                <div class=""stimulus-container"">
                    <img src=""images/instructions/movie_4.png"" class=""exp-image"">
                    <div class=""question-area""></div> 
                </div>","null","","","","","","","","",""
"","","","","","html-button-response","13","307578","0.0-13.0","5DC2AD932E304BAB90DE11FAAE7EAD79","019cf05a-461a-754a-9e39-cc6aba6dda95","019ceff9-9f67-7034-9722-02cda2445e09","","885","
                <div class=""stimulus-container"">
                    <img src=""images/instructions/movie_4.png"" class=""exp-image"">
                    <div class=""question-area"">
                        <p style=""font-size: 20px; font-weight: bold; margin: 0;"">Was there a person in this image?</p>
                    </div>
                </div>","0","example_question","4","","","","","","",""
"","","","","","instructions","14","310011","0.0-14.0","5DC2AD932E304BAB90DE11FAAE7EAD79","019cf05a-461a-754a-9e39-cc6aba6dda95","019ceff9-9f67-7034-9722-02cda2445e09","[{""page_index"":0,""viewing_time"":2431}]","2432","","","","","","","","","","",""
"","","","","","instructions","15","320783","0.0-15.0","5DC2AD932E304BAB90DE11FAAE7EAD79","019cf05a-461a-754a-9e39-cc6aba6dda95","019ceff9-9f67-7034-9722-02cda2445e09","[{""page_index"":0,""viewing_time"":10770}]","10770","","","","","","","","","","",""
"","","","","","html-keyboard-response","16","321791","0.0-16.0","5DC2AD932E304BAB90DE11FAAE7EAD79","019cf05a-461a-754a-9e39-cc6aba6dda95","019ceff9-9f67-7034-9722-02cda2445e09","","null","<div style=""background-color: white; width: 100vw; height: 100vh;""></div>","null","","","","","","","","",""
"","","","","","html-keyboard-response","17","326799","0.0-17.0","5DC2AD932E304BAB90DE11FAAE7EAD79","019cf05a-461a-754a-9e39-cc6aba6dda95","019ceff9-9f67-7034-9722-02cda2445e09","","null","
                <div class=""stimulus-container"">
                    <img src=""images/schematic_sequence/supermarket_scheme/supermarket_scheme_1.png"" class=""exp-image"">
                    <div class=""question-area""></div> 
                </div>","null","","","","","","","","",""
"","","","","","html-button-response","18","328262","0.0-18.0","5DC2AD932E304BAB90DE11FAAE7EAD79","019cf05a-461a-754a-9e39-cc6aba6dda95","019ceff9-9f67-7034-9722-02cda2445e09","","1458","
                <div class=""stimulus-container"">
                    <img src=""images/schematic_sequence/supermarket_scheme/supermarket_scheme_1.png"" class=""exp-image"">
                    <div class=""question-area"">
                        <p style=""font-size: 20px; font-weight: bold; margin: 0;"">Is there a person in this image?</p>
                    </div>
                </div>","1","main_experiment_trial","1","supermarket_scheme","schematic_sequence","","","","",""
"","","","","","html-keyboard-response","19","333269","0.0-19.0","5DC2AD932E304BAB90DE11FAAE7EAD79","019cf05a-461a-754a-9e39-cc6aba6dda95","019ceff9-9f67-7034-9722-02cda2445e09","","null","
                <div class=""stimulus-container"">
                    <img src=""images/schematic_sequence/supermarket_scheme/supermarket_scheme_2.png"" class=""exp-image"">
                    <div class=""question-area""></div> 
                </div>","null","","","","","","","","",""
"","","","","","html-button-response","20","334273","0.0-20.0","5DC2AD932E304BAB90DE11FAAE7EAD79","019cf05a-461a-754a-9e39-cc6aba6dda95","019ceff9-9f67-7034-9722-02cda2445e09","","1001","
                <div class=""stimulus-container"">
                    <img src=""images/schematic_sequence/supermarket_scheme/supermarket_scheme_2.png"" class=""exp-image"">
                    <div class=""question-area"">
                        <p style=""font-size: 20px; font-weight: bold; margin: 0;"">Is there a person in this image?</p>
                    </div>
                </div>","1","main_experiment_trial","2","supermarket_scheme","schematic_sequence","","","","",""
"","","","","","html-keyboard-response","21","339282","0.0-21.0","5DC2AD932E304BAB90DE11FAAE7EAD79","019cf05a-461a-754a-9e39-cc6aba6dda95","019ceff9-9f67-7034-9722-02cda2445e09","","null","
                <div class=""stimulus-container"">
                    <img src=""images/schematic_sequence/supermarket_scheme/supermarket_scheme_3.png"" class=""exp-image"">
                    <div class=""question-area""></div> 
                </div>","null","","","","","","","","",""
"","","","","","html-button-response","22","340083","0.0-22.0","5DC2AD932E304BAB90DE11FAAE7EAD79","019cf05a-461a-754a-9e39-cc6aba6dda95","019ceff9-9f67-7034-9722-02cda2445e09","","799","
                <div class=""stimulus-container"">
                    <img src=""images/schematic_sequence/supermarket_scheme/supermarket_scheme_3.png"" class=""exp-image"">
                    <div class=""question-area"">
                        <p style=""font-size: 20px; font-weight: bold; margin: 0;"">Is there a person in this image?</p>
                    </div>
                </div>","1","main_experiment_trial","3","supermarket_scheme","schematic_sequence","","","","",""
"","","","","","html-keyboard-response","23","345097","0.0-23.0","5DC2AD932E304BAB90DE11FAAE7EAD79","019cf05a-461a-754a-9e39-cc6aba6dda95","019ceff9-9f67-7034-9722-02cda2445e09","","null","
                <div class=""stimulus-container"">
                    <img src=""images/schematic_sequence/supermarket_scheme/supermarket_scheme_4.png"" class=""exp-image"">
                    <div class=""question-area""></div> 
                </div>","null","","","","","","","","",""
"","","","","","html-button-response","24","346276","0.0-24.0","5DC2AD932E304BAB90DE11FAAE7EAD79","019cf05a-461a-754a-9e39-cc6aba6dda95","019ceff9-9f67-7034-9722-02cda2445e09","","1177","
                <div class=""stimulus-container"">
                    <img src=""images/schematic_sequence/supermarket_scheme/supermarket_scheme_4.png"" class=""exp-image"">
                    <div class=""question-area"">
                        <p style=""font-size: 20px; font-weight: bold; margin: 0;"">Is there a person in this image?</p>
                    </div>
                </div>","0","main_experiment_trial","4","supermarket_scheme","schematic_sequence","","","","",""
"","","","","","html-keyboard-response","25","351280","0.0-25.0","5DC2AD932E304BAB90DE11FAAE7EAD79","019cf05a-461a-754a-9e39-cc6aba6dda95","019ceff9-9f67-7034-9722-02cda2445e09","","null","
                <div class=""stimulus-container"">
                    <img src=""images/schematic_sequence/supermarket_scheme/supermarket_scheme_5.png"" class=""exp-image"">
                    <div class=""question-area""></div> 
                </div>","null","","","","","","","","",""
"","","","","","html-button-response","26","352089","0.0-26.0","5DC2AD932E304BAB90DE11FAAE7EAD79","019cf05a-461a-754a-9e39-cc6aba6dda95","019ceff9-9f67-7034-9722-02cda2445e09","","808","
                <div class=""stimulus-container"">
                    <img src=""images/schematic_sequence/supermarket_scheme/supermarket_scheme_5.png"" class=""exp-image"">
                    <div class=""question-area"">
                        <p style=""font-size: 20px; font-weight: bold; margin: 0;"">Is there a person in this image?</p>
                    </div>
                </div>","1","main_experiment_trial","5","supermarket_scheme","schematic_sequence","","","","",""
"","","","","","html-keyboard-response","27","357099","0.0-27.0","5DC2AD932E304BAB90DE11FAAE7EAD79","019cf05a-461a-754a-9e39-cc6aba6dda95","019ceff9-9f67-7034-9722-02cda2445e09","","null","
                <div class=""stimulus-container"">
                    <img src=""images/schematic_sequence/supermarket_scheme/supermarket_scheme_6.png"" class=""exp-image"">
                    <div class=""question-area""></div> 
                </div>","null","","","","","","","","",""
"","","","","","html-button-response","28","357933","0.0-28.0","5DC2AD932E304BAB90DE11FAAE7EAD79","019cf05a-461a-754a-9e39-cc6aba6dda95","019ceff9-9f67-7034-9722-02cda2445e09","","831","
                <div class=""stimulus-container"">
                    <img src=""images/schematic_sequence/supermarket_scheme/supermarket_scheme_6.png"" class=""exp-image"">
                    <div class=""question-area"">
                        <p style=""font-size: 20px; font-weight: bold; margin: 0;"">Is there a person in this image?</p>
                    </div>
                </div>","0","main_experiment_trial","6","supermarket_scheme","schematic_sequence","","","","",""
"","","","","","html-keyboard-response","29","362946","0.0-29.0","5DC2AD932E304BAB90DE11FAAE7EAD79","019cf05a-461a-754a-9e39-cc6aba6dda95","019ceff9-9f67-7034-9722-02cda2445e09","","null","
                <div class=""stimulus-container"">
                    <img src=""images/schematic_sequence/supermarket_scheme/supermarket_scheme_7.png"" class=""exp-image"">
                    <div class=""question-area""></div> 
                </div>","null","","","","","","","","",""
"","","","","","html-button-response","30","363749","0.0-30.0","5DC2AD932E304BAB90DE11FAAE7EAD79","019cf05a-461a-754a-9e39-cc6aba6dda95","019ceff9-9f67-7034-9722-02cda2445e09","","801","
                <div class=""stimulus-container"">
                    <img src=""images/schematic_sequence/supermarket_scheme/supermarket_scheme_7.png"" class=""exp-image"">
                    <div class=""question-area"">
                        <p style=""font-size: 20px; font-weight: bold; margin: 0;"">Is there a person in this image?</p>
                    </div>
                </div>","0","main_experiment_trial","7","supermarket_scheme","schematic_sequence","","","","",""
"","","","","","html-keyboard-response","31","368753","0.0-31.0","5DC2AD932E304BAB90DE11FAAE7EAD79","019cf05a-461a-754a-9e39-cc6aba6dda95","019ceff9-9f67-7034-9722-02cda2445e09","","null","
                <div class=""stimulus-container"">
                    <img src=""images/schematic_sequence/supermarket_scheme/supermarket_scheme_8.png"" class=""exp-image"">
                    <div class=""question-area""></div> 
                </div>","null","","","","","","","","",""
"","","","","","html-button-response","32","369795","0.0-32.0","5DC2AD932E304BAB90DE11FAAE7EAD79","019cf05a-461a-754a-9e39-cc6aba6dda95","019ceff9-9f67-7034-9722-02cda2445e09","","1040","
                <div class=""stimulus-container"">
                    <img src=""images/schematic_sequence/supermarket_scheme/supermarket_scheme_8.png"" class=""exp-image"">
                    <div class=""question-area"">
                        <p style=""font-size: 20px; font-weight: bold; margin: 0;"">Is there a person in this image?</p>
                    </div>
                </div>","0","main_experiment_trial","8","supermarket_scheme","schematic_sequence","","","","",""
"","","","","","html-keyboard-response","33","374799","0.0-33.0","5DC2AD932E304BAB90DE11FAAE7EAD79","019cf05a-461a-754a-9e39-cc6aba6dda95","019ceff9-9f67-7034-9722-02cda2445e09","","null","
                <div class=""stimulus-container"">
                    <img src=""images/schematic_sequence/supermarket_scheme/supermarket_scheme_9.png"" class=""exp-image"">
                    <div class=""question-area""></div> 
                </div>","null","","","","","","","","",""
"","","","","","html-button-response","34","375652","0.0-34.0","5DC2AD932E304BAB90DE11FAAE7EAD79","019cf05a-461a-754a-9e39-cc6aba6dda95","019ceff9-9f67-7034-9722-02cda2445e09","","851","
                <div class=""stimulus-container"">
                    <img src=""images/schematic_sequence/supermarket_scheme/supermarket_scheme_9.png"" class=""exp-image"">
                    <div class=""question-area"">
                        <p style=""font-size: 20px; font-weight: bold; margin: 0;"">Is there a person in this image?</p>
                    </div>
                </div>","0","main_experiment_trial","9","supermarket_scheme","schematic_sequence","","","","",""
"","","","","","html-keyboard-response","35","380664","0.0-35.0","5DC2AD932E304BAB90DE11FAAE7EAD79","019cf05a-461a-754a-9e39-cc6aba6dda95","019ceff9-9f67-7034-9722-02cda2445e09","","null","
                <div class=""stimulus-container"">
                    <img src=""images/schematic_sequence/supermarket_scheme/supermarket_scheme_ten.png"" class=""exp-image"">
                    <div class=""question-area""></div> 
                </div>","null","","","","","","","","",""
"","","","","","html-button-response","36","381416","0.0-36.0","5DC2AD932E304BAB90DE11FAAE7EAD79","019cf05a-461a-754a-9e39-cc6aba6dda95","019ceff9-9f67-7034-9722-02cda2445e09","","751","
                <div class=""stimulus-container"">
                    <img src=""images/schematic_sequence/supermarket_scheme/supermarket_scheme_ten.png"" class=""exp-image"">
                    <div class=""question-area"">
                        <p style=""font-size: 20px; font-weight: bold; margin: 0;"">Is there a person in this image?</p>
                    </div>
                </div>","1","main_experiment_trial","ten","supermarket_scheme","schematic_sequence","","","","",""
"","","","","","html-keyboard-response","37","382418","0.0-37.0","5DC2AD932E304BAB90DE11FAAE7EAD79","019cf05a-461a-754a-9e39-cc6aba6dda95","019ceff9-9f67-7034-9722-02cda2445e09","","null","<div style=""background-color: white; width: 100vw; height: 100vh;""></div>","null","","","","","","","","",""
"","","","","","html-keyboard-response","38","387434","0.0-38.0","5DC2AD932E304BAB90DE11FAAE7EAD79","019cf05a-461a-754a-9e39-cc6aba6dda95","019ceff9-9f67-7034-9722-02cda2445e09","","null","
                <div class=""stimulus-container"">
                    <img src=""images/schematic_sequence/hotel_scheme/hotel_scheme_1.png"" class=""exp-image"">
                    <div class=""question-area""></div> 
                </div>","null","","","","","","","","",""
"","","","","","html-button-response","39","389079","0.0-39.0","5DC2AD932E304BAB90DE11FAAE7EAD79","019cf05a-461a-754a-9e39-cc6aba6dda95","019ceff9-9f67-7034-9722-02cda2445e09","","1643","
                <div class=""stimulus-container"">
                    <img src=""images/schematic_sequence/hotel_scheme/hotel_scheme_1.png"" class=""exp-image"">
                    <div class=""question-area"">
                        <p style=""font-size: 20px; font-weight: bold; margin: 0;"">Is there a person in this image?</p>
                    </div>
                </div>","1","main_experiment_trial","1","hotel_scheme","schematic_sequence","","","","",""
"","","","","","html-keyboard-response","40","394084","0.0-40.0","5DC2AD932E304BAB90DE11FAAE7EAD79","019cf05a-461a-754a-9e39-cc6aba6dda95","019ceff9-9f67-7034-9722-02cda2445e09","","null","
                <div class=""stimulus-container"">
                    <img src=""images/schematic_sequence/hotel_scheme/hotel_scheme_2.png"" class=""exp-image"">
                    <div class=""question-area""></div> 
                </div>","null","","","","","","","","",""
"","","","","","html-button-response","41","395055","0.0-41.0","5DC2AD932E304BAB90DE11FAAE7EAD79","019cf05a-461a-754a-9e39-cc6aba6dda95","019ceff9-9f67-7034-9722-02cda2445e09","","968","
                <div class=""stimulus-container"">
                    <img src=""images/schematic_sequence/hotel_scheme/hotel_scheme_2.png"" class=""exp-image"">
                    <div class=""question-area"">
                        <p style=""font-size: 20px; font-weight: bold; margin: 0;"">Is there a person in this image?</p>
                    </div>
                </div>","0","main_experiment_trial","2","hotel_scheme","schematic_sequence","","","","",""
"","","","","","html-keyboard-response","42","400059","0.0-42.0","5DC2AD932E304BAB90DE11FAAE7EAD79","019cf05a-461a-754a-9e39-cc6aba6dda95","019ceff9-9f67-7034-9722-02cda2445e09","","null","
                <div class=""stimulus-container"">
                    <img src=""images/schematic_sequence/hotel_scheme/hotel_scheme_3.png"" class=""exp-image"">
                    <div class=""question-area""></div> 
                </div>","null","","","","","","","","",""
"","","","","","html-button-response","43","400900","0.0-43.0","5DC2AD932E304BAB90DE11FAAE7EAD79","019cf05a-461a-754a-9e39-cc6aba6dda95","019ceff9-9f67-7034-9722-02cda2445e09","","839","
                <div class=""stimulus-container"">
                    <img src=""images/schematic_sequence/hotel_scheme/hotel_scheme_3.png"" class=""exp-image"">
                    <div class=""question-area"">
                        <p style=""font-size: 20px; font-weight: bold; margin: 0;"">Is there a person in this image?</p>
                    </div>
                </div>","0","main_experiment_trial","3","hotel_scheme","schematic_sequence","","","","",""
"","","","","","html-keyboard-response","44","405913","0.0-44.0","5DC2AD932E304BAB90DE11FAAE7EAD79","019cf05a-461a-754a-9e39-cc6aba6dda95","019ceff9-9f67-7034-9722-02cda2445e09","","null","
                <div class=""stimulus-container"">
                    <img src=""images/schematic_sequence/hotel_scheme/hotel_scheme_4.png"" class=""exp-image"">
                    <div class=""question-area""></div> 
                </div>","null","","","","","","","","",""
"","","","","","html-button-response","45","406714","0.0-45.0","5DC2AD932E304BAB90DE11FAAE7EAD79","019cf05a-461a-754a-9e39-cc6aba6dda95","019ceff9-9f67-7034-9722-02cda2445e09","","798","
                <div class=""stimulus-container"">
                    <img src=""images/schematic_sequence/hotel_scheme/hotel_scheme_4.png"" class=""exp-image"">
                    <div class=""question-area"">
                        <p style=""font-size: 20px; font-weight: bold; margin: 0;"">Is there a person in this image?</p>
                    </div>
                </div>","1","main_experiment_trial","4","hotel_scheme","schematic_sequence","","","","",""
"","","","","","html-keyboard-response","46","411730","0.0-46.0","5DC2AD932E304BAB90DE11FAAE7EAD79","019cf05a-461a-754a-9e39-cc6aba6dda95","019ceff9-9f67-7034-9722-02cda2445e09","","null","
                <div class=""stimulus-container"">
                    <img src=""images/schematic_sequence/hotel_scheme/hotel_scheme_5.png"" class=""exp-image"">
                    <div class=""question-area""></div> 
                </div>","null","","","","","","","","",""
"","","","","","html-button-response","47","412557","0.0-47.0","5DC2AD932E304BAB90DE11FAAE7EAD79","019cf05a-461a-754a-9e39-cc6aba6dda95","019ceff9-9f67-7034-9722-02cda2445e09","","825","
                <div class=""stimulus-container"">
                    <img src=""images/schematic_sequence/hotel_scheme/hotel_scheme_5.png"" class=""exp-image"">
                    <div class=""question-area"">
                        <p style=""font-size: 20px; font-weight: bold; margin: 0;"">Is there a person in this image?</p>
                    </div>
                </div>","0","main_experiment_trial","5","hotel_scheme","schematic_sequence","","","","",""
"","","","","","html-keyboard-response","48","417562","0.0-48.0","5DC2AD932E304BAB90DE11FAAE7EAD79","019cf05a-461a-754a-9e39-cc6aba6dda95","019ceff9-9f67-7034-9722-02cda2445e09","","null","
                <div class=""stimulus-container"">
                    <img src=""images/schematic_sequence/hotel_scheme/hotel_scheme_6.png"" class=""exp-image"">
                    <div class=""question-area""></div> 
                </div>","null","","","","","","","","",""
"","","","","","html-button-response","49","418865","0.0-49.0","5DC2AD932E304BAB90DE11FAAE7EAD79","019cf05a-461a-754a-9e39-cc6aba6dda95","019ceff9-9f67-7034-9722-02cda2445e09","","1301","
                <div class=""stimulus-container"">
                    <img src=""images/schematic_sequence/hotel_scheme/hotel_scheme_6.png"" class=""exp-image"">
                    <div class=""question-area"">
                        <p style=""font-size: 20px; font-weight: bold; margin: 0;"">Is there a person in this image?</p>
                    </div>
                </div>","0","main_experiment_trial","6","hotel_scheme","schematic_sequence","","","","",""
"","","","","","html-keyboard-response","50","423877","0.0-50.0","5DC2AD932E304BAB90DE11FAAE7EAD79","019cf05a-461a-754a-9e39-cc6aba6dda95","019ceff9-9f67-7034-9722-02cda2445e09","","null","
                <div class=""stimulus-container"">
                    <img src=""images/schematic_sequence/hotel_scheme/hotel_scheme_7.png"" class=""exp-image"">
                    <div class=""question-area""></div> 
                </div>","null","","","","","","","","",""
"","","","","","html-button-response","51","424663","0.0-51.0","5DC2AD932E304BAB90DE11FAAE7EAD79","019cf05a-461a-754a-9e39-cc6aba6dda95","019ceff9-9f67-7034-9722-02cda2445e09","","785","
                <div class=""stimulus-container"">
                    <img src=""images/schematic_sequence/hotel_scheme/hotel_scheme_7.png"" class=""exp-image"">
                    <div class=""question-area"">
                        <p style=""font-size: 20px; font-weight: bold; margin: 0;"">Is there a person in this image?</p>
                    </div>
                </div>","0","main_experiment_trial","7","hotel_scheme","schematic_sequence","","","","",""
"","","","","","html-keyboard-response","52","429682","0.0-52.0","5DC2AD932E304BAB90DE11FAAE7EAD79","019cf05a-461a-754a-9e39-cc6aba6dda95","019ceff9-9f67-7034-9722-02cda2445e09","","null","
                <div class=""stimulus-container"">
                    <img src=""images/schematic_sequence/hotel_scheme/hotel_scheme_8.png"" class=""exp-image"">
                    <div class=""question-area""></div> 
                </div>","null","","","","","","","","",""
"","","","","","html-button-response","53","430642","0.0-53.0","5DC2AD932E304BAB90DE11FAAE7EAD79","019cf05a-461a-754a-9e39-cc6aba6dda95","019ceff9-9f67-7034-9722-02cda2445e09","","958","
                <div class=""stimulus-container"">
                    <img src=""images/schematic_sequence/hotel_scheme/hotel_scheme_8.png"" class=""exp-image"">
                    <div class=""question-area"">
                        <p style=""font-size: 20px; font-weight: bold; margin: 0;"">Is there a person in this image?</p>
                    </div>
                </div>","0","main_experiment_trial","8","hotel_scheme","schematic_sequence","","","","",""
"","","","","","html-keyboard-response","54","435646","0.0-54.0","5DC2AD932E304BAB90DE11FAAE7EAD79","019cf05a-461a-754a-9e39-cc6aba6dda95","019ceff9-9f67-7034-9722-02cda2445e09","","null","
                <div class=""stimulus-container"">
                    <img src=""images/schematic_sequence/hotel_scheme/hotel_scheme_9.png"" class=""exp-image"">
                    <div class=""question-area""></div> 
                </div>","null","","","","","","","","",""
"","","","","","html-button-response","55","436753","0.0-55.0","5DC2AD932E304BAB90DE11FAAE7EAD79","019cf05a-461a-754a-9e39-cc6aba6dda95","019ceff9-9f67-7034-9722-02cda2445e09","","1104","
                <div class=""stimulus-container"">
                    <img src=""images/schematic_sequence/hotel_scheme/hotel_scheme_9.png"" class=""exp-image"">
                    <div class=""question-area"">
                        <p style=""font-size: 20px; font-weight: bold; margin: 0;"">Is there a person in this image?</p>
                    </div>
                </div>","0","main_experiment_trial","9","hotel_scheme","schematic_sequence","","","","",""
"","","","","","html-keyboard-response","56","441763","0.0-56.0","5DC2AD932E304BAB90DE11FAAE7EAD79","019cf05a-461a-754a-9e39-cc6aba6dda95","019ceff9-9f67-7034-9722-02cda2445e09","","null","
                <div class=""stimulus-container"">
                    <img src=""images/schematic_sequence/hotel_scheme/hotel_scheme_ten.png"" class=""exp-image"">
                    <div class=""question-area""></div> 
                </div>","null","","","","","","","","",""
"","","","","","html-button-response","57","442682","0.0-57.0","5DC2AD932E304BAB90DE11FAAE7EAD79","019cf05a-461a-754a-9e39-cc6aba6dda95","019ceff9-9f67-7034-9722-02cda2445e09","","917","
                <div class=""stimulus-container"">
                    <img src=""images/schematic_sequence/hotel_scheme/hotel_scheme_ten.png"" class=""exp-image"">
                    <div class=""question-area"">
                        <p style=""font-size: 20px; font-weight: bold; margin: 0;"">Is there a person in this image?</p>
                    </div>
                </div>","0","main_experiment_trial","ten","hotel_scheme","schematic_sequence","","","","",""
"","","","","","html-keyboard-response","58","443693","0.0-58.0","5DC2AD932E304BAB90DE11FAAE7EAD79","019cf05a-461a-754a-9e39-cc6aba6dda95","019ceff9-9f67-7034-9722-02cda2445e09","","null","<div style=""background-color: white; width: 100vw; height: 100vh;""></div>","null","","","","","","","","",""
"","","","","","html-keyboard-response","59","448709","0.0-59.0","5DC2AD932E304BAB90DE11FAAE7EAD79","019cf05a-461a-754a-9e39-cc6aba6dda95","019ceff9-9f67-7034-9722-02cda2445e09","","null","
                <div class=""stimulus-container"">
                    <img src=""images/causal_sequence/museum_causal/museum_causal_1.png"" class=""exp-image"">
                    <div class=""question-area""></div> 
                </div>","null","","","","","","","","",""
"","","","","","html-button-response","60","449560","0.0-60.0","5DC2AD932E304BAB90DE11FAAE7EAD79","019cf05a-461a-754a-9e39-cc6aba6dda95","019ceff9-9f67-7034-9722-02cda2445e09","","848","
                <div class=""stimulus-container"">
                    <img src=""images/causal_sequence/museum_causal/museum_causal_1.png"" class=""exp-image"">
                    <div class=""question-area"">
                        <p style=""font-size: 20px; font-weight: bold; margin: 0;"">Is there a person in this image?</p>
                    </div>
                </div>","0","main_experiment_trial","1","museum_causal","causal_sequence","","","","",""
"","","","","","html-keyboard-response","61","454573","0.0-61.0","5DC2AD932E304BAB90DE11FAAE7EAD79","019cf05a-461a-754a-9e39-cc6aba6dda95","019ceff9-9f67-7034-9722-02cda2445e09","","null","
                <div class=""stimulus-container"">
                    <img src=""images/causal_sequence/museum_causal/museum_causal_2.png"" class=""exp-image"">
                    <div class=""question-area""></div> 
                </div>","null","","","","","","","","",""
"","","","","","html-button-response","62","455644","0.0-62.0","5DC2AD932E304BAB90DE11FAAE7EAD79","019cf05a-461a-754a-9e39-cc6aba6dda95","019ceff9-9f67-7034-9722-02cda2445e09","","1067","
                <div class=""stimulus-container"">
                    <img src=""images/causal_sequence/museum_causal/museum_causal_2.png"" class=""exp-image"">
                    <div class=""question-area"">
                        <p style=""font-size: 20px; font-weight: bold; margin: 0;"">Is there a person in this image?</p>
                    </div>
                </div>","0","main_experiment_trial","2","museum_causal","causal_sequence","","","","",""
"","","","","","html-keyboard-response","63","460655","0.0-63.0","5DC2AD932E304BAB90DE11FAAE7EAD79","019cf05a-461a-754a-9e39-cc6aba6dda95","019ceff9-9f67-7034-9722-02cda2445e09","","null","
                <div class=""stimulus-container"">
                    <img src=""images/causal_sequence/museum_causal/museum_causal_3.png"" class=""exp-image"">
                    <div class=""question-area""></div> 
                </div>","null","","","","","","","","",""
"","","","","","html-button-response","64","461724","0.0-64.0","5DC2AD932E304BAB90DE11FAAE7EAD79","019cf05a-461a-754a-9e39-cc6aba6dda95","019ceff9-9f67-7034-9722-02cda2445e09","","1067","
                <div class=""stimulus-container"">
                    <img src=""images/causal_sequence/museum_causal/museum_causal_3.png"" class=""exp-image"">
                    <div class=""question-area"">
                        <p style=""font-size: 20px; font-weight: bold; margin: 0;"">Is there a person in this image?</p>
                    </div>
                </div>","0","main_experiment_trial","3","museum_causal","causal_sequence","","","","",""
"","","","","","html-keyboard-response","65","466729","0.0-65.0","5DC2AD932E304BAB90DE11FAAE7EAD79","019cf05a-461a-754a-9e39-cc6aba6dda95","019ceff9-9f67-7034-9722-02cda2445e09","","null","
                <div class=""stimulus-container"">
                    <img src=""images/causal_sequence/museum_causal/museum_causal_4.png"" class=""exp-image"">
                    <div class=""question-area""></div> 
                </div>","null","","","","","","","","",""
"","","","","","html-button-response","66","467497","0.0-66.0","5DC2AD932E304BAB90DE11FAAE7EAD79","019cf05a-461a-754a-9e39-cc6aba6dda95","019ceff9-9f67-7034-9722-02cda2445e09","","765","
                <div class=""stimulus-container"">
                    <img src=""images/causal_sequence/museum_causal/museum_causal_4.png"" class=""exp-image"">
                    <div class=""question-area"">
                        <p style=""font-size: 20px; font-weight: bold; margin: 0;"">Is there a person in this image?</p>
                    </div>
                </div>","1","main_experiment_trial","4","museum_causal","causal_sequence","","","","",""
"","","","","","html-keyboard-response","67","472515","0.0-67.0","5DC2AD932E304BAB90DE11FAAE7EAD79","019cf05a-461a-754a-9e39-cc6aba6dda95","019ceff9-9f67-7034-9722-02cda2445e09","","null","
                <div class=""stimulus-container"">
                    <img src=""images/causal_sequence/museum_causal/museum_causal_5.png"" class=""exp-image"">
                    <div class=""question-area""></div> 
                </div>","null","","","","","","","","",""
"","","","","","html-button-response","68","473349","0.0-68.0","5DC2AD932E304BAB90DE11FAAE7EAD79","019cf05a-461a-754a-9e39-cc6aba6dda95","019ceff9-9f67-7034-9722-02cda2445e09","","832","
                <div class=""stimulus-container"">
                    <img src=""images/causal_sequence/museum_causal/museum_causal_5.png"" class=""exp-image"">
                    <div class=""question-area"">
                        <p style=""font-size: 20px; font-weight: bold; margin: 0;"">Is there a person in this image?</p>
                    </div>
                </div>","0","main_experiment_trial","5","museum_causal","causal_sequence","","","","",""
"","","","","","html-keyboard-response","69","478364","0.0-69.0","5DC2AD932E304BAB90DE11FAAE7EAD79","019cf05a-461a-754a-9e39-cc6aba6dda95","019ceff9-9f67-7034-9722-02cda2445e09","","null","
                <div class=""stimulus-container"">
                    <img src=""images/causal_sequence/museum_causal/museum_causal_6.png"" class=""exp-image"">
                    <div class=""question-area""></div> 
                </div>","null","","","","","","","","",""
"","","","","","html-button-response","70","479186","0.0-70.0","5DC2AD932E304BAB90DE11FAAE7EAD79","019cf05a-461a-754a-9e39-cc6aba6dda95","019ceff9-9f67-7034-9722-02cda2445e09","","820","
                <div class=""stimulus-container"">
                    <img src=""images/causal_sequence/museum_causal/museum_causal_6.png"" class=""exp-image"">
                    <div class=""question-area"">
                        <p style=""font-size: 20px; font-weight: bold; margin: 0;"">Is there a person in this image?</p>
                    </div>
                </div>","0","main_experiment_trial","6","museum_causal","causal_sequence","","","","",""
"","","","","","html-keyboard-response","71","484196","0.0-71.0","5DC2AD932E304BAB90DE11FAAE7EAD79","019cf05a-461a-754a-9e39-cc6aba6dda95","019ceff9-9f67-7034-9722-02cda2445e09","","null","
                <div class=""stimulus-container"">
                    <img src=""images/causal_sequence/museum_causal/museum_causal_7.png"" class=""exp-image"">
                    <div class=""question-area""></div> 
                </div>","null","","","","","","","","",""
"","","","","","html-button-response","72","485032","0.0-72.0","5DC2AD932E304BAB90DE11FAAE7EAD79","019cf05a-461a-754a-9e39-cc6aba6dda95","019ceff9-9f67-7034-9722-02cda2445e09","","833","
                <div class=""stimulus-container"">
                    <img src=""images/causal_sequence/museum_causal/museum_causal_7.png"" class=""exp-image"">
                    <div class=""question-area"">
                        <p style=""font-size: 20px; font-weight: bold; margin: 0;"">Is there a person in this image?</p>
                    </div>
                </div>","1","main_experiment_trial","7","museum_causal","causal_sequence","","","","",""
"","","","","","html-keyboard-response","73","490040","0.0-73.0","5DC2AD932E304BAB90DE11FAAE7EAD79","019cf05a-461a-754a-9e39-cc6aba6dda95","019ceff9-9f67-7034-9722-02cda2445e09","","null","
                <div class=""stimulus-container"">
                    <img src=""images/causal_sequence/museum_causal/museum_causal_8.png"" class=""exp-image"">
                    <div class=""question-area""></div> 
                </div>","null","","","","","","","","",""
"","","","","","html-button-response","74","490862","0.0-74.0","5DC2AD932E304BAB90DE11FAAE7EAD79","019cf05a-461a-754a-9e39-cc6aba6dda95","019ceff9-9f67-7034-9722-02cda2445e09","","819","
                <div class=""stimulus-container"">
                    <img src=""images/causal_sequence/museum_causal/museum_causal_8.png"" class=""exp-image"">
                    <div class=""question-area"">
                        <p style=""font-size: 20px; font-weight: bold; margin: 0;"">Is there a person in this image?</p>
                    </div>
                </div>","0","main_experiment_trial","8","museum_causal","causal_sequence","","","","",""
"","","","","","html-keyboard-response","75","495874","0.0-75.0","5DC2AD932E304BAB90DE11FAAE7EAD79","019cf05a-461a-754a-9e39-cc6aba6dda95","019ceff9-9f67-7034-9722-02cda2445e09","","null","
                <div class=""stimulus-container"">
                    <img src=""images/causal_sequence/museum_causal/museum_causal_9.png"" class=""exp-image"">
                    <div class=""question-area""></div> 
                </div>","null","","","","","","","","",""
"","","","","","html-button-response","76","497423","0.0-76.0","5DC2AD932E304BAB90DE11FAAE7EAD79","019cf05a-461a-754a-9e39-cc6aba6dda95","019ceff9-9f67-7034-9722-02cda2445e09","","1545","
                <div class=""stimulus-container"">
                    <img src=""images/causal_sequence/museum_causal/museum_causal_9.png"" class=""exp-image"">
                    <div class=""question-area"">
                        <p style=""font-size: 20px; font-weight: bold; margin: 0;"">Is there a person in this image?</p>
                    </div>
                </div>","1","main_experiment_trial","9","museum_causal","causal_sequence","","","","",""
"","","","","","html-keyboard-response","77","502429","0.0-77.0","5DC2AD932E304BAB90DE11FAAE7EAD79","019cf05a-461a-754a-9e39-cc6aba6dda95","019ceff9-9f67-7034-9722-02cda2445e09","","null","
                <div class=""stimulus-container"">
                    <img src=""images/causal_sequence/museum_causal/museum_causal_ten.png"" class=""exp-image"">
                    <div class=""question-area""></div> 
                </div>","null","","","","","","","","",""
"","","","","","html-button-response","78","503817","0.0-78.0","5DC2AD932E304BAB90DE11FAAE7EAD79","019cf05a-461a-754a-9e39-cc6aba6dda95","019ceff9-9f67-7034-9722-02cda2445e09","","1385","
                <div class=""stimulus-container"">
                    <img src=""images/causal_sequence/museum_causal/museum_causal_ten.png"" class=""exp-image"">
                    <div class=""question-area"">
                        <p style=""font-size: 20px; font-weight: bold; margin: 0;"">Is there a person in this image?</p>
                    </div>
                </div>","0","main_experiment_trial","ten","museum_causal","causal_sequence","","","","",""
"","","","","","html-keyboard-response","79","504832","0.0-79.0","5DC2AD932E304BAB90DE11FAAE7EAD79","019cf05a-461a-754a-9e39-cc6aba6dda95","019ceff9-9f67-7034-9722-02cda2445e09","","null","<div style=""background-color: white; width: 100vw; height: 100vh;""></div>","null","","","","","","","","",""
"","","","","","html-keyboard-response","80","509844","0.0-80.0","5DC2AD932E304BAB90DE11FAAE7EAD79","019cf05a-461a-754a-9e39-cc6aba6dda95","019ceff9-9f67-7034-9722-02cda2445e09","","null","
                <div class=""stimulus-container"">
                    <img src=""images/schematic_sequence/restaurant_scheme/restaurant_scheme_1.png"" class=""exp-image"">
                    <div class=""question-area""></div> 
                </div>","null","","","","","","","","",""
"","","","","","html-button-response","81","511772","0.0-81.0","5DC2AD932E304BAB90DE11FAAE7EAD79","019cf05a-461a-754a-9e39-cc6aba6dda95","019ceff9-9f67-7034-9722-02cda2445e09","","1927","
                <div class=""stimulus-container"">
                    <img src=""images/schematic_sequence/restaurant_scheme/restaurant_scheme_1.png"" class=""exp-image"">
                    <div class=""question-area"">
                        <p style=""font-size: 20px; font-weight: bold; margin: 0;"">Is there a person in this image?</p>
                    </div>
                </div>","0","main_experiment_trial","1","restaurant_scheme","schematic_sequence","","","","",""
"","","","","","html-keyboard-response","82","516777","0.0-82.0","5DC2AD932E304BAB90DE11FAAE7EAD79","019cf05a-461a-754a-9e39-cc6aba6dda95","019ceff9-9f67-7034-9722-02cda2445e09","","null","
                <div class=""stimulus-container"">
                    <img src=""images/schematic_sequence/restaurant_scheme/restaurant_scheme_2.png"" class=""exp-image"">
                    <div class=""question-area""></div> 
                </div>","null","","","","","","","","",""
"","","","","","html-button-response","83","517968","0.0-83.0","5DC2AD932E304BAB90DE11FAAE7EAD79","019cf05a-461a-754a-9e39-cc6aba6dda95","019ceff9-9f67-7034-9722-02cda2445e09","","1190","
                <div class=""stimulus-container"">
                    <img src=""images/schematic_sequence/restaurant_scheme/restaurant_scheme_2.png"" class=""exp-image"">
                    <div class=""question-area"">
                        <p style=""font-size: 20px; font-weight: bold; margin: 0;"">Is there a person in this image?</p>
                    </div>
                </div>","1","main_experiment_trial","2","restaurant_scheme","schematic_sequence","","","","",""
"","","","","","html-keyboard-response","84","522984","0.0-84.0","5DC2AD932E304BAB90DE11FAAE7EAD79","019cf05a-461a-754a-9e39-cc6aba6dda95","019ceff9-9f67-7034-9722-02cda2445e09","","null","
                <div class=""stimulus-container"">
                    <img src=""images/schematic_sequence/restaurant_scheme/restaurant_scheme_3.png"" class=""exp-image"">
                    <div class=""question-area""></div> 
                </div>","null","","","","","","","","",""
"","","","","","html-button-response","85","524148","0.0-85.0","5DC2AD932E304BAB90DE11FAAE7EAD79","019cf05a-461a-754a-9e39-cc6aba6dda95","019ceff9-9f67-7034-9722-02cda2445e09","","1162","
                <div class=""stimulus-container"">
                    <img src=""images/schematic_sequence/restaurant_scheme/restaurant_scheme_3.png"" class=""exp-image"">
                    <div class=""question-area"">
                        <p style=""font-size: 20px; font-weight: bold; margin: 0;"">Is there a person in this image?</p>
                    </div>
                </div>","1","main_experiment_trial","3","restaurant_scheme","schematic_sequence","","","","",""
"","","","","","html-keyboard-response","86","529150","0.0-86.0","5DC2AD932E304BAB90DE11FAAE7EAD79","019cf05a-461a-754a-9e39-cc6aba6dda95","019ceff9-9f67-7034-9722-02cda2445e09","","null","
                <div class=""stimulus-container"">
                    <img src=""images/schematic_sequence/restaurant_scheme/restaurant_scheme_4.png"" class=""exp-image"">
                    <div class=""question-area""></div> 
                </div>","null","","","","","","","","",""
"","","","","","html-button-response","87","530303","0.0-87.0","5DC2AD932E304BAB90DE11FAAE7EAD79","019cf05a-461a-754a-9e39-cc6aba6dda95","019ceff9-9f67-7034-9722-02cda2445e09","","1151","
                <div class=""stimulus-container"">
                    <img src=""images/schematic_sequence/restaurant_scheme/restaurant_scheme_4.png"" class=""exp-image"">
                    <div class=""question-area"">
                        <p style=""font-size: 20px; font-weight: bold; margin: 0;"">Is there a person in this image?</p>
                    </div>
                </div>","0","main_experiment_trial","4","restaurant_scheme","schematic_sequence","","","","",""
"","","","","","html-keyboard-response","88","535318","0.0-88.0","5DC2AD932E304BAB90DE11FAAE7EAD79","019cf05a-461a-754a-9e39-cc6aba6dda95","019ceff9-9f67-7034-9722-02cda2445e09","","null","
                <div class=""stimulus-container"">
                    <img src=""images/schematic_sequence/restaurant_scheme/restaurant_scheme_5.png"" class=""exp-image"">
                    <div class=""question-area""></div> 
                </div>","null","","","","","","","","",""
"","","","","","html-button-response","89","536572","0.0-89.0","5DC2AD932E304BAB90DE11FAAE7EAD79","019cf05a-461a-754a-9e39-cc6aba6dda95","019ceff9-9f67-7034-9722-02cda2445e09","","1252","
                <div class=""stimulus-container"">
                    <img src=""images/schematic_sequence/restaurant_scheme/restaurant_scheme_5.png"" class=""exp-image"">
                    <div class=""question-area"">
                        <p style=""font-size: 20px; font-weight: bold; margin: 0;"">Is there a person in this image?</p>
                    </div>
                </div>","0","main_experiment_trial","5","restaurant_scheme","schematic_sequence","","","","",""
"","","","","","html-keyboard-response","90","541580","0.0-90.0","5DC2AD932E304BAB90DE11FAAE7EAD79","019cf05a-461a-754a-9e39-cc6aba6dda95","019ceff9-9f67-7034-9722-02cda2445e09","","null","
                <div class=""stimulus-container"">
                    <img src=""images/schematic_sequence/restaurant_scheme/restaurant_scheme_6.png"" class=""exp-image"">
                    <div class=""question-area""></div> 
                </div>","null","","","","","","","","",""
"","","","","","html-button-response","91","542816","0.0-91.0","5DC2AD932E304BAB90DE11FAAE7EAD79","019cf05a-461a-754a-9e39-cc6aba6dda95","019ceff9-9f67-7034-9722-02cda2445e09","","1233","
                <div class=""stimulus-container"">
                    <img src=""images/schematic_sequence/restaurant_scheme/restaurant_scheme_6.png"" class=""exp-image"">
                    <div class=""question-area"">
                        <p style=""font-size: 20px; font-weight: bold; margin: 0;"">Is there a person in this image?</p>
                    </div>
                </div>","1","main_experiment_trial","6","restaurant_scheme","schematic_sequence","","","","",""
"","","","","","html-keyboard-response","92","547826","0.0-92.0","5DC2AD932E304BAB90DE11FAAE7EAD79","019cf05a-461a-754a-9e39-cc6aba6dda95","019ceff9-9f67-7034-9722-02cda2445e09","","null","
                <div class=""stimulus-container"">
                    <img src=""images/schematic_sequence/restaurant_scheme/restaurant_scheme_7.png"" class=""exp-image"">
                    <div class=""question-area""></div> 
                </div>","null","","","","","","","","",""
"","","","","","html-button-response","93","549045","0.0-93.0","5DC2AD932E304BAB90DE11FAAE7EAD79","019cf05a-461a-754a-9e39-cc6aba6dda95","019ceff9-9f67-7034-9722-02cda2445e09","","1216","
                <div class=""stimulus-container"">
                    <img src=""images/schematic_sequence/restaurant_scheme/restaurant_scheme_7.png"" class=""exp-image"">
                    <div class=""question-area"">
                        <p style=""font-size: 20px; font-weight: bold; margin: 0;"">Is there a person in this image?</p>
                    </div>
                </div>","1","main_experiment_trial","7","restaurant_scheme","schematic_sequence","","","","",""
"","","","","","html-keyboard-response","94","554047","0.0-94.0","5DC2AD932E304BAB90DE11FAAE7EAD79","019cf05a-461a-754a-9e39-cc6aba6dda95","019ceff9-9f67-7034-9722-02cda2445e09","","null","
                <div class=""stimulus-container"">
                    <img src=""images/schematic_sequence/restaurant_scheme/restaurant_scheme_8.png"" class=""exp-image"">
                    <div class=""question-area""></div> 
                </div>","null","","","","","","","","",""
"","","","","","html-button-response","95","554846","0.0-95.0","5DC2AD932E304BAB90DE11FAAE7EAD79","019cf05a-461a-754a-9e39-cc6aba6dda95","019ceff9-9f67-7034-9722-02cda2445e09","","796","
                <div class=""stimulus-container"">
                    <img src=""images/schematic_sequence/restaurant_scheme/restaurant_scheme_8.png"" class=""exp-image"">
                    <div class=""question-area"">
                        <p style=""font-size: 20px; font-weight: bold; margin: 0;"">Is there a person in this image?</p>
                    </div>
                </div>","0","main_experiment_trial","8","restaurant_scheme","schematic_sequence","","","","",""
"","","","","","html-keyboard-response","96","559850","0.0-96.0","5DC2AD932E304BAB90DE11FAAE7EAD79","019cf05a-461a-754a-9e39-cc6aba6dda95","019ceff9-9f67-7034-9722-02cda2445e09","","null","
                <div class=""stimulus-container"">
                    <img src=""images/schematic_sequence/restaurant_scheme/restaurant_scheme_9.png"" class=""exp-image"">
                    <div class=""question-area""></div> 
                </div>","null","","","","","","","","",""
"","","","","","html-button-response","97","560720","0.0-97.0","5DC2AD932E304BAB90DE11FAAE7EAD79","019cf05a-461a-754a-9e39-cc6aba6dda95","019ceff9-9f67-7034-9722-02cda2445e09","","867","
                <div class=""stimulus-container"">
                    <img src=""images/schematic_sequence/restaurant_scheme/restaurant_scheme_9.png"" class=""exp-image"">
                    <div class=""question-area"">
                        <p style=""font-size: 20px; font-weight: bold; margin: 0;"">Is there a person in this image?</p>
                    </div>
                </div>","0","main_experiment_trial","9","restaurant_scheme","schematic_sequence","","","","",""
"","","","","","html-keyboard-response","98","565729","0.0-98.0","5DC2AD932E304BAB90DE11FAAE7EAD79","019cf05a-461a-754a-9e39-cc6aba6dda95","019ceff9-9f67-7034-9722-02cda2445e09","","null","
                <div class=""stimulus-container"">
                    <img src=""images/schematic_sequence/restaurant_scheme/restaurant_scheme_ten.png"" class=""exp-image"">
                    <div class=""question-area""></div> 
                </div>","null","","","","","","","","",""
"","","","","","html-button-response","99","566581","0.0-99.0","5DC2AD932E304BAB90DE11FAAE7EAD79","019cf05a-461a-754a-9e39-cc6aba6dda95","019ceff9-9f67-7034-9722-02cda2445e09","","850","
                <div class=""stimulus-container"">
                    <img src=""images/schematic_sequence/restaurant_scheme/restaurant_scheme_ten.png"" class=""exp-image"">
                    <div class=""question-area"">
                        <p style=""font-size: 20px; font-weight: bold; margin: 0;"">Is there a person in this image?</p>
                    </div>
                </div>","0","main_experiment_trial","ten","restaurant_scheme","schematic_sequence","","","","",""
"","","","","","html-keyboard-response","100","567599","0.0-100.0","5DC2AD932E304BAB90DE11FAAE7EAD79","019cf05a-461a-754a-9e39-cc6aba6dda95","019ceff9-9f67-7034-9722-02cda2445e09","","null","<div style=""background-color: white; width: 100vw; height: 100vh;""></div>","null","","","","","","","","",""
"","","","","","html-keyboard-response","101","572600","0.0-101.0","5DC2AD932E304BAB90DE11FAAE7EAD79","019cf05a-461a-754a-9e39-cc6aba6dda95","019ceff9-9f67-7034-9722-02cda2445e09","","null","
                <div class=""stimulus-container"">
                    <img src=""images/causal_sequence/dog_causal/dog_causal_1.png"" class=""exp-image"">
                    <div class=""question-area""></div> 
                </div>","null","","","","","","","","",""
"","","","","","html-button-response","102","575614","0.0-102.0","5DC2AD932E304BAB90DE11FAAE7EAD79","019cf05a-461a-754a-9e39-cc6aba6dda95","019ceff9-9f67-7034-9722-02cda2445e09","","null","
                <div class=""stimulus-container"">
                    <img src=""images/causal_sequence/dog_causal/dog_causal_1.png"" class=""exp-image"">
                    <div class=""question-area"">
                        <p style=""font-size: 20px; font-weight: bold; margin: 0;"">Is there a person in this image?</p>
                    </div>
                </div>","null","main_experiment_trial","1","dog_causal","causal_sequence","","","","",""
"","","","","","html-keyboard-response","103","580628","0.0-103.0","5DC2AD932E304BAB90DE11FAAE7EAD79","019cf05a-461a-754a-9e39-cc6aba6dda95","019ceff9-9f67-7034-9722-02cda2445e09","","null","
                <div class=""stimulus-container"">
                    <img src=""images/causal_sequence/dog_causal/dog_causal_2.png"" class=""exp-image"">
                    <div class=""question-area""></div> 
                </div>","null","","","","","","","","",""
"","","","","","html-button-response","104","581586","0.0-104.0","5DC2AD932E304BAB90DE11FAAE7EAD79","019cf05a-461a-754a-9e39-cc6aba6dda95","019ceff9-9f67-7034-9722-02cda2445e09","","956","
                <div class=""stimulus-container"">
                    <img src=""images/causal_sequence/dog_causal/dog_causal_2.png"" class=""exp-image"">
                    <div class=""question-area"">
                        <p style=""font-size: 20px; font-weight: bold; margin: 0;"">Is there a person in this image?</p>
                    </div>
                </div>","0","main_experiment_trial","2","dog_causal","causal_sequence","","","","",""
"","","","","","html-keyboard-response","105","586590","0.0-105.0","5DC2AD932E304BAB90DE11FAAE7EAD79","019cf05a-461a-754a-9e39-cc6aba6dda95","019ceff9-9f67-7034-9722-02cda2445e09","","null","
                <div class=""stimulus-container"">
                    <img src=""images/causal_sequence/dog_causal/dog_causal_3.png"" class=""exp-image"">
                    <div class=""question-area""></div> 
                </div>","null","","","","","","","","",""
"","","","","","html-button-response","106","587530","0.0-106.0","5DC2AD932E304BAB90DE11FAAE7EAD79","019cf05a-461a-754a-9e39-cc6aba6dda95","019ceff9-9f67-7034-9722-02cda2445e09","","938","
                <div class=""stimulus-container"">
                    <img src=""images/causal_sequence/dog_causal/dog_causal_3.png"" class=""exp-image"">
                    <div class=""question-area"">
                        <p style=""font-size: 20px; font-weight: bold; margin: 0;"">Is there a person in this image?</p>
                    </div>
                </div>","0","main_experiment_trial","3","dog_causal","causal_sequence","","","","",""
"","","","","","html-keyboard-response","107","592536","0.0-107.0","5DC2AD932E304BAB90DE11FAAE7EAD79","019cf05a-461a-754a-9e39-cc6aba6dda95","019ceff9-9f67-7034-9722-02cda2445e09","","null","
                <div class=""stimulus-container"">
                    <img src=""images/causal_sequence/dog_causal/dog_causal_4.png"" class=""exp-image"">
                    <div class=""question-area""></div> 
                </div>","null","","","","","","","","",""
"","","","","","html-button-response","108","593274","0.0-108.0","5DC2AD932E304BAB90DE11FAAE7EAD79","019cf05a-461a-754a-9e39-cc6aba6dda95","019ceff9-9f67-7034-9722-02cda2445e09","","736","
                <div class=""stimulus-container"">
                    <img src=""images/causal_sequence/dog_causal/dog_causal_4.png"" class=""exp-image"">
                    <div class=""question-area"">
                        <p style=""font-size: 20px; font-weight: bold; margin: 0;"">Is there a person in this image?</p>
                    </div>
                </div>","0","main_experiment_trial","4","dog_causal","causal_sequence","","","","",""
"","","","","","html-keyboard-response","109","598277","0.0-109.0","5DC2AD932E304BAB90DE11FAAE7EAD79","019cf05a-461a-754a-9e39-cc6aba6dda95","019ceff9-9f67-7034-9722-02cda2445e09","","null","
                <div class=""stimulus-container"">
                    <img src=""images/causal_sequence/dog_causal/dog_causal_5.png"" class=""exp-image"">
                    <div class=""question-area""></div> 
                </div>","null","","","","","","","","",""
"","","","","","html-button-response","110","598843","0.0-110.0","5DC2AD932E304BAB90DE11FAAE7EAD79","019cf05a-461a-754a-9e39-cc6aba6dda95","019ceff9-9f67-7034-9722-02cda2445e09","","564","
                <div class=""stimulus-container"">
                    <img src=""images/causal_sequence/dog_causal/dog_causal_5.png"" class=""exp-image"">
                    <div class=""question-area"">
                        <p style=""font-size: 20px; font-weight: bold; margin: 0;"">Is there a person in this image?</p>
                    </div>
                </div>","0","main_experiment_trial","5","dog_causal","causal_sequence","","","","",""
"","","","","","html-keyboard-response","111","603860","0.0-111.0","5DC2AD932E304BAB90DE11FAAE7EAD79","019cf05a-461a-754a-9e39-cc6aba6dda95","019ceff9-9f67-7034-9722-02cda2445e09","","null","
                <div class=""stimulus-container"">
                    <img src=""images/causal_sequence/dog_causal/dog_causal_6.png"" class=""exp-image"">
                    <div class=""question-area""></div> 
                </div>","null","","","","","","","","",""
"","","","","","html-button-response","112","604525","0.0-112.0","5DC2AD932E304BAB90DE11FAAE7EAD79","019cf05a-461a-754a-9e39-cc6aba6dda95","019ceff9-9f67-7034-9722-02cda2445e09","","663","
                <div class=""stimulus-container"">
                    <img src=""images/causal_sequence/dog_causal/dog_causal_6.png"" class=""exp-image"">
                    <div class=""question-area"">
                        <p style=""font-size: 20px; font-weight: bold; margin: 0;"">Is there a person in this image?</p>
                    </div>
                </div>","0","main_experiment_trial","6","dog_causal","causal_sequence","","","","",""
"","","","","","html-keyboard-response","113","609540","0.0-113.0","5DC2AD932E304BAB90DE11FAAE7EAD79","019cf05a-461a-754a-9e39-cc6aba6dda95","019ceff9-9f67-7034-9722-02cda2445e09","","null","
                <div class=""stimulus-container"">
                    <img src=""images/causal_sequence/dog_causal/dog_causal_7.png"" class=""exp-image"">
                    <div class=""question-area""></div> 
                </div>","null","","","","","","","","",""
"","","","","","html-button-response","114","610246","0.0-114.0","5DC2AD932E304BAB90DE11FAAE7EAD79","019cf05a-461a-754a-9e39-cc6aba6dda95","019ceff9-9f67-7034-9722-02cda2445e09","","705","
                <div class=""stimulus-container"">
                    <img src=""images/causal_sequence/dog_causal/dog_causal_7.png"" class=""exp-image"">
                    <div class=""question-area"">
                        <p style=""font-size: 20px; font-weight: bold; margin: 0;"">Is there a person in this image?</p>
                    </div>
                </div>","0","main_experiment_trial","7","dog_causal","causal_sequence","","","","",""
"","","","","","html-keyboard-response","115","615250","0.0-115.0","5DC2AD932E304BAB90DE11FAAE7EAD79","019cf05a-461a-754a-9e39-cc6aba6dda95","019ceff9-9f67-7034-9722-02cda2445e09","","null","
                <div class=""stimulus-container"">
                    <img src=""images/causal_sequence/dog_causal/dog_causal_8.png"" class=""exp-image"">
                    <div class=""question-area""></div> 
                </div>","null","","","","","","","","",""
"","","","","","html-button-response","116","615795","0.0-116.0","5DC2AD932E304BAB90DE11FAAE7EAD79","019cf05a-461a-754a-9e39-cc6aba6dda95","019ceff9-9f67-7034-9722-02cda2445e09","","544","
                <div class=""stimulus-container"">
                    <img src=""images/causal_sequence/dog_causal/dog_causal_8.png"" class=""exp-image"">
                    <div class=""question-area"">
                        <p style=""font-size: 20px; font-weight: bold; margin: 0;"">Is there a person in this image?</p>
                    </div>
                </div>","0","main_experiment_trial","8","dog_causal","causal_sequence","","","","",""
"","","","","","html-keyboard-response","117","620796","0.0-117.0","5DC2AD932E304BAB90DE11FAAE7EAD79","019cf05a-461a-754a-9e39-cc6aba6dda95","019ceff9-9f67-7034-9722-02cda2445e09","","null","
                <div class=""stimulus-container"">
                    <img src=""images/causal_sequence/dog_causal/dog_causal_9.png"" class=""exp-image"">
                    <div class=""question-area""></div> 
                </div>","null","","","","","","","","",""
"","","","","","html-button-response","118","621491","0.0-118.0","5DC2AD932E304BAB90DE11FAAE7EAD79","019cf05a-461a-754a-9e39-cc6aba6dda95","019ceff9-9f67-7034-9722-02cda2445e09","","693","
                <div class=""stimulus-container"">
                    <img src=""images/causal_sequence/dog_causal/dog_causal_9.png"" class=""exp-image"">
                    <div class=""question-area"">
                        <p style=""font-size: 20px; font-weight: bold; margin: 0;"">Is there a person in this image?</p>
                    </div>
                </div>","0","main_experiment_trial","9","dog_causal","causal_sequence","","","","",""
"","","","","","html-keyboard-response","119","626504","0.0-119.0","5DC2AD932E304BAB90DE11FAAE7EAD79","019cf05a-461a-754a-9e39-cc6aba6dda95","019ceff9-9f67-7034-9722-02cda2445e09","","null","
                <div class=""stimulus-container"">
                    <img src=""images/causal_sequence/dog_causal/dog_causal_ten.png"" class=""exp-image"">
                    <div class=""question-area""></div> 
                </div>","null","","","","","","","","",""
"","","","","","html-button-response","120","627069","0.0-120.0","5DC2AD932E304BAB90DE11FAAE7EAD79","019cf05a-461a-754a-9e39-cc6aba6dda95","019ceff9-9f67-7034-9722-02cda2445e09","","564","
                <div class=""stimulus-container"">
                    <img src=""images/causal_sequence/dog_causal/dog_causal_ten.png"" class=""exp-image"">
                    <div class=""question-area"">
                        <p style=""font-size: 20px; font-weight: bold; margin: 0;"">Is there a person in this image?</p>
                    </div>
                </div>","0","main_experiment_trial","ten","dog_causal","causal_sequence","","","","",""
"","","","","","html-keyboard-response","121","628075","0.0-121.0","5DC2AD932E304BAB90DE11FAAE7EAD79","019cf05a-461a-754a-9e39-cc6aba6dda95","019ceff9-9f67-7034-9722-02cda2445e09","","null","<div style=""background-color: white; width: 100vw; height: 100vh;""></div>","null","","","","","","","","",""
"","","","","","html-keyboard-response","122","633080","0.0-122.0","5DC2AD932E304BAB90DE11FAAE7EAD79","019cf05a-461a-754a-9e39-cc6aba6dda95","019ceff9-9f67-7034-9722-02cda2445e09","","null","
                <div class=""stimulus-container"">
                    <img src=""images/causal_sequence/the_performance_causal/the_performance_causal_1.png"" class=""exp-image"">
                    <div class=""question-area""></div> 
                </div>","null","","","","","","","","",""
"","","","","","html-button-response","123","633931","0.0-123.0","5DC2AD932E304BAB90DE11FAAE7EAD79","019cf05a-461a-754a-9e39-cc6aba6dda95","019ceff9-9f67-7034-9722-02cda2445e09","","850","
                <div class=""stimulus-container"">
                    <img src=""images/causal_sequence/the_performance_causal/the_performance_causal_1.png"" class=""exp-image"">
                    <div class=""question-area"">
                        <p style=""font-size: 20px; font-weight: bold; margin: 0;"">Is there a person in this image?</p>
                    </div>
                </div>","0","main_experiment_trial","1","the_performance_causal","causal_sequence","","","","",""
"","","","","","html-keyboard-response","124","638936","0.0-124.0","5DC2AD932E304BAB90DE11FAAE7EAD79","019cf05a-461a-754a-9e39-cc6aba6dda95","019ceff9-9f67-7034-9722-02cda2445e09","","null","
                <div class=""stimulus-container"">
                    <img src=""images/causal_sequence/the_performance_causal/the_performance_causal_2.png"" class=""exp-image"">
                    <div class=""question-area""></div> 
                </div>","null","","","","","","","","",""
"","","","","","html-button-response","125","639595","0.0-125.0","5DC2AD932E304BAB90DE11FAAE7EAD79","019cf05a-461a-754a-9e39-cc6aba6dda95","019ceff9-9f67-7034-9722-02cda2445e09","","657","
                <div class=""stimulus-container"">
                    <img src=""images/causal_sequence/the_performance_causal/the_performance_causal_2.png"" class=""exp-image"">
                    <div class=""question-area"">
                        <p style=""font-size: 20px; font-weight: bold; margin: 0;"">Is there a person in this image?</p>
                    </div>
                </div>","0","main_experiment_trial","2","the_performance_causal","causal_sequence","","","","",""
"","","","","","html-keyboard-response","126","644610","0.0-126.0","5DC2AD932E304BAB90DE11FAAE7EAD79","019cf05a-461a-754a-9e39-cc6aba6dda95","019ceff9-9f67-7034-9722-02cda2445e09","","null","
                <div class=""stimulus-container"">
                    <img src=""images/causal_sequence/the_performance_causal/the_performance_causal_3.png"" class=""exp-image"">
                    <div class=""question-area""></div> 
                </div>","null","","","","","","","","",""
"","","","","","html-button-response","127","645274","0.0-127.0","5DC2AD932E304BAB90DE11FAAE7EAD79","019cf05a-461a-754a-9e39-cc6aba6dda95","019ceff9-9f67-7034-9722-02cda2445e09","","662","
                <div class=""stimulus-container"">
                    <img src=""images/causal_sequence/the_performance_causal/the_performance_causal_3.png"" class=""exp-image"">
                    <div class=""question-area"">
                        <p style=""font-size: 20px; font-weight: bold; margin: 0;"">Is there a person in this image?</p>
                    </div>
                </div>","0","main_experiment_trial","3","the_performance_causal","causal_sequence","","","","",""
"","","","","","html-keyboard-response","128","650281","0.0-128.0","5DC2AD932E304BAB90DE11FAAE7EAD79","019cf05a-461a-754a-9e39-cc6aba6dda95","019ceff9-9f67-7034-9722-02cda2445e09","","null","
                <div class=""stimulus-container"">
                    <img src=""images/causal_sequence/the_performance_causal/the_performance_causal_4.png"" class=""exp-image"">
                    <div class=""question-area""></div> 
                </div>","null","","","","","","","","",""
"","","","","","html-button-response","129","650829","0.0-129.0","5DC2AD932E304BAB90DE11FAAE7EAD79","019cf05a-461a-754a-9e39-cc6aba6dda95","019ceff9-9f67-7034-9722-02cda2445e09","","547","
                <div class=""stimulus-container"">
                    <img src=""images/causal_sequence/the_performance_causal/the_performance_causal_4.png"" class=""exp-image"">
                    <div class=""question-area"">
                        <p style=""font-size: 20px; font-weight: bold; margin: 0;"">Is there a person in this image?</p>
                    </div>
                </div>","0","main_experiment_trial","4","the_performance_causal","causal_sequence","","","","",""
"","","","","","html-keyboard-response","130","655846","0.0-130.0","5DC2AD932E304BAB90DE11FAAE7EAD79","019cf05a-461a-754a-9e39-cc6aba6dda95","019ceff9-9f67-7034-9722-02cda2445e09","","null","
                <div class=""stimulus-container"">
                    <img src=""images/causal_sequence/the_performance_causal/the_performance_causal_5.png"" class=""exp-image"">
                    <div class=""question-area""></div> 
                </div>","null","","","","","","","","",""
"","","","","","html-button-response","131","656417","0.0-131.0","5DC2AD932E304BAB90DE11FAAE7EAD79","019cf05a-461a-754a-9e39-cc6aba6dda95","019ceff9-9f67-7034-9722-02cda2445e09","","569","
                <div class=""stimulus-container"">
                    <img src=""images/causal_sequence/the_performance_causal/the_performance_causal_5.png"" class=""exp-image"">
                    <div class=""question-area"">
                        <p style=""font-size: 20px; font-weight: bold; margin: 0;"">Is there a person in this image?</p>
                    </div>
                </div>","0","main_experiment_trial","5","the_performance_causal","causal_sequence","","","","",""
"","","","","","html-keyboard-response","132","661421","0.0-132.0","5DC2AD932E304BAB90DE11FAAE7EAD79","019cf05a-461a-754a-9e39-cc6aba6dda95","019ceff9-9f67-7034-9722-02cda2445e09","","null","
                <div class=""stimulus-container"">
                    <img src=""images/causal_sequence/the_performance_causal/the_performance_causal_6.png"" class=""exp-image"">
                    <div class=""question-area""></div> 
                </div>","null","","","","","","","","",""
"","","","","","html-button-response","133","662109","0.0-133.0","5DC2AD932E304BAB90DE11FAAE7EAD79","019cf05a-461a-754a-9e39-cc6aba6dda95","019ceff9-9f67-7034-9722-02cda2445e09","","685","
                <div class=""stimulus-container"">
                    <img src=""images/causal_sequence/the_performance_causal/the_performance_causal_6.png"" class=""exp-image"">
                    <div class=""question-area"">
                        <p style=""font-size: 20px; font-weight: bold; margin: 0;"">Is there a person in this image?</p>
                    </div>
                </div>","0","main_experiment_trial","6","the_performance_causal","causal_sequence","","","","",""
"","","","","","html-keyboard-response","134","667124","0.0-134.0","5DC2AD932E304BAB90DE11FAAE7EAD79","019cf05a-461a-754a-9e39-cc6aba6dda95","019ceff9-9f67-7034-9722-02cda2445e09","","null","
                <div class=""stimulus-container"">
                    <img src=""images/causal_sequence/the_performance_causal/the_performance_causal_7.png"" class=""exp-image"">
                    <div class=""question-area""></div> 
                </div>","null","","","","","","","","",""
"","","","","","html-button-response","135","667758","0.0-135.0","5DC2AD932E304BAB90DE11FAAE7EAD79","019cf05a-461a-754a-9e39-cc6aba6dda95","019ceff9-9f67-7034-9722-02cda2445e09","","633","
                <div class=""stimulus-container"">
                    <img src=""images/causal_sequence/the_performance_causal/the_performance_causal_7.png"" class=""exp-image"">
                    <div class=""question-area"">
                        <p style=""font-size: 20px; font-weight: bold; margin: 0;"">Is there a person in this image?</p>
                    </div>
                </div>","0","main_experiment_trial","7","the_performance_causal","causal_sequence","","","","",""
"","","","","","html-keyboard-response","136","672773","0.0-136.0","5DC2AD932E304BAB90DE11FAAE7EAD79","019cf05a-461a-754a-9e39-cc6aba6dda95","019ceff9-9f67-7034-9722-02cda2445e09","","null","
                <div class=""stimulus-container"">
                    <img src=""images/causal_sequence/the_performance_causal/the_performance_causal_8.png"" class=""exp-image"">
                    <div class=""question-area""></div> 
                </div>","null","","","","","","","","",""
"","","","","","html-button-response","137","673426","0.0-137.0","5DC2AD932E304BAB90DE11FAAE7EAD79","019cf05a-461a-754a-9e39-cc6aba6dda95","019ceff9-9f67-7034-9722-02cda2445e09","","651","
                <div class=""stimulus-container"">
                    <img src=""images/causal_sequence/the_performance_causal/the_performance_causal_8.png"" class=""exp-image"">
                    <div class=""question-area"">
                        <p style=""font-size: 20px; font-weight: bold; margin: 0;"">Is there a person in this image?</p>
                    </div>
                </div>","0","main_experiment_trial","8","the_performance_causal","causal_sequence","","","","",""
"","","","","","html-keyboard-response","138","678438","0.0-138.0","5DC2AD932E304BAB90DE11FAAE7EAD79","019cf05a-461a-754a-9e39-cc6aba6dda95","019ceff9-9f67-7034-9722-02cda2445e09","","null","
                <div class=""stimulus-container"">
                    <img src=""images/causal_sequence/the_performance_causal/the_performance_causal_9.png"" class=""exp-image"">
                    <div class=""question-area""></div> 
                </div>","null","","","","","","","","",""
"","","","","","html-button-response","139","679956","0.0-139.0","5DC2AD932E304BAB90DE11FAAE7EAD79","019cf05a-461a-754a-9e39-cc6aba6dda95","019ceff9-9f67-7034-9722-02cda2445e09","","1517","
                <div class=""stimulus-container"">
                    <img src=""images/causal_sequence/the_performance_causal/the_performance_causal_9.png"" class=""exp-image"">
                    <div class=""question-area"">
                        <p style=""font-size: 20px; font-weight: bold; margin: 0;"">Is there a person in this image?</p>
                    </div>
                </div>","0","main_experiment_trial","9","the_performance_causal","causal_sequence","","","","",""
"","","","","","html-keyboard-response","140","684972","0.0-140.0","5DC2AD932E304BAB90DE11FAAE7EAD79","019cf05a-461a-754a-9e39-cc6aba6dda95","019ceff9-9f67-7034-9722-02cda2445e09","","null","
                <div class=""stimulus-container"">
                    <img src=""images/causal_sequence/the_performance_causal/the_performance_causal_ten.png"" class=""exp-image"">
                    <div class=""question-area""></div> 
                </div>","null","","","","","","","","",""
"","","","","","html-button-response","141","685650","0.0-141.0","5DC2AD932E304BAB90DE11FAAE7EAD79","019cf05a-461a-754a-9e39-cc6aba6dda95","019ceff9-9f67-7034-9722-02cda2445e09","","676","
                <div class=""stimulus-container"">
                    <img src=""images/causal_sequence/the_performance_causal/the_performance_causal_ten.png"" class=""exp-image"">
                    <div class=""question-area"">
                        <p style=""font-size: 20px; font-weight: bold; margin: 0;"">Is there a person in this image?</p>
                    </div>
                </div>","0","main_experiment_trial","ten","the_performance_causal","causal_sequence","","","","",""
"","","","","","html-keyboard-response","142","686658","0.0-142.0","5DC2AD932E304BAB90DE11FAAE7EAD79","019cf05a-461a-754a-9e39-cc6aba6dda95","019ceff9-9f67-7034-9722-02cda2445e09","","null","<div style=""background-color: white; width: 100vw; height: 100vh;""></div>","null","","","","","","","","",""
"","","","","","html-keyboard-response","143","691676","0.0-143.0","5DC2AD932E304BAB90DE11FAAE7EAD79","019cf05a-461a-754a-9e39-cc6aba6dda95","019ceff9-9f67-7034-9722-02cda2445e09","","null","
                <div class=""stimulus-container"">
                    <img src=""images/schematic_sequence/interview_scheme/interview_scheme_1.png"" class=""exp-image"">
                    <div class=""question-area""></div> 
                </div>","null","","","","","","","","",""
"","","","","","html-button-response","144","692700","0.0-144.0","5DC2AD932E304BAB90DE11FAAE7EAD79","019cf05a-461a-754a-9e39-cc6aba6dda95","019ceff9-9f67-7034-9722-02cda2445e09","","1023","
                <div class=""stimulus-container"">
                    <img src=""images/schematic_sequence/interview_scheme/interview_scheme_1.png"" class=""exp-image"">
                    <div class=""question-area"">
                        <p style=""font-size: 20px; font-weight: bold; margin: 0;"">Is there a person in this image?</p>
                    </div>
                </div>","1","main_experiment_trial","1","interview_scheme","schematic_sequence","","","","",""
"","","","","","html-keyboard-response","145","697707","0.0-145.0","5DC2AD932E304BAB90DE11FAAE7EAD79","019cf05a-461a-754a-9e39-cc6aba6dda95","019ceff9-9f67-7034-9722-02cda2445e09","","null","
                <div class=""stimulus-container"">
                    <img src=""images/schematic_sequence/interview_scheme/interview_scheme_2.png"" class=""exp-image"">
                    <div class=""question-area""></div> 
                </div>","null","","","","","","","","",""
"","","","","","html-button-response","146","698775","0.0-146.0","5DC2AD932E304BAB90DE11FAAE7EAD79","019cf05a-461a-754a-9e39-cc6aba6dda95","019ceff9-9f67-7034-9722-02cda2445e09","","1066","
                <div class=""stimulus-container"">
                    <img src=""images/schematic_sequence/interview_scheme/interview_scheme_2.png"" class=""exp-image"">
                    <div class=""question-area"">
                        <p style=""font-size: 20px; font-weight: bold; margin: 0;"">Is there a person in this image?</p>
                    </div>
                </div>","1","main_experiment_trial","2","interview_scheme","schematic_sequence","","","","",""
"","","","","","html-keyboard-response","147","703789","0.0-147.0","5DC2AD932E304BAB90DE11FAAE7EAD79","019cf05a-461a-754a-9e39-cc6aba6dda95","019ceff9-9f67-7034-9722-02cda2445e09","","null","
                <div class=""stimulus-container"">
                    <img src=""images/schematic_sequence/interview_scheme/interview_scheme_3.png"" class=""exp-image"">
                    <div class=""question-area""></div> 
                </div>","null","","","","","","","","",""
"","","","","","html-button-response","148","704707","0.0-148.0","5DC2AD932E304BAB90DE11FAAE7EAD79","019cf05a-461a-754a-9e39-cc6aba6dda95","019ceff9-9f67-7034-9722-02cda2445e09","","917","
                <div class=""stimulus-container"">
                    <img src=""images/schematic_sequence/interview_scheme/interview_scheme_3.png"" class=""exp-image"">
                    <div class=""question-area"">
                        <p style=""font-size: 20px; font-weight: bold; margin: 0;"">Is there a person in this image?</p>
                    </div>
                </div>","1","main_experiment_trial","3","interview_scheme","schematic_sequence","","","","",""
"","","","","","html-keyboard-response","149","709709","0.0-149.0","5DC2AD932E304BAB90DE11FAAE7EAD79","019cf05a-461a-754a-9e39-cc6aba6dda95","019ceff9-9f67-7034-9722-02cda2445e09","","null","
                <div class=""stimulus-container"">
                    <img src=""images/schematic_sequence/interview_scheme/interview_scheme_4.png"" class=""exp-image"">
                    <div class=""question-area""></div> 
                </div>","null","","","","","","","","",""
"","","","","","html-button-response","150","710362","0.0-150.0","5DC2AD932E304BAB90DE11FAAE7EAD79","019cf05a-461a-754a-9e39-cc6aba6dda95","019ceff9-9f67-7034-9722-02cda2445e09","","651","
                <div class=""stimulus-container"">
                    <img src=""images/schematic_sequence/interview_scheme/interview_scheme_4.png"" class=""exp-image"">
                    <div class=""question-area"">
                        <p style=""font-size: 20px; font-weight: bold; margin: 0;"">Is there a person in this image?</p>
                    </div>
                </div>","1","main_experiment_trial","4","interview_scheme","schematic_sequence","","","","",""
"","","","","","html-keyboard-response","151","715378","0.0-151.0","5DC2AD932E304BAB90DE11FAAE7EAD79","019cf05a-461a-754a-9e39-cc6aba6dda95","019ceff9-9f67-7034-9722-02cda2445e09","","null","
                <div class=""stimulus-container"">
                    <img src=""images/schematic_sequence/interview_scheme/interview_scheme_5.png"" class=""exp-image"">
                    <div class=""question-area""></div> 
                </div>","null","","","","","","","","",""
"","","","","","html-button-response","152","716292","0.0-152.0","5DC2AD932E304BAB90DE11FAAE7EAD79","019cf05a-461a-754a-9e39-cc6aba6dda95","019ceff9-9f67-7034-9722-02cda2445e09","","913","
                <div class=""stimulus-container"">
                    <img src=""images/schematic_sequence/interview_scheme/interview_scheme_5.png"" class=""exp-image"">
                    <div class=""question-area"">
                        <p style=""font-size: 20px; font-weight: bold; margin: 0;"">Is there a person in this image?</p>
                    </div>
                </div>","0","main_experiment_trial","5","interview_scheme","schematic_sequence","","","","",""
"","","","","","html-keyboard-response","153","721307","0.0-153.0","5DC2AD932E304BAB90DE11FAAE7EAD79","019cf05a-461a-754a-9e39-cc6aba6dda95","019ceff9-9f67-7034-9722-02cda2445e09","","null","
                <div class=""stimulus-container"">
                    <img src=""images/schematic_sequence/interview_scheme/interview_scheme_6.png"" class=""exp-image"">
                    <div class=""question-area""></div> 
                </div>","null","","","","","","","","",""
"","","","","","html-button-response","154","722040","0.0-154.0","5DC2AD932E304BAB90DE11FAAE7EAD79","019cf05a-461a-754a-9e39-cc6aba6dda95","019ceff9-9f67-7034-9722-02cda2445e09","","731","
                <div class=""stimulus-container"">
                    <img src=""images/schematic_sequence/interview_scheme/interview_scheme_6.png"" class=""exp-image"">
                    <div class=""question-area"">
                        <p style=""font-size: 20px; font-weight: bold; margin: 0;"">Is there a person in this image?</p>
                    </div>
                </div>","0","main_experiment_trial","6","interview_scheme","schematic_sequence","","","","",""
"","","","","","html-keyboard-response","155","727049","0.0-155.0","5DC2AD932E304BAB90DE11FAAE7EAD79","019cf05a-461a-754a-9e39-cc6aba6dda95","019ceff9-9f67-7034-9722-02cda2445e09","","null","
                <div class=""stimulus-container"">
                    <img src=""images/schematic_sequence/interview_scheme/interview_scheme_7.png"" class=""exp-image"">
                    <div class=""question-area""></div> 
                </div>","null","","","","","","","","",""
"","","","","","html-button-response","156","727832","0.0-156.0","5DC2AD932E304BAB90DE11FAAE7EAD79","019cf05a-461a-754a-9e39-cc6aba6dda95","019ceff9-9f67-7034-9722-02cda2445e09","","781","
                <div class=""stimulus-container"">
                    <img src=""images/schematic_sequence/interview_scheme/interview_scheme_7.png"" class=""exp-image"">
                    <div class=""question-area"">
                        <p style=""font-size: 20px; font-weight: bold; margin: 0;"">Is there a person in this image?</p>
                    </div>
                </div>","0","main_experiment_trial","7","interview_scheme","schematic_sequence","","","","",""
"","","","","","html-keyboard-response","157","732845","0.0-157.0","5DC2AD932E304BAB90DE11FAAE7EAD79","019cf05a-461a-754a-9e39-cc6aba6dda95","019ceff9-9f67-7034-9722-02cda2445e09","","null","
                <div class=""stimulus-container"">
                    <img src=""images/schematic_sequence/interview_scheme/interview_scheme_8.png"" class=""exp-image"">
                    <div class=""question-area""></div> 
                </div>","null","","","","","","","","",""
"","","","","","html-button-response","158","733710","0.0-158.0","5DC2AD932E304BAB90DE11FAAE7EAD79","019cf05a-461a-754a-9e39-cc6aba6dda95","019ceff9-9f67-7034-9722-02cda2445e09","","863","
                <div class=""stimulus-container"">
                    <img src=""images/schematic_sequence/interview_scheme/interview_scheme_8.png"" class=""exp-image"">
                    <div class=""question-area"">
                        <p style=""font-size: 20px; font-weight: bold; margin: 0;"">Is there a person in this image?</p>
                    </div>
                </div>","0","main_experiment_trial","8","interview_scheme","schematic_sequence","","","","",""
"","","","","","html-keyboard-response","159","738719","0.0-159.0","5DC2AD932E304BAB90DE11FAAE7EAD79","019cf05a-461a-754a-9e39-cc6aba6dda95","019ceff9-9f67-7034-9722-02cda2445e09","","null","
                <div class=""stimulus-container"">
                    <img src=""images/schematic_sequence/interview_scheme/interview_scheme_9.png"" class=""exp-image"">
                    <div class=""question-area""></div> 
                </div>","null","","","","","","","","",""
"","","","","","html-button-response","160","739861","0.0-160.0","5DC2AD932E304BAB90DE11FAAE7EAD79","019cf05a-461a-754a-9e39-cc6aba6dda95","019ceff9-9f67-7034-9722-02cda2445e09","","1140","
                <div class=""stimulus-container"">
                    <img src=""images/schematic_sequence/interview_scheme/interview_scheme_9.png"" class=""exp-image"">
                    <div class=""question-area"">
                        <p style=""font-size: 20px; font-weight: bold; margin: 0;"">Is there a person in this image?</p>
                    </div>
                </div>","0","main_experiment_trial","9","interview_scheme","schematic_sequence","","","","",""
"","","","","","html-keyboard-response","161","744870","0.0-161.0","5DC2AD932E304BAB90DE11FAAE7EAD79","019cf05a-461a-754a-9e39-cc6aba6dda95","019ceff9-9f67-7034-9722-02cda2445e09","","null","
                <div class=""stimulus-container"">
                    <img src=""images/schematic_sequence/interview_scheme/interview_scheme_ten.png"" class=""exp-image"">
                    <div class=""question-area""></div> 
                </div>","null","","","","","","","","",""
"","","","","","html-button-response","162","746323","0.0-162.0","5DC2AD932E304BAB90DE11FAAE7EAD79","019cf05a-461a-754a-9e39-cc6aba6dda95","019ceff9-9f67-7034-9722-02cda2445e09","","1452","
                <div class=""stimulus-container"">
                    <img src=""images/schematic_sequence/interview_scheme/interview_scheme_ten.png"" class=""exp-image"">
                    <div class=""question-area"">
                        <p style=""font-size: 20px; font-weight: bold; margin: 0;"">Is there a person in this image?</p>
                    </div>
                </div>","0","main_experiment_trial","ten","interview_scheme","schematic_sequence","","","","",""
"","","","","","html-keyboard-response","163","747326","0.0-163.0","5DC2AD932E304BAB90DE11FAAE7EAD79","019cf05a-461a-754a-9e39-cc6aba6dda95","019ceff9-9f67-7034-9722-02cda2445e09","","null","<div style=""background-color: white; width: 100vw; height: 100vh;""></div>","null","","","","","","","","",""
"","","","","","html-keyboard-response","164","752342","0.0-164.0","5DC2AD932E304BAB90DE11FAAE7EAD79","019cf05a-461a-754a-9e39-cc6aba6dda95","019ceff9-9f67-7034-9722-02cda2445e09","","null","
                <div class=""stimulus-container"">
                    <img src=""images/schematic_sequence/flight_scheme/flight_scheme_1.png"" class=""exp-image"">
                    <div class=""question-area""></div> 
                </div>","null","","","","","","","","",""
"","","","","","html-button-response","165","753286","0.0-165.0","5DC2AD932E304BAB90DE11FAAE7EAD79","019cf05a-461a-754a-9e39-cc6aba6dda95","019ceff9-9f67-7034-9722-02cda2445e09","","942","
                <div class=""stimulus-container"">
                    <img src=""images/schematic_sequence/flight_scheme/flight_scheme_1.png"" class=""exp-image"">
                    <div class=""question-area"">
                        <p style=""font-size: 20px; font-weight: bold; margin: 0;"">Is there a person in this image?</p>
                    </div>
                </div>","0","main_experiment_trial","1","flight_scheme","schematic_sequence","","","","",""
"","","","","","html-keyboard-response","166","758291","0.0-166.0","5DC2AD932E304BAB90DE11FAAE7EAD79","019cf05a-461a-754a-9e39-cc6aba6dda95","019ceff9-9f67-7034-9722-02cda2445e09","","null","
                <div class=""stimulus-container"">
                    <img src=""images/schematic_sequence/flight_scheme/flight_scheme_2.png"" class=""exp-image"">
                    <div class=""question-area""></div> 
                </div>","null","","","","","","","","",""
"","","","","","html-button-response","167","758919","0.0-167.0","5DC2AD932E304BAB90DE11FAAE7EAD79","019cf05a-461a-754a-9e39-cc6aba6dda95","019ceff9-9f67-7034-9722-02cda2445e09","","626","
                <div class=""stimulus-container"">
                    <img src=""images/schematic_sequence/flight_scheme/flight_scheme_2.png"" class=""exp-image"">
                    <div class=""question-area"">
                        <p style=""font-size: 20px; font-weight: bold; margin: 0;"">Is there a person in this image?</p>
                    </div>
                </div>","1","main_experiment_trial","2","flight_scheme","schematic_sequence","","","","",""
"","","","","","html-keyboard-response","168","763935","0.0-168.0","5DC2AD932E304BAB90DE11FAAE7EAD79","019cf05a-461a-754a-9e39-cc6aba6dda95","019ceff9-9f67-7034-9722-02cda2445e09","","null","
                <div class=""stimulus-container"">
                    <img src=""images/schematic_sequence/flight_scheme/flight_scheme_3.png"" class=""exp-image"">
                    <div class=""question-area""></div> 
                </div>","null","","","","","","","","",""
"","","","","","html-button-response","169","764901","0.0-169.0","5DC2AD932E304BAB90DE11FAAE7EAD79","019cf05a-461a-754a-9e39-cc6aba6dda95","019ceff9-9f67-7034-9722-02cda2445e09","","964","
                <div class=""stimulus-container"">
                    <img src=""images/schematic_sequence/flight_scheme/flight_scheme_3.png"" class=""exp-image"">
                    <div class=""question-area"">
                        <p style=""font-size: 20px; font-weight: bold; margin: 0;"">Is there a person in this image?</p>
                    </div>
                </div>","0","main_experiment_trial","3","flight_scheme","schematic_sequence","","","","",""
"","","","","","html-keyboard-response","170","769905","0.0-170.0","5DC2AD932E304BAB90DE11FAAE7EAD79","019cf05a-461a-754a-9e39-cc6aba6dda95","019ceff9-9f67-7034-9722-02cda2445e09","","null","
                <div class=""stimulus-container"">
                    <img src=""images/schematic_sequence/flight_scheme/flight_scheme_4.png"" class=""exp-image"">
                    <div class=""question-area""></div> 
                </div>","null","","","","","","","","",""
"","","","","","html-button-response","171","771056","0.0-171.0","5DC2AD932E304BAB90DE11FAAE7EAD79","019cf05a-461a-754a-9e39-cc6aba6dda95","019ceff9-9f67-7034-9722-02cda2445e09","","1149","
                <div class=""stimulus-container"">
                    <img src=""images/schematic_sequence/flight_scheme/flight_scheme_4.png"" class=""exp-image"">
                    <div class=""question-area"">
                        <p style=""font-size: 20px; font-weight: bold; margin: 0;"">Is there a person in this image?</p>
                    </div>
                </div>","0","main_experiment_trial","4","flight_scheme","schematic_sequence","","","","",""
"","","","","","html-keyboard-response","172","776064","0.0-172.0","5DC2AD932E304BAB90DE11FAAE7EAD79","019cf05a-461a-754a-9e39-cc6aba6dda95","019ceff9-9f67-7034-9722-02cda2445e09","","null","
                <div class=""stimulus-container"">
                    <img src=""images/schematic_sequence/flight_scheme/flight_scheme_5.png"" class=""exp-image"">
                    <div class=""question-area""></div> 
                </div>","null","","","","","","","","",""
"","","","","","html-button-response","173","776885","0.0-173.0","5DC2AD932E304BAB90DE11FAAE7EAD79","019cf05a-461a-754a-9e39-cc6aba6dda95","019ceff9-9f67-7034-9722-02cda2445e09","","818","
                <div class=""stimulus-container"">
                    <img src=""images/schematic_sequence/flight_scheme/flight_scheme_5.png"" class=""exp-image"">
                    <div class=""question-area"">
                        <p style=""font-size: 20px; font-weight: bold; margin: 0;"">Is there a person in this image?</p>
                    </div>
                </div>","0","main_experiment_trial","5","flight_scheme","schematic_sequence","","","","",""
"","","","","","html-keyboard-response","174","781892","0.0-174.0","5DC2AD932E304BAB90DE11FAAE7EAD79","019cf05a-461a-754a-9e39-cc6aba6dda95","019ceff9-9f67-7034-9722-02cda2445e09","","null","
                <div class=""stimulus-container"">
                    <img src=""images/schematic_sequence/flight_scheme/flight_scheme_6.png"" class=""exp-image"">
                    <div class=""question-area""></div> 
                </div>","null","","","","","","","","",""
"","","","","","html-button-response","175","782772","0.0-175.0","5DC2AD932E304BAB90DE11FAAE7EAD79","019cf05a-461a-754a-9e39-cc6aba6dda95","019ceff9-9f67-7034-9722-02cda2445e09","","879","
                <div class=""stimulus-container"">
                    <img src=""images/schematic_sequence/flight_scheme/flight_scheme_6.png"" class=""exp-image"">
                    <div class=""question-area"">
                        <p style=""font-size: 20px; font-weight: bold; margin: 0;"">Is there a person in this image?</p>
                    </div>
                </div>","1","main_experiment_trial","6","flight_scheme","schematic_sequence","","","","",""
"","","","","","html-keyboard-response","176","787786","0.0-176.0","5DC2AD932E304BAB90DE11FAAE7EAD79","019cf05a-461a-754a-9e39-cc6aba6dda95","019ceff9-9f67-7034-9722-02cda2445e09","","null","
                <div class=""stimulus-container"">
                    <img src=""images/schematic_sequence/flight_scheme/flight_scheme_7.png"" class=""exp-image"">
                    <div class=""question-area""></div> 
                </div>","null","","","","","","","","",""
"","","","","","html-button-response","177","790236","0.0-177.0","5DC2AD932E304BAB90DE11FAAE7EAD79","019cf05a-461a-754a-9e39-cc6aba6dda95","019ceff9-9f67-7034-9722-02cda2445e09","","2449","
                <div class=""stimulus-container"">
                    <img src=""images/schematic_sequence/flight_scheme/flight_scheme_7.png"" class=""exp-image"">
                    <div class=""question-area"">
                        <p style=""font-size: 20px; font-weight: bold; margin: 0;"">Is there a person in this image?</p>
                    </div>
                </div>","1","main_experiment_trial","7","flight_scheme","schematic_sequence","","","","",""
"","","","","","html-keyboard-response","178","795249","0.0-178.0","5DC2AD932E304BAB90DE11FAAE7EAD79","019cf05a-461a-754a-9e39-cc6aba6dda95","019ceff9-9f67-7034-9722-02cda2445e09","","null","
                <div class=""stimulus-container"">
                    <img src=""images/schematic_sequence/flight_scheme/flight_scheme_8.png"" class=""exp-image"">
                    <div class=""question-area""></div> 
                </div>","null","","","","","","","","",""
"","","","","","html-button-response","179","795979","0.0-179.0","5DC2AD932E304BAB90DE11FAAE7EAD79","019cf05a-461a-754a-9e39-cc6aba6dda95","019ceff9-9f67-7034-9722-02cda2445e09","","728","
                <div class=""stimulus-container"">
                    <img src=""images/schematic_sequence/flight_scheme/flight_scheme_8.png"" class=""exp-image"">
                    <div class=""question-area"">
                        <p style=""font-size: 20px; font-weight: bold; margin: 0;"">Is there a person in this image?</p>
                    </div>
                </div>","1","main_experiment_trial","8","flight_scheme","schematic_sequence","","","","",""
"","","","","","html-keyboard-response","180","800992","0.0-180.0","5DC2AD932E304BAB90DE11FAAE7EAD79","019cf05a-461a-754a-9e39-cc6aba6dda95","019ceff9-9f67-7034-9722-02cda2445e09","","null","
                <div class=""stimulus-container"">
                    <img src=""images/schematic_sequence/flight_scheme/flight_scheme_9.png"" class=""exp-image"">
                    <div class=""question-area""></div> 
                </div>","null","","","","","","","","",""
"","","","","","html-button-response","181","801995","0.0-181.0","5DC2AD932E304BAB90DE11FAAE7EAD79","019cf05a-461a-754a-9e39-cc6aba6dda95","019ceff9-9f67-7034-9722-02cda2445e09","","1001","
                <div class=""stimulus-container"">
                    <img src=""images/schematic_sequence/flight_scheme/flight_scheme_9.png"" class=""exp-image"">
                    <div class=""question-area"">
                        <p style=""font-size: 20px; font-weight: bold; margin: 0;"">Is there a person in this image?</p>
                    </div>
                </div>","0","main_experiment_trial","9","flight_scheme","schematic_sequence","","","","",""
"","","","","","html-keyboard-response","182","807004","0.0-182.0","5DC2AD932E304BAB90DE11FAAE7EAD79","019cf05a-461a-754a-9e39-cc6aba6dda95","019ceff9-9f67-7034-9722-02cda2445e09","","null","
                <div class=""stimulus-container"">
                    <img src=""images/schematic_sequence/flight_scheme/flight_scheme_ten.png"" class=""exp-image"">
                    <div class=""question-area""></div> 
                </div>","null","","","","","","","","",""
"","","","","","html-button-response","183","807771","0.0-183.0","5DC2AD932E304BAB90DE11FAAE7EAD79","019cf05a-461a-754a-9e39-cc6aba6dda95","019ceff9-9f67-7034-9722-02cda2445e09","","765","
                <div class=""stimulus-container"">
                    <img src=""images/schematic_sequence/flight_scheme/flight_scheme_ten.png"" class=""exp-image"">
                    <div class=""question-area"">
                        <p style=""font-size: 20px; font-weight: bold; margin: 0;"">Is there a person in this image?</p>
                    </div>
