"success","timeout","failed_images","failed_audio","failed_video","trial_type","trial_index","time_elapsed","internal_node_id","view_history","rt","stimulus","response","task","folder","sequence_type","img_idx","comparison_type","img_index","block_story","block_info","left_img_path","right_img_path"
"true","false","[]","[]","[]","preload","0","3917","0.0-0.0","","","","","","","","","","","","","",""
"","","","","","instructions","1","5634","0.0-1.0","[{""page_index"":0,""viewing_time"":1716}]","1716","","","","","","","","","","","",""
"","","","","","instructions","2","10777","0.0-2.0","[{""page_index"":0,""viewing_time"":5143}]","5143","","","","","","","","","","","",""
"true","","","","","fullscreen","3","13131","0.0-3.0","","1330","","","","","","","","","","","",""
"","","","","","instructions","4","16148","0.0-4.0","[{""page_index"":0,""viewing_time"":3016}]","3016","","","","","","","","","","","",""
"","","","","","html-keyboard-response","5","18159","0.0-5.0","","null","<div class=""transition-square""></div>","null","","","","","","","","","",""
"","","","","","html-keyboard-response","6","23165","0.0-6.0","","null","<div class=""stimulus-container""><img src=""images_story_vs_info/info_3_1.png"" class=""exp-image""><div class=""question-area""></div></div>","null","","","","","","","","","",""
"","","","","","html-button-response","7","26013","0.0-7.0","","2845","<div class=""stimulus-container""><img src=""images_story_vs_info/info_3_1.png"" class=""exp-image""><div class=""question-area""><p style=""font-size: 20px; font-weight: bold; margin: 0;"">Is there a person in this image?</p></div></div>","1","observation","info_3","info","1","","","","","",""
"","","","","","html-keyboard-response","8","31016","0.0-8.0","","null","<div class=""stimulus-container""><img src=""images_story_vs_info/info_3_2.png"" class=""exp-image""><div class=""question-area""></div></div>","null","","","","","","","","","",""
"","","","","","html-button-response","9","34024","0.0-9.0","","null","<div class=""stimulus-container""><img src=""images_story_vs_info/info_3_2.png"" class=""exp-image""><div class=""question-area""><p style=""font-size: 20px; font-weight: bold; margin: 0;"">Is there a person in this image?</p></div></div>","null","observation","info_3","info","2","","","","","",""
"","","","","","html-keyboard-response","10","39028","0.0-10.0","","null","<div class=""stimulus-container""><img src=""images_story_vs_info/info_3_3.png"" class=""exp-image""><div class=""question-area""></div></div>","null","","","","","","","","","",""
"","","","","","html-button-response","11","42044","0.0-11.0","","null","<div class=""stimulus-container""><img src=""images_story_vs_info/info_3_3.png"" class=""exp-image""><div class=""question-area""><p style=""font-size: 20px; font-weight: bold; margin: 0;"">Is there a person in this image?</p></div></div>","null","observation","info_3","info","3","","","","","",""
"","","","","","html-keyboard-response","12","47059","0.0-12.0","","null","<div class=""stimulus-container""><img src=""images_story_vs_info/info_3_4.png"" class=""exp-image""><div class=""question-area""></div></div>","null","","","","","","","","","",""
"","","","","","html-button-response","13","49196","0.0-13.0","","2135","<div class=""stimulus-container""><img src=""images_story_vs_info/info_3_4.png"" class=""exp-image""><div class=""question-area""><p style=""font-size: 20px; font-weight: bold; margin: 0;"">Is there a person in this image?</p></div></div>","0","observation","info_3","info","4","","","","","",""
"","","","","","html-keyboard-response","14","54202","0.0-14.0","","null","<div class=""stimulus-container""><img src=""images_story_vs_info/info_3_5.png"" class=""exp-image""><div class=""question-area""></div></div>","null","","","","","","","","","",""
"","","","","","html-button-response","15","56735","0.0-15.0","","2532","<div class=""stimulus-container""><img src=""images_story_vs_info/info_3_5.png"" class=""exp-image""><div class=""question-area""><p style=""font-size: 20px; font-weight: bold; margin: 0;"">Is there a person in this image?</p></div></div>","1","observation","info_3","info","5","","","","","",""
"","","","","","html-keyboard-response","16","61739","0.0-16.0","","null","<div class=""stimulus-container""><img src=""images_story_vs_info/info_3_6_b.png"" class=""exp-image""><div class=""question-area""></div></div>","null","","","","","","","","","",""
"","","","","","html-button-response","17","62696","0.0-17.0","","954","<div class=""stimulus-container""><img src=""images_story_vs_info/info_3_6_b.png"" class=""exp-image""><div class=""question-area""><p style=""font-size: 20px; font-weight: bold; margin: 0;"">Is there a person in this image?</p></div></div>","1","observation","info_3","info","6","","","","","",""
"","","","","","html-keyboard-response","18","64700","0.0-18.0","","null","<div class=""transition-square""></div>","null","","","","","","","","","",""
"","","","","","html-keyboard-response","19","69702","0.0-19.0","","null","<div class=""stimulus-container""><img src=""images_story_vs_info/story_1_1.png"" class=""exp-image""><div class=""question-area""></div></div>","null","","","","","","","","","",""
"","","","","","html-button-response","20","70839","0.0-20.0","","1135","<div class=""stimulus-container""><img src=""images_story_vs_info/story_1_1.png"" class=""exp-image""><div class=""question-area""><p style=""font-size: 20px; font-weight: bold; margin: 0;"">Is there a person in this image?</p></div></div>","1","observation","story_1","story","1","","","","","",""
"","","","","","html-keyboard-response","21","75856","0.0-21.0","","null","<div class=""stimulus-container""><img src=""images_story_vs_info/story_1_2.png"" class=""exp-image""><div class=""question-area""></div></div>","null","","","","","","","","","",""
"","","","","","html-button-response","22","77446","0.0-22.0","","1588","<div class=""stimulus-container""><img src=""images_story_vs_info/story_1_2.png"" class=""exp-image""><div class=""question-area""><p style=""font-size: 20px; font-weight: bold; margin: 0;"">Is there a person in this image?</p></div></div>","1","observation","story_1","story","2","","","","","",""
"","","","","","html-keyboard-response","23","82449","0.0-23.0","","null","<div class=""stimulus-container""><img src=""images_story_vs_info/story_1_3.png"" class=""exp-image""><div class=""question-area""></div></div>","null","","","","","","","","","",""
"","","","","","html-button-response","24","83514","0.0-24.0","","1064","<div class=""stimulus-container""><img src=""images_story_vs_info/story_1_3.png"" class=""exp-image""><div class=""question-area""><p style=""font-size: 20px; font-weight: bold; margin: 0;"">Is there a person in this image?</p></div></div>","1","observation","story_1","story","3","","","","","",""
"","","","","","html-keyboard-response","25","88523","0.0-25.0","","null","<div class=""stimulus-container""><img src=""images_story_vs_info/story_1_4.png"" class=""exp-image""><div class=""question-area""></div></div>","null","","","","","","","","","",""
"","","","","","html-button-response","26","90231","0.0-26.0","","1706","<div class=""stimulus-container""><img src=""images_story_vs_info/story_1_4.png"" class=""exp-image""><div class=""question-area""><p style=""font-size: 20px; font-weight: bold; margin: 0;"">Is there a person in this image?</p></div></div>","1","observation","story_1","story","4","","","","","",""
"","","","","","html-keyboard-response","27","95246","0.0-27.0","","null","<div class=""stimulus-container""><img src=""images_story_vs_info/story_1_5.png"" class=""exp-image""><div class=""question-area""></div></div>","null","","","","","","","","","",""
"","","","","","html-button-response","28","96226","0.0-28.0","","979","<div class=""stimulus-container""><img src=""images_story_vs_info/story_1_5.png"" class=""exp-image""><div class=""question-area""><p style=""font-size: 20px; font-weight: bold; margin: 0;"">Is there a person in this image?</p></div></div>","1","observation","story_1","story","5","","","","","",""
"","","","","","html-keyboard-response","29","101239","0.0-29.0","","null","<div class=""stimulus-container""><img src=""images_story_vs_info/story_1_6_b.png"" class=""exp-image""><div class=""question-area""></div></div>","null","","","","","","","","","",""
"","","","","","html-button-response","30","102252","0.0-30.0","","1012","<div class=""stimulus-container""><img src=""images_story_vs_info/story_1_6_b.png"" class=""exp-image""><div class=""question-area""><p style=""font-size: 20px; font-weight: bold; margin: 0;"">Is there a person in this image?</p></div></div>","1","observation","story_1","story","6","","","","","",""
"","","","","","html-keyboard-response","31","104263","0.0-31.0","","null","<div class=""transition-square""></div>","null","","","","","","","","","",""
"","","","","","html-keyboard-response","32","109277","0.0-32.0","","null","<div class=""stimulus-container""><img src=""images_story_vs_info/info_2_1.png"" class=""exp-image""><div class=""question-area""></div></div>","null","","","","","","","","","",""
"","","","","","html-button-response","33","110908","0.0-33.0","","1630","<div class=""stimulus-container""><img src=""images_story_vs_info/info_2_1.png"" class=""exp-image""><div class=""question-area""><p style=""font-size: 20px; font-weight: bold; margin: 0;"">Is there a person in this image?</p></div></div>","1","observation","info_2","info","1","","","","","",""
"","","","","","html-keyboard-response","34","115914","0.0-34.0","","null","<div class=""stimulus-container""><img src=""images_story_vs_info/info_2_2.png"" class=""exp-image""><div class=""question-area""></div></div>","null","","","","","","","","","",""
"","","","","","html-button-response","35","116850","0.0-35.0","","934","<div class=""stimulus-container""><img src=""images_story_vs_info/info_2_2.png"" class=""exp-image""><div class=""question-area""><p style=""font-size: 20px; font-weight: bold; margin: 0;"">Is there a person in this image?</p></div></div>","1","observation","info_2","info","2","","","","","",""
"","","","","","html-keyboard-response","36","121855","0.0-36.0","","null","<div class=""stimulus-container""><img src=""images_story_vs_info/info_2_3.png"" class=""exp-image""><div class=""question-area""></div></div>","null","","","","","","","","","",""
"","","","","","html-button-response","37","123549","0.0-37.0","","1692","<div class=""stimulus-container""><img src=""images_story_vs_info/info_2_3.png"" class=""exp-image""><div class=""question-area""><p style=""font-size: 20px; font-weight: bold; margin: 0;"">Is there a person in this image?</p></div></div>","1","observation","info_2","info","3","","","","","",""
"","","","","","html-keyboard-response","38","128554","0.0-38.0","","null","<div class=""stimulus-container""><img src=""images_story_vs_info/info_2_4.png"" class=""exp-image""><div class=""question-area""></div></div>","null","","","","","","","","","",""
"","","","","","html-button-response","39","131538","0.0-39.0","","2983","<div class=""stimulus-container""><img src=""images_story_vs_info/info_2_4.png"" class=""exp-image""><div class=""question-area""><p style=""font-size: 20px; font-weight: bold; margin: 0;"">Is there a person in this image?</p></div></div>","1","observation","info_2","info","4","","","","","",""
"","","","","","html-keyboard-response","40","136549","0.0-40.0","","null","<div class=""stimulus-container""><img src=""images_story_vs_info/info_2_5.png"" class=""exp-image""><div class=""question-area""></div></div>","null","","","","","","","","","",""
"","","","","","html-button-response","41","139557","0.0-41.0","","null","<div class=""stimulus-container""><img src=""images_story_vs_info/info_2_5.png"" class=""exp-image""><div class=""question-area""><p style=""font-size: 20px; font-weight: bold; margin: 0;"">Is there a person in this image?</p></div></div>","null","observation","info_2","info","5","","","","","",""
"","","","","","html-keyboard-response","42","144565","0.0-42.0","","null","<div class=""stimulus-container""><img src=""images_story_vs_info/info_2_6_a.png"" class=""exp-image""><div class=""question-area""></div></div>","null","","","","","","","","","",""
"","","","","","html-button-response","43","147319","0.0-43.0","","2752","<div class=""stimulus-container""><img src=""images_story_vs_info/info_2_6_a.png"" class=""exp-image""><div class=""question-area""><p style=""font-size: 20px; font-weight: bold; margin: 0;"">Is there a person in this image?</p></div></div>","1","observation","info_2","info","6","","","","","",""
"","","","","","html-keyboard-response","44","149327","0.0-44.0","","null","<div class=""transition-square""></div>","null","","","","","","","","","",""
"","","","","","html-keyboard-response","45","154341","0.0-45.0","","null","<div class=""stimulus-container""><img src=""images_story_vs_info/story_4_1.png"" class=""exp-image""><div class=""question-area""></div></div>","null","","","","","","","","","",""
"","","","","","html-button-response","46","155455","0.0-46.0","","1113","<div class=""stimulus-container""><img src=""images_story_vs_info/story_4_1.png"" class=""exp-image""><div class=""question-area""><p style=""font-size: 20px; font-weight: bold; margin: 0;"">Is there a person in this image?</p></div></div>","1","observation","story_4","story","1","","","","","",""
"","","","","","html-keyboard-response","47","160469","0.0-47.0","","null","<div class=""stimulus-container""><img src=""images_story_vs_info/story_4_2.png"" class=""exp-image""><div class=""question-area""></div></div>","null","","","","","","","","","",""
"","","","","","html-button-response","48","161237","0.0-48.0","","767","<div class=""stimulus-container""><img src=""images_story_vs_info/story_4_2.png"" class=""exp-image""><div class=""question-area""><p style=""font-size: 20px; font-weight: bold; margin: 0;"">Is there a person in this image?</p></div></div>","1","observation","story_4","story","2","","","","","",""
"","","","","","html-keyboard-response","49","166245","0.0-49.0","","null","<div class=""stimulus-container""><img src=""images_story_vs_info/story_4_3.png"" class=""exp-image""><div class=""question-area""></div></div>","null","","","","","","","","","",""
"","","","","","html-button-response","50","167068","0.0-50.0","","821","<div class=""stimulus-container""><img src=""images_story_vs_info/story_4_3.png"" class=""exp-image""><div class=""question-area""><p style=""font-size: 20px; font-weight: bold; margin: 0;"">Is there a person in this image?</p></div></div>","1","observation","story_4","story","3","","","","","",""
"","","","","","html-keyboard-response","51","172073","0.0-51.0","","null","<div class=""stimulus-container""><img src=""images_story_vs_info/story_4_4.png"" class=""exp-image""><div class=""question-area""></div></div>","null","","","","","","","","","",""
"","","","","","html-button-response","52","172919","0.0-52.0","","845","<div class=""stimulus-container""><img src=""images_story_vs_info/story_4_4.png"" class=""exp-image""><div class=""question-area""><p style=""font-size: 20px; font-weight: bold; margin: 0;"">Is there a person in this image?</p></div></div>","1","observation","story_4","story","4","","","","","",""
"","","","","","html-keyboard-response","53","177922","0.0-53.0","","null","<div class=""stimulus-container""><img src=""images_story_vs_info/story_4_5.png"" class=""exp-image""><div class=""question-area""></div></div>","null","","","","","","","","","",""
"","","","","","html-button-response","54","178774","0.0-54.0","","851","<div class=""stimulus-container""><img src=""images_story_vs_info/story_4_5.png"" class=""exp-image""><div class=""question-area""><p style=""font-size: 20px; font-weight: bold; margin: 0;"">Is there a person in this image?</p></div></div>","1","observation","story_4","story","5","","","","","",""
"","","","","","html-keyboard-response","55","183785","0.0-55.0","","null","<div class=""stimulus-container""><img src=""images_story_vs_info/story_4_6_a.png"" class=""exp-image""><div class=""question-area""></div></div>","null","","","","","","","","","",""
"","","","","","html-button-response","56","184656","0.0-56.0","","870","<div class=""stimulus-container""><img src=""images_story_vs_info/story_4_6_a.png"" class=""exp-image""><div class=""question-area""><p style=""font-size: 20px; font-weight: bold; margin: 0;"">Is there a person in this image?</p></div></div>","0","observation","story_4","story","6","","","","","",""
"","","","","","instructions","57","193905","0.0-57.0","[{""page_index"":0,""viewing_time"":9248}]","9249","","","","","","","","","","","",""
"","","","","","html-button-response","58","199008","0.0-58.0","","5101","
                <div style=""font-family: Arial; margin-bottom: 20px;""><h3>Which image is worth <b>more money</b>?</h3></div>
                <div class=""stimulus-container"" style=""display: flex; flex-direction: row; width: 800px; justify-content: center; gap: 30px;"">
                    <img src=""images_story_vs_info/story_4_3.png"" class=""small-image"">
                    <img src=""images_story_vs_info/info_2_3.png"" class=""small-image"">
                </div>","0","choice_comparison","","","","Valuable_Story_vs_Info","3","story_4","info_2","images_story_vs_info/story_4_3.png","images_story_vs_info/info_2_3.png"
"","","","","","html-button-response","59","201399","0.0-59.0","","2389","
                <div style=""font-family: Arial; margin-bottom: 20px;""><h3>Which image is worth <b>more money</b>?</h3></div>
                <div class=""stimulus-container"" style=""display: flex; flex-direction: row; width: 800px; justify-content: center; gap: 30px;"">
                    <img src=""images_story_vs_info/info_2_4.png"" class=""small-image"">
                    <img src=""images_story_vs_info/story_4_4.png"" class=""small-image"">
                </div>","1","choice_comparison","","","","Valuable_Story_vs_Info","4","story_4","info_2","images_story_vs_info/info_2_4.png","images_story_vs_info/story_4_4.png"
"","","","","","html-button-response","60","205304","0.0-60.0","","3904","
                <div style=""font-family: Arial; margin-bottom: 20px;""><h3>Which image is worth <b>more money</b>?</h3></div>
                <div class=""stimulus-container"" style=""display: flex; flex-direction: row; width: 800px; justify-content: center; gap: 30px;"">
                    <img src=""images_story_vs_info/story_1_2.png"" class=""small-image"">
                    <img src=""images_story_vs_info/info_3_2.png"" class=""small-image"">
                </div>","1","choice_comparison","","","","Neutral_Story_vs_Info","2","story_1","info_3","images_story_vs_info/story_1_2.png","images_story_vs_info/info_3_2.png"
"","","","","","html-button-response","61","207125","0.0-61.0","","1820","
                <div style=""font-family: Arial; margin-bottom: 20px;""><h3>Which image is worth <b>more money</b>?</h3></div>
                <div class=""stimulus-container"" style=""display: flex; flex-direction: row; width: 800px; justify-content: center; gap: 30px;"">
                    <img src=""images_story_vs_info/story_1_6_b.png"" class=""small-image"">
                    <img src=""images_story_vs_info/info_3_6_b.png"" class=""small-image"">
                </div>","1","choice_comparison","","","","Neutral_Story_vs_Info","6","story_1","info_3","images_story_vs_info/story_1_6_b.png","images_story_vs_info/info_3_6_b.png"
"","","","","","html-button-response","62","208356","0.0-62.0","","1230","
                <div style=""font-family: Arial; margin-bottom: 20px;""><h3>Which image is worth <b>more money</b>?</h3></div>
                <div class=""stimulus-container"" style=""display: flex; flex-direction: row; width: 800px; justify-content: center; gap: 30px;"">
                    <img src=""images_story_vs_info/story_1_1.png"" class=""small-image"">
                    <img src=""images_story_vs_info/info_3_1.png"" class=""small-image"">
                </div>","1","choice_comparison","","","","Neutral_Story_vs_Info","1","story_1","info_3","images_story_vs_info/story_1_1.png","images_story_vs_info/info_3_1.png"
"","","","","","html-button-response","63","210234","0.0-63.0","","1877","
                <div style=""font-family: Arial; margin-bottom: 20px;""><h3>Which image is worth <b>more money</b>?</h3></div>
                <div class=""stimulus-container"" style=""display: flex; flex-direction: row; width: 800px; justify-content: center; gap: 30px;"">
                    <img src=""images_story_vs_info/info_3_4.png"" class=""small-image"">
                    <img src=""images_story_vs_info/story_1_4.png"" class=""small-image"">
                </div>","1","choice_comparison","","","","Neutral_Story_vs_Info","4","story_1","info_3","images_story_vs_info/info_3_4.png","images_story_vs_info/story_1_4.png"
"","","","","","html-button-response","64","211412","0.0-64.0","","1176","
                <div style=""font-family: Arial; margin-bottom: 20px;""><h3>Which image is worth <b>more money</b>?</h3></div>
                <div class=""stimulus-container"" style=""display: flex; flex-direction: row; width: 800px; justify-content: center; gap: 30px;"">
                    <img src=""images_story_vs_info/info_3_5.png"" class=""small-image"">
                    <img src=""images_story_vs_info/story_1_5.png"" class=""small-image"">
                </div>","1","choice_comparison","","","","Neutral_Story_vs_Info","5","story_1","info_3","images_story_vs_info/info_3_5.png","images_story_vs_info/story_1_5.png"
"","","","","","html-button-response","65","216205","0.0-65.0","","4791","
                <div style=""font-family: Arial; margin-bottom: 20px;""><h3>Which image is worth <b>more money</b>?</h3></div>
                <div class=""stimulus-container"" style=""display: flex; flex-direction: row; width: 800px; justify-content: center; gap: 30px;"">
                    <img src=""images_story_vs_info/info_2_6_a.png"" class=""small-image"">
                    <img src=""images_story_vs_info/story_4_6_a.png"" class=""small-image"">
                </div>","1","choice_comparison","","","","Valuable_Story_vs_Info","6","story_4","info_2","images_story_vs_info/info_2_6_a.png","images_story_vs_info/story_4_6_a.png"
"","","","","","html-button-response","66","217608","0.0-66.0","","1391","
                <div style=""font-family: Arial; margin-bottom: 20px;""><h3>Which image is worth <b>more money</b>?</h3></div>
                <div class=""stimulus-container"" style=""display: flex; flex-direction: row; width: 800px; justify-content: center; gap: 30px;"">
                    <img src=""images_story_vs_info/story_4_5.png"" class=""small-image"">
                    <img src=""images_story_vs_info/info_2_5.png"" class=""small-image"">
                </div>","1","choice_comparison","","","","Valuable_Story_vs_Info","5","story_4","info_2","images_story_vs_info/story_4_5.png","images_story_vs_info/info_2_5.png"
"","","","","","html-button-response","67","218955","0.0-67.0","","1345","
                <div style=""font-family: Arial; margin-bottom: 20px;""><h3>Which image is worth <b>more money</b>?</h3></div>
                <div class=""stimulus-container"" style=""display: flex; flex-direction: row; width: 800px; justify-content: center; gap: 30px;"">
                    <img src=""images_story_vs_info/story_4_2.png"" class=""small-image"">
                    <img src=""images_story_vs_info/info_2_2.png"" class=""small-image"">
                </div>","1","choice_comparison","","","","Valuable_Story_vs_Info","2","story_4","info_2","images_story_vs_info/story_4_2.png","images_story_vs_info/info_2_2.png"
"","","","","","html-button-response","68","220545","0.0-68.0","","1588","
                <div style=""font-family: Arial; margin-bottom: 20px;""><h3>Which image is worth <b>more money</b>?</h3></div>
                <div class=""stimulus-container"" style=""display: flex; flex-direction: row; width: 800px; justify-content: center; gap: 30px;"">
                    <img src=""images_story_vs_info/info_3_3.png"" class=""small-image"">
                    <img src=""images_story_vs_info/story_1_3.png"" class=""small-image"">
                </div>","0","choice_comparison","","","","Neutral_Story_vs_Info","3","story_1","info_3","images_story_vs_info/info_3_3.png","images_story_vs_info/story_1_3.png"
"","","","","","html-button-response","69","222501","0.0-69.0","","1954","
                <div style=""font-family: Arial; margin-bottom: 20px;""><h3>Which image is worth <b>more money</b>?</h3></div>
                <div class=""stimulus-container"" style=""display: flex; flex-direction: row; width: 800px; justify-content: center; gap: 30px;"">
                    <img src=""images_story_vs_info/info_2_1.png"" class=""small-image"">
                    <img src=""images_story_vs_info/story_4_1.png"" class=""small-image"">
                </div>","1","choice_comparison","","","","Valuable_Story_vs_Info","1","story_4","info_2","images_story_vs_info/info_2_1.png","images_story_vs_info/story_4_1.png"
"","","","","","survey-text","70","257059","0.0-70.0","","34530","","{""choice_strategy"":""I tried to assess the relative value of each image, at least based on my own opinion and then made a judgement call."",""gender"":""Male"",""age"":""34""}","","","","","","","","","",""
"","","","","","instructions","71","264874","0.0-71.0","[{""page_index"":0,""viewing_time"":7814}]","7815","","","","","","","","","","","",""
