"success","timeout","failed_images","failed_audio","failed_video","trial_type","trial_index","time_elapsed","internal_node_id","subject_id","study_id","session_id","view_history","rt","stimulus","response","task","image_index","folder","sequence_type","valuable_image_index","reward_type","chosen_image_index","target_X","correct_choice"
"true","false","[]","[]","[]","preload","0","8818","0.0-0.0","FD4D9DF6EED34CE78ED3728EAF1E9D18","019cf4f7-9bc1-707b-9de4-c99a5815e22d","019cf4c8-1de8-79ec-b3bd-d98520647593","","","","","","","","","","","","",""
"","","","","","instructions","1","78672","0.0-1.0","FD4D9DF6EED34CE78ED3728EAF1E9D18","019cf4f7-9bc1-707b-9de4-c99a5815e22d","019cf4c8-1de8-79ec-b3bd-d98520647593","[{""page_index"":0,""viewing_time"":69547}]","69547","","","","","","","","","","",""
"","","","","","instructions","2","80936","0.0-2.0","FD4D9DF6EED34CE78ED3728EAF1E9D18","019cf4f7-9bc1-707b-9de4-c99a5815e22d","019cf4c8-1de8-79ec-b3bd-d98520647593","[{""page_index"":0,""viewing_time"":2263}]","2263","","","","","","","","","","",""
"true","","","","","fullscreen","3","1269370","0.0-3.0","FD4D9DF6EED34CE78ED3728EAF1E9D18","019cf4f7-9bc1-707b-9de4-c99a5815e22d","019cf4c8-1de8-79ec-b3bd-d98520647593","","1187625","","","","","","","","","","",""
"","","","","","instructions","4","2132199","0.0-4.0","FD4D9DF6EED34CE78ED3728EAF1E9D18","019cf4f7-9bc1-707b-9de4-c99a5815e22d","019cf4c8-1de8-79ec-b3bd-d98520647593","[{""page_index"":0,""viewing_time"":569842}]","569842","","","","","","","","","","",""
"","","","","","instructions","5","2456074","0.0-5.0","FD4D9DF6EED34CE78ED3728EAF1E9D18","019cf4f7-9bc1-707b-9de4-c99a5815e22d","019cf4c8-1de8-79ec-b3bd-d98520647593","[{""page_index"":0,""viewing_time"":323864}]","323864","","","","","","","","","","",""
"","","","","","html-keyboard-response","6","2460076","0.0-6.0","FD4D9DF6EED34CE78ED3728EAF1E9D18","019cf4f7-9bc1-707b-9de4-c99a5815e22d","019cf4c8-1de8-79ec-b3bd-d98520647593","","null","
                <div class=""stimulus-container"">
                    <img src=""images/instructions/movie_1.png"" class=""exp-image"">
                    <div class=""question-area""></div> 
                </div>","null","","","","","","","","",""
"","","","","","html-button-response","7","2461768","0.0-7.0","FD4D9DF6EED34CE78ED3728EAF1E9D18","019cf4f7-9bc1-707b-9de4-c99a5815e22d","019cf4c8-1de8-79ec-b3bd-d98520647593","","1690","
                <div class=""stimulus-container"">
                    <img src=""images/instructions/movie_1.png"" class=""exp-image"">
                    <div class=""question-area"">
                        <p style=""font-size: 20px; font-weight: bold; margin: 0;"">Was there a person in this image?</p>
                    </div>
                </div>","0","example_question","1","","","","","","",""
"","","","","","html-keyboard-response","8","2465771","0.0-8.0","FD4D9DF6EED34CE78ED3728EAF1E9D18","019cf4f7-9bc1-707b-9de4-c99a5815e22d","019cf4c8-1de8-79ec-b3bd-d98520647593","","null","
                <div class=""stimulus-container"">
                    <img src=""images/instructions/movie_2.png"" class=""exp-image"">
                    <div class=""question-area""></div> 
                </div>","null","","","","","","","","",""
"","","","","","html-button-response","9","2467419","0.0-9.0","FD4D9DF6EED34CE78ED3728EAF1E9D18","019cf4f7-9bc1-707b-9de4-c99a5815e22d","019cf4c8-1de8-79ec-b3bd-d98520647593","","1647","
                <div class=""stimulus-container"">
                    <img src=""images/instructions/movie_2.png"" class=""exp-image"">
                    <div class=""question-area"">
                        <p style=""font-size: 20px; font-weight: bold; margin: 0;"">Was there a person in this image?</p>
                    </div>
                </div>","0","example_question","2","","","","","","",""
"","","","","","html-keyboard-response","10","2471422","0.0-10.0","FD4D9DF6EED34CE78ED3728EAF1E9D18","019cf4f7-9bc1-707b-9de4-c99a5815e22d","019cf4c8-1de8-79ec-b3bd-d98520647593","","null","
                <div class=""stimulus-container"">
                    <img src=""images/instructions/movie_3.png"" class=""exp-image"">
                    <div class=""question-area""></div> 
                </div>","null","","","","","","","","",""
"","","","","","html-button-response","11","2472625","0.0-11.0","FD4D9DF6EED34CE78ED3728EAF1E9D18","019cf4f7-9bc1-707b-9de4-c99a5815e22d","019cf4c8-1de8-79ec-b3bd-d98520647593","","1202","
                <div class=""stimulus-container"">
                    <img src=""images/instructions/movie_3.png"" class=""exp-image"">
                    <div class=""question-area"">
                        <p style=""font-size: 20px; font-weight: bold; margin: 0;"">Was there a person in this image?</p>
                    </div>
                </div>","0","example_question","3","","","","","","",""
"","","","","","html-keyboard-response","12","2476628","0.0-12.0","FD4D9DF6EED34CE78ED3728EAF1E9D18","019cf4f7-9bc1-707b-9de4-c99a5815e22d","019cf4c8-1de8-79ec-b3bd-d98520647593","","null","
                <div class=""stimulus-container"">
                    <img src=""images/instructions/movie_4.png"" class=""exp-image"">
                    <div class=""question-area""></div> 
                </div>","null","","","","","","","","",""
"","","","","","html-button-response","13","2478339","0.0-13.0","FD4D9DF6EED34CE78ED3728EAF1E9D18","019cf4f7-9bc1-707b-9de4-c99a5815e22d","019cf4c8-1de8-79ec-b3bd-d98520647593","","1710","
                <div class=""stimulus-container"">
                    <img src=""images/instructions/movie_4.png"" class=""exp-image"">
                    <div class=""question-area"">
                        <p style=""font-size: 20px; font-weight: bold; margin: 0;"">Was there a person in this image?</p>
                    </div>
                </div>","0","example_question","4","","","","","","",""
"","","","","","instructions","14","2691996","0.0-14.0","FD4D9DF6EED34CE78ED3728EAF1E9D18","019cf4f7-9bc1-707b-9de4-c99a5815e22d","019cf4c8-1de8-79ec-b3bd-d98520647593","[{""page_index"":0,""viewing_time"":213650}]","213650","","","","","","","","","","",""
"","","","","","instructions","15","2694382","0.0-15.0","FD4D9DF6EED34CE78ED3728EAF1E9D18","019cf4f7-9bc1-707b-9de4-c99a5815e22d","019cf4c8-1de8-79ec-b3bd-d98520647593","[{""page_index"":0,""viewing_time"":2386}]","2386","","","","","","","","","","",""
"","","","","","html-keyboard-response","16","2695385","0.0-16.0","FD4D9DF6EED34CE78ED3728EAF1E9D18","019cf4f7-9bc1-707b-9de4-c99a5815e22d","019cf4c8-1de8-79ec-b3bd-d98520647593","","null","<div style=""background-color: white; width: 100vw; height: 100vh;""></div>","null","","","","","","","","",""
"","","","","","html-keyboard-response","17","2700388","0.0-17.0","FD4D9DF6EED34CE78ED3728EAF1E9D18","019cf4f7-9bc1-707b-9de4-c99a5815e22d","019cf4c8-1de8-79ec-b3bd-d98520647593","","null","
                <div class=""stimulus-container"">
                    <img src=""images/schematic_sequence/dinner_party_scheme/dinner_party_scheme_1.png"" class=""exp-image"">
                    <div class=""question-area""></div> 
                </div>","null","","","","","","","","",""
"","","","","","html-button-response","18","2701241","0.0-18.0","FD4D9DF6EED34CE78ED3728EAF1E9D18","019cf4f7-9bc1-707b-9de4-c99a5815e22d","019cf4c8-1de8-79ec-b3bd-d98520647593","","852","
                <div class=""stimulus-container"">
                    <img src=""images/schematic_sequence/dinner_party_scheme/dinner_party_scheme_1.png"" class=""exp-image"">
                    <div class=""question-area"">
                        <p style=""font-size: 20px; font-weight: bold; margin: 0;"">Is there a person in this image?</p>
                    </div>
                </div>","0","main_experiment_trial","1","dinner_party_scheme","schematic_sequence","","","","",""
"","","","","","html-keyboard-response","19","2706244","0.0-19.0","FD4D9DF6EED34CE78ED3728EAF1E9D18","019cf4f7-9bc1-707b-9de4-c99a5815e22d","019cf4c8-1de8-79ec-b3bd-d98520647593","","null","
                <div class=""stimulus-container"">
                    <img src=""images/schematic_sequence/dinner_party_scheme/dinner_party_scheme_2.png"" class=""exp-image"">
                    <div class=""question-area""></div> 
                </div>","null","","","","","","","","",""
"","","","","","html-button-response","20","2706813","0.0-20.0","FD4D9DF6EED34CE78ED3728EAF1E9D18","019cf4f7-9bc1-707b-9de4-c99a5815e22d","019cf4c8-1de8-79ec-b3bd-d98520647593","","568","
                <div class=""stimulus-container"">
                    <img src=""images/schematic_sequence/dinner_party_scheme/dinner_party_scheme_2.png"" class=""exp-image"">
                    <div class=""question-area"">
                        <p style=""font-size: 20px; font-weight: bold; margin: 0;"">Is there a person in this image?</p>
                    </div>
                </div>","0","main_experiment_trial","2","dinner_party_scheme","schematic_sequence","","","","",""
"","","","","","html-keyboard-response","21","2711816","0.0-21.0","FD4D9DF6EED34CE78ED3728EAF1E9D18","019cf4f7-9bc1-707b-9de4-c99a5815e22d","019cf4c8-1de8-79ec-b3bd-d98520647593","","null","
                <div class=""stimulus-container"">
                    <img src=""images/schematic_sequence/dinner_party_scheme/dinner_party_scheme_3.png"" class=""exp-image"">
                    <div class=""question-area""></div> 
                </div>","null","","","","","","","","",""
"","","","","","html-button-response","22","2712732","0.0-22.0","FD4D9DF6EED34CE78ED3728EAF1E9D18","019cf4f7-9bc1-707b-9de4-c99a5815e22d","019cf4c8-1de8-79ec-b3bd-d98520647593","","914","
                <div class=""stimulus-container"">
                    <img src=""images/schematic_sequence/dinner_party_scheme/dinner_party_scheme_3.png"" class=""exp-image"">
                    <div class=""question-area"">
                        <p style=""font-size: 20px; font-weight: bold; margin: 0;"">Is there a person in this image?</p>
                    </div>
                </div>","0","main_experiment_trial","3","dinner_party_scheme","schematic_sequence","","","","",""
"","","","","","html-keyboard-response","23","2717735","0.0-23.0","FD4D9DF6EED34CE78ED3728EAF1E9D18","019cf4f7-9bc1-707b-9de4-c99a5815e22d","019cf4c8-1de8-79ec-b3bd-d98520647593","","null","
                <div class=""stimulus-container"">
                    <img src=""images/schematic_sequence/dinner_party_scheme/dinner_party_scheme_4.png"" class=""exp-image"">
                    <div class=""question-area""></div> 
                </div>","null","","","","","","","","",""
"","","","","","html-button-response","24","2718488","0.0-24.0","FD4D9DF6EED34CE78ED3728EAF1E9D18","019cf4f7-9bc1-707b-9de4-c99a5815e22d","019cf4c8-1de8-79ec-b3bd-d98520647593","","752","
                <div class=""stimulus-container"">
                    <img src=""images/schematic_sequence/dinner_party_scheme/dinner_party_scheme_4.png"" class=""exp-image"">
                    <div class=""question-area"">
                        <p style=""font-size: 20px; font-weight: bold; margin: 0;"">Is there a person in this image?</p>
                    </div>
                </div>","0","main_experiment_trial","4","dinner_party_scheme","schematic_sequence","","","","",""
"","","","","","html-keyboard-response","25","2723490","0.0-25.0","FD4D9DF6EED34CE78ED3728EAF1E9D18","019cf4f7-9bc1-707b-9de4-c99a5815e22d","019cf4c8-1de8-79ec-b3bd-d98520647593","","null","
                <div class=""stimulus-container"">
                    <img src=""images/schematic_sequence/dinner_party_scheme/dinner_party_scheme_5.png"" class=""exp-image"">
                    <div class=""question-area""></div> 
                </div>","null","","","","","","","","",""
"","","","","","html-button-response","26","2724548","0.0-26.0","FD4D9DF6EED34CE78ED3728EAF1E9D18","019cf4f7-9bc1-707b-9de4-c99a5815e22d","019cf4c8-1de8-79ec-b3bd-d98520647593","","1057","
                <div class=""stimulus-container"">
                    <img src=""images/schematic_sequence/dinner_party_scheme/dinner_party_scheme_5.png"" class=""exp-image"">
                    <div class=""question-area"">
                        <p style=""font-size: 20px; font-weight: bold; margin: 0;"">Is there a person in this image?</p>
                    </div>
                </div>","0","main_experiment_trial","5","dinner_party_scheme","schematic_sequence","","","","",""
"","","","","","html-keyboard-response","27","2729550","0.0-27.0","FD4D9DF6EED34CE78ED3728EAF1E9D18","019cf4f7-9bc1-707b-9de4-c99a5815e22d","019cf4c8-1de8-79ec-b3bd-d98520647593","","null","
                <div class=""stimulus-container"">
                    <img src=""images/schematic_sequence/dinner_party_scheme/dinner_party_scheme_6.png"" class=""exp-image"">
                    <div class=""question-area""></div> 
                </div>","null","","","","","","","","",""
"","","","","","html-button-response","28","2731128","0.0-28.0","FD4D9DF6EED34CE78ED3728EAF1E9D18","019cf4f7-9bc1-707b-9de4-c99a5815e22d","019cf4c8-1de8-79ec-b3bd-d98520647593","","1577","
                <div class=""stimulus-container"">
                    <img src=""images/schematic_sequence/dinner_party_scheme/dinner_party_scheme_6.png"" class=""exp-image"">
                    <div class=""question-area"">
                        <p style=""font-size: 20px; font-weight: bold; margin: 0;"">Is there a person in this image?</p>
                    </div>
                </div>","0","main_experiment_trial","6","dinner_party_scheme","schematic_sequence","","","","",""
"","","","","","html-keyboard-response","29","2736130","0.0-29.0","FD4D9DF6EED34CE78ED3728EAF1E9D18","019cf4f7-9bc1-707b-9de4-c99a5815e22d","019cf4c8-1de8-79ec-b3bd-d98520647593","","null","
                <div class=""stimulus-container"">
                    <img src=""images/schematic_sequence/dinner_party_scheme/dinner_party_scheme_7.png"" class=""exp-image"">
                    <div class=""question-area""></div> 
                </div>","null","","","","","","","","",""
"","","","","","html-button-response","30","2736937","0.0-30.0","FD4D9DF6EED34CE78ED3728EAF1E9D18","019cf4f7-9bc1-707b-9de4-c99a5815e22d","019cf4c8-1de8-79ec-b3bd-d98520647593","","805","
                <div class=""stimulus-container"">
                    <img src=""images/schematic_sequence/dinner_party_scheme/dinner_party_scheme_7.png"" class=""exp-image"">
                    <div class=""question-area"">
                        <p style=""font-size: 20px; font-weight: bold; margin: 0;"">Is there a person in this image?</p>
                    </div>
                </div>","0","main_experiment_trial","7","dinner_party_scheme","schematic_sequence","","","","",""
"","","","","","html-keyboard-response","31","2741939","0.0-31.0","FD4D9DF6EED34CE78ED3728EAF1E9D18","019cf4f7-9bc1-707b-9de4-c99a5815e22d","019cf4c8-1de8-79ec-b3bd-d98520647593","","null","
                <div class=""stimulus-container"">
                    <img src=""images/schematic_sequence/dinner_party_scheme/dinner_party_scheme_8.png"" class=""exp-image"">
                    <div class=""question-area""></div> 
                </div>","null","","","","","","","","",""
"","","","","","html-button-response","32","2742512","0.0-32.0","FD4D9DF6EED34CE78ED3728EAF1E9D18","019cf4f7-9bc1-707b-9de4-c99a5815e22d","019cf4c8-1de8-79ec-b3bd-d98520647593","","572","
                <div class=""stimulus-container"">
                    <img src=""images/schematic_sequence/dinner_party_scheme/dinner_party_scheme_8.png"" class=""exp-image"">
                    <div class=""question-area"">
                        <p style=""font-size: 20px; font-weight: bold; margin: 0;"">Is there a person in this image?</p>
                    </div>
                </div>","0","main_experiment_trial","8","dinner_party_scheme","schematic_sequence","","","","",""
"","","","","","html-keyboard-response","33","2747514","0.0-33.0","FD4D9DF6EED34CE78ED3728EAF1E9D18","019cf4f7-9bc1-707b-9de4-c99a5815e22d","019cf4c8-1de8-79ec-b3bd-d98520647593","","null","
                <div class=""stimulus-container"">
                    <img src=""images/schematic_sequence/dinner_party_scheme/dinner_party_scheme_9.png"" class=""exp-image"">
                    <div class=""question-area""></div> 
                </div>","null","","","","","","","","",""
"","","","","","html-button-response","34","2748810","0.0-34.0","FD4D9DF6EED34CE78ED3728EAF1E9D18","019cf4f7-9bc1-707b-9de4-c99a5815e22d","019cf4c8-1de8-79ec-b3bd-d98520647593","","1295","
                <div class=""stimulus-container"">
                    <img src=""images/schematic_sequence/dinner_party_scheme/dinner_party_scheme_9.png"" class=""exp-image"">
                    <div class=""question-area"">
                        <p style=""font-size: 20px; font-weight: bold; margin: 0;"">Is there a person in this image?</p>
                    </div>
                </div>","0","main_experiment_trial","9","dinner_party_scheme","schematic_sequence","","","","",""
"","","","","","html-keyboard-response","35","2753811","0.0-35.0","FD4D9DF6EED34CE78ED3728EAF1E9D18","019cf4f7-9bc1-707b-9de4-c99a5815e22d","019cf4c8-1de8-79ec-b3bd-d98520647593","","null","
                <div class=""stimulus-container"">
                    <img src=""images/schematic_sequence/dinner_party_scheme/dinner_party_scheme_ten.png"" class=""exp-image"">
                    <div class=""question-area""></div> 
                </div>","null","","","","","","","","",""
"","","","","","html-button-response","36","2754745","0.0-36.0","FD4D9DF6EED34CE78ED3728EAF1E9D18","019cf4f7-9bc1-707b-9de4-c99a5815e22d","019cf4c8-1de8-79ec-b3bd-d98520647593","","933","
                <div class=""stimulus-container"">
                    <img src=""images/schematic_sequence/dinner_party_scheme/dinner_party_scheme_ten.png"" class=""exp-image"">
                    <div class=""question-area"">
                        <p style=""font-size: 20px; font-weight: bold; margin: 0;"">Is there a person in this image?</p>
                    </div>
                </div>","0","main_experiment_trial","ten","dinner_party_scheme","schematic_sequence","","","","",""
"","","","","","html-keyboard-response","37","2755747","0.0-37.0","FD4D9DF6EED34CE78ED3728EAF1E9D18","019cf4f7-9bc1-707b-9de4-c99a5815e22d","019cf4c8-1de8-79ec-b3bd-d98520647593","","null","<div style=""background-color: white; width: 100vw; height: 100vh;""></div>","null","","","","","","","","",""
"","","","","","html-keyboard-response","38","2760750","0.0-38.0","FD4D9DF6EED34CE78ED3728EAF1E9D18","019cf4f7-9bc1-707b-9de4-c99a5815e22d","019cf4c8-1de8-79ec-b3bd-d98520647593","","null","
                <div class=""stimulus-container"">
                    <img src=""images/schematic_sequence/flight_scheme/flight_scheme_1.png"" class=""exp-image"">
                    <div class=""question-area""></div> 
                </div>","null","","","","","","","","",""
"","","","","","html-button-response","39","2761814","0.0-39.0","FD4D9DF6EED34CE78ED3728EAF1E9D18","019cf4f7-9bc1-707b-9de4-c99a5815e22d","019cf4c8-1de8-79ec-b3bd-d98520647593","","1063","
                <div class=""stimulus-container"">
                    <img src=""images/schematic_sequence/flight_scheme/flight_scheme_1.png"" class=""exp-image"">
                    <div class=""question-area"">
                        <p style=""font-size: 20px; font-weight: bold; margin: 0;"">Is there a person in this image?</p>
                    </div>
                </div>","0","main_experiment_trial","1","flight_scheme","schematic_sequence","","","","",""
"","","","","","html-keyboard-response","40","2766817","0.0-40.0","FD4D9DF6EED34CE78ED3728EAF1E9D18","019cf4f7-9bc1-707b-9de4-c99a5815e22d","019cf4c8-1de8-79ec-b3bd-d98520647593","","null","
                <div class=""stimulus-container"">
                    <img src=""images/schematic_sequence/flight_scheme/flight_scheme_2.png"" class=""exp-image"">
                    <div class=""question-area""></div> 
                </div>","null","","","","","","","","",""
"","","","","","html-button-response","41","2769354","0.0-41.0","FD4D9DF6EED34CE78ED3728EAF1E9D18","019cf4f7-9bc1-707b-9de4-c99a5815e22d","019cf4c8-1de8-79ec-b3bd-d98520647593","","2536","
                <div class=""stimulus-container"">
                    <img src=""images/schematic_sequence/flight_scheme/flight_scheme_2.png"" class=""exp-image"">
                    <div class=""question-area"">
                        <p style=""font-size: 20px; font-weight: bold; margin: 0;"">Is there a person in this image?</p>
                    </div>
                </div>","1","main_experiment_trial","2","flight_scheme","schematic_sequence","","","","",""
"","","","","","html-keyboard-response","42","2774356","0.0-42.0","FD4D9DF6EED34CE78ED3728EAF1E9D18","019cf4f7-9bc1-707b-9de4-c99a5815e22d","019cf4c8-1de8-79ec-b3bd-d98520647593","","null","
                <div class=""stimulus-container"">
                    <img src=""images/schematic_sequence/flight_scheme/flight_scheme_3.png"" class=""exp-image"">
                    <div class=""question-area""></div> 
                </div>","null","","","","","","","","",""
"","","","","","html-button-response","43","2775908","0.0-43.0","FD4D9DF6EED34CE78ED3728EAF1E9D18","019cf4f7-9bc1-707b-9de4-c99a5815e22d","019cf4c8-1de8-79ec-b3bd-d98520647593","","1550","
                <div class=""stimulus-container"">
                    <img src=""images/schematic_sequence/flight_scheme/flight_scheme_3.png"" class=""exp-image"">
                    <div class=""question-area"">
                        <p style=""font-size: 20px; font-weight: bold; margin: 0;"">Is there a person in this image?</p>
                    </div>
                </div>","0","main_experiment_trial","3","flight_scheme","schematic_sequence","","","","",""
"","","","","","html-keyboard-response","44","2780911","0.0-44.0","FD4D9DF6EED34CE78ED3728EAF1E9D18","019cf4f7-9bc1-707b-9de4-c99a5815e22d","019cf4c8-1de8-79ec-b3bd-d98520647593","","null","
                <div class=""stimulus-container"">
                    <img src=""images/schematic_sequence/flight_scheme/flight_scheme_4.png"" class=""exp-image"">
                    <div class=""question-area""></div> 
                </div>","null","","","","","","","","",""
"","","","","","html-button-response","45","2782655","0.0-45.0","FD4D9DF6EED34CE78ED3728EAF1E9D18","019cf4f7-9bc1-707b-9de4-c99a5815e22d","019cf4c8-1de8-79ec-b3bd-d98520647593","","1743","
                <div class=""stimulus-container"">
                    <img src=""images/schematic_sequence/flight_scheme/flight_scheme_4.png"" class=""exp-image"">
                    <div class=""question-area"">
                        <p style=""font-size: 20px; font-weight: bold; margin: 0;"">Is there a person in this image?</p>
                    </div>
                </div>","0","main_experiment_trial","4","flight_scheme","schematic_sequence","","","","",""
"","","","","","html-keyboard-response","46","2787658","0.0-46.0","FD4D9DF6EED34CE78ED3728EAF1E9D18","019cf4f7-9bc1-707b-9de4-c99a5815e22d","019cf4c8-1de8-79ec-b3bd-d98520647593","","null","
                <div class=""stimulus-container"">
                    <img src=""images/schematic_sequence/flight_scheme/flight_scheme_5.png"" class=""exp-image"">
                    <div class=""question-area""></div> 
                </div>","null","","","","","","","","",""
"","","","","","html-button-response","47","2788857","0.0-47.0","FD4D9DF6EED34CE78ED3728EAF1E9D18","019cf4f7-9bc1-707b-9de4-c99a5815e22d","019cf4c8-1de8-79ec-b3bd-d98520647593","","1198","
                <div class=""stimulus-container"">
                    <img src=""images/schematic_sequence/flight_scheme/flight_scheme_5.png"" class=""exp-image"">
                    <div class=""question-area"">
                        <p style=""font-size: 20px; font-weight: bold; margin: 0;"">Is there a person in this image?</p>
                    </div>
                </div>","0","main_experiment_trial","5","flight_scheme","schematic_sequence","","","","",""
"","","","","","html-keyboard-response","48","2793858","0.0-48.0","FD4D9DF6EED34CE78ED3728EAF1E9D18","019cf4f7-9bc1-707b-9de4-c99a5815e22d","019cf4c8-1de8-79ec-b3bd-d98520647593","","null","
                <div class=""stimulus-container"">
                    <img src=""images/schematic_sequence/flight_scheme/flight_scheme_6.png"" class=""exp-image"">
                    <div class=""question-area""></div> 
                </div>","null","","","","","","","","",""
"","","","","","html-button-response","49","2794623","0.0-49.0","FD4D9DF6EED34CE78ED3728EAF1E9D18","019cf4f7-9bc1-707b-9de4-c99a5815e22d","019cf4c8-1de8-79ec-b3bd-d98520647593","","763","
                <div class=""stimulus-container"">
                    <img src=""images/schematic_sequence/flight_scheme/flight_scheme_6.png"" class=""exp-image"">
                    <div class=""question-area"">
                        <p style=""font-size: 20px; font-weight: bold; margin: 0;"">Is there a person in this image?</p>
                    </div>
                </div>","1","main_experiment_trial","6","flight_scheme","schematic_sequence","","","","",""
"","","","","","html-keyboard-response","50","2799625","0.0-50.0","FD4D9DF6EED34CE78ED3728EAF1E9D18","019cf4f7-9bc1-707b-9de4-c99a5815e22d","019cf4c8-1de8-79ec-b3bd-d98520647593","","null","
                <div class=""stimulus-container"">
                    <img src=""images/schematic_sequence/flight_scheme/flight_scheme_7.png"" class=""exp-image"">
                    <div class=""question-area""></div> 
                </div>","null","","","","","","","","",""
"","","","","","html-button-response","51","2800372","0.0-51.0","FD4D9DF6EED34CE78ED3728EAF1E9D18","019cf4f7-9bc1-707b-9de4-c99a5815e22d","019cf4c8-1de8-79ec-b3bd-d98520647593","","746","
                <div class=""stimulus-container"">
                    <img src=""images/schematic_sequence/flight_scheme/flight_scheme_7.png"" class=""exp-image"">
                    <div class=""question-area"">
                        <p style=""font-size: 20px; font-weight: bold; margin: 0;"">Is there a person in this image?</p>
                    </div>
                </div>","1","main_experiment_trial","7","flight_scheme","schematic_sequence","","","","",""
"","","","","","html-keyboard-response","52","2805374","0.0-52.0","FD4D9DF6EED34CE78ED3728EAF1E9D18","019cf4f7-9bc1-707b-9de4-c99a5815e22d","019cf4c8-1de8-79ec-b3bd-d98520647593","","null","
                <div class=""stimulus-container"">
                    <img src=""images/schematic_sequence/flight_scheme/flight_scheme_8.png"" class=""exp-image"">
                    <div class=""question-area""></div> 
                </div>","null","","","","","","","","",""
"","","","","","html-button-response","53","2807315","0.0-53.0","FD4D9DF6EED34CE78ED3728EAF1E9D18","019cf4f7-9bc1-707b-9de4-c99a5815e22d","019cf4c8-1de8-79ec-b3bd-d98520647593","","1941","
                <div class=""stimulus-container"">
                    <img src=""images/schematic_sequence/flight_scheme/flight_scheme_8.png"" class=""exp-image"">
                    <div class=""question-area"">
                        <p style=""font-size: 20px; font-weight: bold; margin: 0;"">Is there a person in this image?</p>
                    </div>
                </div>","1","main_experiment_trial","8","flight_scheme","schematic_sequence","","","","",""
"","","","","","html-keyboard-response","54","2812317","0.0-54.0","FD4D9DF6EED34CE78ED3728EAF1E9D18","019cf4f7-9bc1-707b-9de4-c99a5815e22d","019cf4c8-1de8-79ec-b3bd-d98520647593","","null","
                <div class=""stimulus-container"">
                    <img src=""images/schematic_sequence/flight_scheme/flight_scheme_9.png"" class=""exp-image"">
                    <div class=""question-area""></div> 
                </div>","null","","","","","","","","",""
"","","","","","html-button-response","55","2813931","0.0-55.0","FD4D9DF6EED34CE78ED3728EAF1E9D18","019cf4f7-9bc1-707b-9de4-c99a5815e22d","019cf4c8-1de8-79ec-b3bd-d98520647593","","1613","
                <div class=""stimulus-container"">
                    <img src=""images/schematic_sequence/flight_scheme/flight_scheme_9.png"" class=""exp-image"">
                    <div class=""question-area"">
                        <p style=""font-size: 20px; font-weight: bold; margin: 0;"">Is there a person in this image?</p>
                    </div>
                </div>","1","main_experiment_trial","9","flight_scheme","schematic_sequence","","","","",""
"","","","","","html-keyboard-response","56","2818932","0.0-56.0","FD4D9DF6EED34CE78ED3728EAF1E9D18","019cf4f7-9bc1-707b-9de4-c99a5815e22d","019cf4c8-1de8-79ec-b3bd-d98520647593","","null","
                <div class=""stimulus-container"">
                    <img src=""images/schematic_sequence/flight_scheme/flight_scheme_ten.png"" class=""exp-image"">
                    <div class=""question-area""></div> 
                </div>","null","","","","","","","","",""
"","","","","","html-button-response","57","2819645","0.0-57.0","FD4D9DF6EED34CE78ED3728EAF1E9D18","019cf4f7-9bc1-707b-9de4-c99a5815e22d","019cf4c8-1de8-79ec-b3bd-d98520647593","","713","
                <div class=""stimulus-container"">
                    <img src=""images/schematic_sequence/flight_scheme/flight_scheme_ten.png"" class=""exp-image"">
                    <div class=""question-area"">
                        <p style=""font-size: 20px; font-weight: bold; margin: 0;"">Is there a person in this image?</p>
                    </div>
                </div>","0","main_experiment_trial","ten","flight_scheme","schematic_sequence","","","","",""
"","","","","","html-keyboard-response","58","2820646","0.0-58.0","FD4D9DF6EED34CE78ED3728EAF1E9D18","019cf4f7-9bc1-707b-9de4-c99a5815e22d","019cf4c8-1de8-79ec-b3bd-d98520647593","","null","<div style=""background-color: white; width: 100vw; height: 100vh;""></div>","null","","","","","","","","",""
"","","","","","html-keyboard-response","59","2825647","0.0-59.0","FD4D9DF6EED34CE78ED3728EAF1E9D18","019cf4f7-9bc1-707b-9de4-c99a5815e22d","019cf4c8-1de8-79ec-b3bd-d98520647593","","null","
                <div class=""stimulus-container"">
                    <img src=""images/causal_sequence/museum_causal/museum_causal_1.png"" class=""exp-image"">
                    <div class=""question-area""></div> 
                </div>","null","","","","","","","","",""
"","","","","","html-button-response","60","2826430","0.0-60.0","FD4D9DF6EED34CE78ED3728EAF1E9D18","019cf4f7-9bc1-707b-9de4-c99a5815e22d","019cf4c8-1de8-79ec-b3bd-d98520647593","","782","
                <div class=""stimulus-container"">
                    <img src=""images/causal_sequence/museum_causal/museum_causal_1.png"" class=""exp-image"">
                    <div class=""question-area"">
                        <p style=""font-size: 20px; font-weight: bold; margin: 0;"">Is there a person in this image?</p>
                    </div>
                </div>","0","main_experiment_trial","1","museum_causal","causal_sequence","","","","",""
"","","","","","html-keyboard-response","61","2831433","0.0-61.0","FD4D9DF6EED34CE78ED3728EAF1E9D18","019cf4f7-9bc1-707b-9de4-c99a5815e22d","019cf4c8-1de8-79ec-b3bd-d98520647593","","null","
                <div class=""stimulus-container"">
                    <img src=""images/causal_sequence/museum_causal/museum_causal_2.png"" class=""exp-image"">
                    <div class=""question-area""></div> 
                </div>","null","","","","","","","","",""
"","","","","","html-button-response","62","2832627","0.0-62.0","FD4D9DF6EED34CE78ED3728EAF1E9D18","019cf4f7-9bc1-707b-9de4-c99a5815e22d","019cf4c8-1de8-79ec-b3bd-d98520647593","","1194","
                <div class=""stimulus-container"">
                    <img src=""images/causal_sequence/museum_causal/museum_causal_2.png"" class=""exp-image"">
                    <div class=""question-area"">
                        <p style=""font-size: 20px; font-weight: bold; margin: 0;"">Is there a person in this image?</p>
                    </div>
                </div>","0","main_experiment_trial","2","museum_causal","causal_sequence","","","","",""
"","","","","","html-keyboard-response","63","2837630","0.0-63.0","FD4D9DF6EED34CE78ED3728EAF1E9D18","019cf4f7-9bc1-707b-9de4-c99a5815e22d","019cf4c8-1de8-79ec-b3bd-d98520647593","","null","
                <div class=""stimulus-container"">
                    <img src=""images/causal_sequence/museum_causal/museum_causal_3.png"" class=""exp-image"">
                    <div class=""question-area""></div> 
                </div>","null","","","","","","","","",""
"","","","","","html-button-response","64","2838804","0.0-64.0","FD4D9DF6EED34CE78ED3728EAF1E9D18","019cf4f7-9bc1-707b-9de4-c99a5815e22d","019cf4c8-1de8-79ec-b3bd-d98520647593","","1173","
                <div class=""stimulus-container"">
                    <img src=""images/causal_sequence/museum_causal/museum_causal_3.png"" class=""exp-image"">
                    <div class=""question-area"">
                        <p style=""font-size: 20px; font-weight: bold; margin: 0;"">Is there a person in this image?</p>
                    </div>
                </div>","0","main_experiment_trial","3","museum_causal","causal_sequence","","","","",""
"","","","","","html-keyboard-response","65","2843806","0.0-65.0","FD4D9DF6EED34CE78ED3728EAF1E9D18","019cf4f7-9bc1-707b-9de4-c99a5815e22d","019cf4c8-1de8-79ec-b3bd-d98520647593","","null","
                <div class=""stimulus-container"">
                    <img src=""images/causal_sequence/museum_causal/museum_causal_4.png"" class=""exp-image"">
                    <div class=""question-area""></div> 
                </div>","null","","","","","","","","",""
"","","","","","html-button-response","66","2845586","0.0-66.0","FD4D9DF6EED34CE78ED3728EAF1E9D18","019cf4f7-9bc1-707b-9de4-c99a5815e22d","019cf4c8-1de8-79ec-b3bd-d98520647593","","1778","
                <div class=""stimulus-container"">
                    <img src=""images/causal_sequence/museum_causal/museum_causal_4.png"" class=""exp-image"">
                    <div class=""question-area"">
                        <p style=""font-size: 20px; font-weight: bold; margin: 0;"">Is there a person in this image?</p>
                    </div>
                </div>","1","main_experiment_trial","4","museum_causal","causal_sequence","","","","",""
"","","","","","html-keyboard-response","67","2850588","0.0-67.0","FD4D9DF6EED34CE78ED3728EAF1E9D18","019cf4f7-9bc1-707b-9de4-c99a5815e22d","019cf4c8-1de8-79ec-b3bd-d98520647593","","null","
                <div class=""stimulus-container"">
                    <img src=""images/causal_sequence/museum_causal/museum_causal_5.png"" class=""exp-image"">
                    <div class=""question-area""></div> 
                </div>","null","","","","","","","","",""
"","","","","","html-button-response","68","2851540","0.0-68.0","FD4D9DF6EED34CE78ED3728EAF1E9D18","019cf4f7-9bc1-707b-9de4-c99a5815e22d","019cf4c8-1de8-79ec-b3bd-d98520647593","","951","
                <div class=""stimulus-container"">
                    <img src=""images/causal_sequence/museum_causal/museum_causal_5.png"" class=""exp-image"">
                    <div class=""question-area"">
                        <p style=""font-size: 20px; font-weight: bold; margin: 0;"">Is there a person in this image?</p>
                    </div>
                </div>","0","main_experiment_trial","5","museum_causal","causal_sequence","","","","",""
"","","","","","html-keyboard-response","69","2856541","0.0-69.0","FD4D9DF6EED34CE78ED3728EAF1E9D18","019cf4f7-9bc1-707b-9de4-c99a5815e22d","019cf4c8-1de8-79ec-b3bd-d98520647593","","null","
                <div class=""stimulus-container"">
                    <img src=""images/causal_sequence/museum_causal/museum_causal_6.png"" class=""exp-image"">
                    <div class=""question-area""></div> 
                </div>","null","","","","","","","","",""
"","","","","","html-button-response","70","2858328","0.0-70.0","FD4D9DF6EED34CE78ED3728EAF1E9D18","019cf4f7-9bc1-707b-9de4-c99a5815e22d","019cf4c8-1de8-79ec-b3bd-d98520647593","","1786","
                <div class=""stimulus-container"">
                    <img src=""images/causal_sequence/museum_causal/museum_causal_6.png"" class=""exp-image"">
                    <div class=""question-area"">
                        <p style=""font-size: 20px; font-weight: bold; margin: 0;"">Is there a person in this image?</p>
                    </div>
                </div>","0","main_experiment_trial","6","museum_causal","causal_sequence","","","","",""
"","","","","","html-keyboard-response","71","2863330","0.0-71.0","FD4D9DF6EED34CE78ED3728EAF1E9D18","019cf4f7-9bc1-707b-9de4-c99a5815e22d","019cf4c8-1de8-79ec-b3bd-d98520647593","","null","
                <div class=""stimulus-container"">
                    <img src=""images/causal_sequence/museum_causal/museum_causal_7.png"" class=""exp-image"">
                    <div class=""question-area""></div> 
                </div>","null","","","","","","","","",""
"","","","","","html-button-response","72","2865091","0.0-72.0","FD4D9DF6EED34CE78ED3728EAF1E9D18","019cf4f7-9bc1-707b-9de4-c99a5815e22d","019cf4c8-1de8-79ec-b3bd-d98520647593","","1759","
                <div class=""stimulus-container"">
                    <img src=""images/causal_sequence/museum_causal/museum_causal_7.png"" class=""exp-image"">
                    <div class=""question-area"">
                        <p style=""font-size: 20px; font-weight: bold; margin: 0;"">Is there a person in this image?</p>
                    </div>
                </div>","1","main_experiment_trial","7","museum_causal","causal_sequence","","","","",""
"","","","","","html-keyboard-response","73","2870093","0.0-73.0","FD4D9DF6EED34CE78ED3728EAF1E9D18","019cf4f7-9bc1-707b-9de4-c99a5815e22d","019cf4c8-1de8-79ec-b3bd-d98520647593","","null","
                <div class=""stimulus-container"">
                    <img src=""images/causal_sequence/museum_causal/museum_causal_8.png"" class=""exp-image"">
                    <div class=""question-area""></div> 
                </div>","null","","","","","","","","",""
"","","","","","html-button-response","74","2872106","0.0-74.0","FD4D9DF6EED34CE78ED3728EAF1E9D18","019cf4f7-9bc1-707b-9de4-c99a5815e22d","019cf4c8-1de8-79ec-b3bd-d98520647593","","2012","
                <div class=""stimulus-container"">
                    <img src=""images/causal_sequence/museum_causal/museum_causal_8.png"" class=""exp-image"">
                    <div class=""question-area"">
                        <p style=""font-size: 20px; font-weight: bold; margin: 0;"">Is there a person in this image?</p>
                    </div>
                </div>","0","main_experiment_trial","8","museum_causal","causal_sequence","","","","",""
"","","","","","html-keyboard-response","75","2877108","0.0-75.0","FD4D9DF6EED34CE78ED3728EAF1E9D18","019cf4f7-9bc1-707b-9de4-c99a5815e22d","019cf4c8-1de8-79ec-b3bd-d98520647593","","null","
                <div class=""stimulus-container"">
                    <img src=""images/causal_sequence/museum_causal/museum_causal_9.png"" class=""exp-image"">
                    <div class=""question-area""></div> 
                </div>","null","","","","","","","","",""
"","","","","","html-button-response","76","2878755","0.0-76.0","FD4D9DF6EED34CE78ED3728EAF1E9D18","019cf4f7-9bc1-707b-9de4-c99a5815e22d","019cf4c8-1de8-79ec-b3bd-d98520647593","","1646","
                <div class=""stimulus-container"">
                    <img src=""images/causal_sequence/museum_causal/museum_causal_9.png"" class=""exp-image"">
                    <div class=""question-area"">
                        <p style=""font-size: 20px; font-weight: bold; margin: 0;"">Is there a person in this image?</p>
                    </div>
                </div>","1","main_experiment_trial","9","museum_causal","causal_sequence","","","","",""
"","","","","","html-keyboard-response","77","2883756","0.0-77.0","FD4D9DF6EED34CE78ED3728EAF1E9D18","019cf4f7-9bc1-707b-9de4-c99a5815e22d","019cf4c8-1de8-79ec-b3bd-d98520647593","","null","
                <div class=""stimulus-container"">
                    <img src=""images/causal_sequence/museum_causal/museum_causal_ten.png"" class=""exp-image"">
                    <div class=""question-area""></div> 
                </div>","null","","","","","","","","",""
"","","","","","html-button-response","78","2885630","0.0-78.0","FD4D9DF6EED34CE78ED3728EAF1E9D18","019cf4f7-9bc1-707b-9de4-c99a5815e22d","019cf4c8-1de8-79ec-b3bd-d98520647593","","1872","
                <div class=""stimulus-container"">
                    <img src=""images/causal_sequence/museum_causal/museum_causal_ten.png"" class=""exp-image"">
                    <div class=""question-area"">
                        <p style=""font-size: 20px; font-weight: bold; margin: 0;"">Is there a person in this image?</p>
                    </div>
                </div>","0","main_experiment_trial","ten","museum_causal","causal_sequence","","","","",""
"","","","","","html-keyboard-response","79","2886631","0.0-79.0","FD4D9DF6EED34CE78ED3728EAF1E9D18","019cf4f7-9bc1-707b-9de4-c99a5815e22d","019cf4c8-1de8-79ec-b3bd-d98520647593","","null","<div style=""background-color: white; width: 100vw; height: 100vh;""></div>","null","","","","","","","","",""
"","","","","","html-keyboard-response","80","2891633","0.0-80.0","FD4D9DF6EED34CE78ED3728EAF1E9D18","019cf4f7-9bc1-707b-9de4-c99a5815e22d","019cf4c8-1de8-79ec-b3bd-d98520647593","","null","
                <div class=""stimulus-container"">
                    <img src=""images/schematic_sequence/restaurant_scheme/restaurant_scheme_1.png"" class=""exp-image"">
                    <div class=""question-area""></div> 
                </div>","null","","","","","","","","",""
"","","","","","html-button-response","81","2893392","0.0-81.0","FD4D9DF6EED34CE78ED3728EAF1E9D18","019cf4f7-9bc1-707b-9de4-c99a5815e22d","019cf4c8-1de8-79ec-b3bd-d98520647593","","1758","
                <div class=""stimulus-container"">
                    <img src=""images/schematic_sequence/restaurant_scheme/restaurant_scheme_1.png"" class=""exp-image"">
                    <div class=""question-area"">
                        <p style=""font-size: 20px; font-weight: bold; margin: 0;"">Is there a person in this image?</p>
                    </div>
                </div>","0","main_experiment_trial","1","restaurant_scheme","schematic_sequence","","","","",""
"","","","","","html-keyboard-response","82","2898394","0.0-82.0","FD4D9DF6EED34CE78ED3728EAF1E9D18","019cf4f7-9bc1-707b-9de4-c99a5815e22d","019cf4c8-1de8-79ec-b3bd-d98520647593","","null","
                <div class=""stimulus-container"">
                    <img src=""images/schematic_sequence/restaurant_scheme/restaurant_scheme_2.png"" class=""exp-image"">
                    <div class=""question-area""></div> 
                </div>","null","","","","","","","","",""
"","","","","","html-button-response","83","2900807","0.0-83.0","FD4D9DF6EED34CE78ED3728EAF1E9D18","019cf4f7-9bc1-707b-9de4-c99a5815e22d","019cf4c8-1de8-79ec-b3bd-d98520647593","","2412","
                <div class=""stimulus-container"">
                    <img src=""images/schematic_sequence/restaurant_scheme/restaurant_scheme_2.png"" class=""exp-image"">
                    <div class=""question-area"">
                        <p style=""font-size: 20px; font-weight: bold; margin: 0;"">Is there a person in this image?</p>
                    </div>
                </div>","1","main_experiment_trial","2","restaurant_scheme","schematic_sequence","","","","",""
"","","","","","html-keyboard-response","84","2905809","0.0-84.0","FD4D9DF6EED34CE78ED3728EAF1E9D18","019cf4f7-9bc1-707b-9de4-c99a5815e22d","019cf4c8-1de8-79ec-b3bd-d98520647593","","null","
                <div class=""stimulus-container"">
                    <img src=""images/schematic_sequence/restaurant_scheme/restaurant_scheme_3.png"" class=""exp-image"">
                    <div class=""question-area""></div> 
                </div>","null","","","","","","","","",""
"","","","","","html-button-response","85","2908043","0.0-85.0","FD4D9DF6EED34CE78ED3728EAF1E9D18","019cf4f7-9bc1-707b-9de4-c99a5815e22d","019cf4c8-1de8-79ec-b3bd-d98520647593","","2233","
                <div class=""stimulus-container"">
                    <img src=""images/schematic_sequence/restaurant_scheme/restaurant_scheme_3.png"" class=""exp-image"">
                    <div class=""question-area"">
                        <p style=""font-size: 20px; font-weight: bold; margin: 0;"">Is there a person in this image?</p>
                    </div>
                </div>","1","main_experiment_trial","3","restaurant_scheme","schematic_sequence","","","","",""
"","","","","","html-keyboard-response","86","2913045","0.0-86.0","FD4D9DF6EED34CE78ED3728EAF1E9D18","019cf4f7-9bc1-707b-9de4-c99a5815e22d","019cf4c8-1de8-79ec-b3bd-d98520647593","","null","
                <div class=""stimulus-container"">
                    <img src=""images/schematic_sequence/restaurant_scheme/restaurant_scheme_4.png"" class=""exp-image"">
                    <div class=""question-area""></div> 
                </div>","null","","","","","","","","",""
"","","","","","html-button-response","87","2914976","0.0-87.0","FD4D9DF6EED34CE78ED3728EAF1E9D18","019cf4f7-9bc1-707b-9de4-c99a5815e22d","019cf4c8-1de8-79ec-b3bd-d98520647593","","1931","
                <div class=""stimulus-container"">
                    <img src=""images/schematic_sequence/restaurant_scheme/restaurant_scheme_4.png"" class=""exp-image"">
                    <div class=""question-area"">
                        <p style=""font-size: 20px; font-weight: bold; margin: 0;"">Is there a person in this image?</p>
                    </div>
                </div>","0","main_experiment_trial","4","restaurant_scheme","schematic_sequence","","","","",""
"","","","","","html-keyboard-response","88","2919979","0.0-88.0","FD4D9DF6EED34CE78ED3728EAF1E9D18","019cf4f7-9bc1-707b-9de4-c99a5815e22d","019cf4c8-1de8-79ec-b3bd-d98520647593","","null","
                <div class=""stimulus-container"">
                    <img src=""images/schematic_sequence/restaurant_scheme/restaurant_scheme_5.png"" class=""exp-image"">
                    <div class=""question-area""></div> 
                </div>","null","","","","","","","","",""
"","","","","","html-button-response","89","2921594","0.0-89.0","FD4D9DF6EED34CE78ED3728EAF1E9D18","019cf4f7-9bc1-707b-9de4-c99a5815e22d","019cf4c8-1de8-79ec-b3bd-d98520647593","","1615","
                <div class=""stimulus-container"">
                    <img src=""images/schematic_sequence/restaurant_scheme/restaurant_scheme_5.png"" class=""exp-image"">
                    <div class=""question-area"">
                        <p style=""font-size: 20px; font-weight: bold; margin: 0;"">Is there a person in this image?</p>
                    </div>
                </div>","0","main_experiment_trial","5","restaurant_scheme","schematic_sequence","","","","",""
"","","","","","html-keyboard-response","90","2926596","0.0-90.0","FD4D9DF6EED34CE78ED3728EAF1E9D18","019cf4f7-9bc1-707b-9de4-c99a5815e22d","019cf4c8-1de8-79ec-b3bd-d98520647593","","null","
                <div class=""stimulus-container"">
                    <img src=""images/schematic_sequence/restaurant_scheme/restaurant_scheme_6.png"" class=""exp-image"">
                    <div class=""question-area""></div> 
                </div>","null","","","","","","","","",""
"","","","","","html-button-response","91","2928801","0.0-91.0","FD4D9DF6EED34CE78ED3728EAF1E9D18","019cf4f7-9bc1-707b-9de4-c99a5815e22d","019cf4c8-1de8-79ec-b3bd-d98520647593","","2203","
                <div class=""stimulus-container"">
                    <img src=""images/schematic_sequence/restaurant_scheme/restaurant_scheme_6.png"" class=""exp-image"">
                    <div class=""question-area"">
                        <p style=""font-size: 20px; font-weight: bold; margin: 0;"">Is there a person in this image?</p>
                    </div>
                </div>","1","main_experiment_trial","6","restaurant_scheme","schematic_sequence","","","","",""
"","","","","","html-keyboard-response","92","2933803","0.0-92.0","FD4D9DF6EED34CE78ED3728EAF1E9D18","019cf4f7-9bc1-707b-9de4-c99a5815e22d","019cf4c8-1de8-79ec-b3bd-d98520647593","","null","
                <div class=""stimulus-container"">
                    <img src=""images/schematic_sequence/restaurant_scheme/restaurant_scheme_7.png"" class=""exp-image"">
                    <div class=""question-area""></div> 
                </div>","null","","","","","","","","",""
"","","","","","html-button-response","93","2936805","0.0-93.0","FD4D9DF6EED34CE78ED3728EAF1E9D18","019cf4f7-9bc1-707b-9de4-c99a5815e22d","019cf4c8-1de8-79ec-b3bd-d98520647593","","null","
                <div class=""stimulus-container"">
                    <img src=""images/schematic_sequence/restaurant_scheme/restaurant_scheme_7.png"" class=""exp-image"">
                    <div class=""question-area"">
                        <p style=""font-size: 20px; font-weight: bold; margin: 0;"">Is there a person in this image?</p>
                    </div>
                </div>","null","main_experiment_trial","7","restaurant_scheme","schematic_sequence","","","","",""
"","","","","","html-keyboard-response","94","2941806","0.0-94.0","FD4D9DF6EED34CE78ED3728EAF1E9D18","019cf4f7-9bc1-707b-9de4-c99a5815e22d","019cf4c8-1de8-79ec-b3bd-d98520647593","","null","
                <div class=""stimulus-container"">
                    <img src=""images/schematic_sequence/restaurant_scheme/restaurant_scheme_8.png"" class=""exp-image"">
                    <div class=""question-area""></div> 
                </div>","null","","","","","","","","",""
"","","","","","html-button-response","95","2942803","0.0-95.0","FD4D9DF6EED34CE78ED3728EAF1E9D18","019cf4f7-9bc1-707b-9de4-c99a5815e22d","019cf4c8-1de8-79ec-b3bd-d98520647593","","996","
                <div class=""stimulus-container"">
                    <img src=""images/schematic_sequence/restaurant_scheme/restaurant_scheme_8.png"" class=""exp-image"">
                    <div class=""question-area"">
                        <p style=""font-size: 20px; font-weight: bold; margin: 0;"">Is there a person in this image?</p>
                    </div>
                </div>","0","main_experiment_trial","8","restaurant_scheme","schematic_sequence","","","","",""
"","","","","","html-keyboard-response","96","2947804","0.0-96.0","FD4D9DF6EED34CE78ED3728EAF1E9D18","019cf4f7-9bc1-707b-9de4-c99a5815e22d","019cf4c8-1de8-79ec-b3bd-d98520647593","","null","
                <div class=""stimulus-container"">
                    <img src=""images/schematic_sequence/restaurant_scheme/restaurant_scheme_9.png"" class=""exp-image"">
                    <div class=""question-area""></div> 
                </div>","null","","","","","","","","",""
"","","","","","html-button-response","97","2948800","0.0-97.0","FD4D9DF6EED34CE78ED3728EAF1E9D18","019cf4f7-9bc1-707b-9de4-c99a5815e22d","019cf4c8-1de8-79ec-b3bd-d98520647593","","995","
                <div class=""stimulus-container"">
                    <img src=""images/schematic_sequence/restaurant_scheme/restaurant_scheme_9.png"" class=""exp-image"">
                    <div class=""question-area"">
                        <p style=""font-size: 20px; font-weight: bold; margin: 0;"">Is there a person in this image?</p>
                    </div>
                </div>","0","main_experiment_trial","9","restaurant_scheme","schematic_sequence","","","","",""
"","","","","","html-keyboard-response","98","2953802","0.0-98.0","FD4D9DF6EED34CE78ED3728EAF1E9D18","019cf4f7-9bc1-707b-9de4-c99a5815e22d","019cf4c8-1de8-79ec-b3bd-d98520647593","","null","
                <div class=""stimulus-container"">
                    <img src=""images/schematic_sequence/restaurant_scheme/restaurant_scheme_ten.png"" class=""exp-image"">
                    <div class=""question-area""></div> 
                </div>","null","","","","","","","","",""
"","","","","","html-button-response","99","2955174","0.0-99.0","FD4D9DF6EED34CE78ED3728EAF1E9D18","019cf4f7-9bc1-707b-9de4-c99a5815e22d","019cf4c8-1de8-79ec-b3bd-d98520647593","","1370","
                <div class=""stimulus-container"">
                    <img src=""images/schematic_sequence/restaurant_scheme/restaurant_scheme_ten.png"" class=""exp-image"">
                    <div class=""question-area"">
                        <p style=""font-size: 20px; font-weight: bold; margin: 0;"">Is there a person in this image?</p>
                    </div>
                </div>","0","main_experiment_trial","ten","restaurant_scheme","schematic_sequence","","","","",""
"","","","","","html-keyboard-response","100","2956176","0.0-100.0","FD4D9DF6EED34CE78ED3728EAF1E9D18","019cf4f7-9bc1-707b-9de4-c99a5815e22d","019cf4c8-1de8-79ec-b3bd-d98520647593","","null","<div style=""background-color: white; width: 100vw; height: 100vh;""></div>","null","","","","","","","","",""
"","","","","","html-keyboard-response","101","2961179","0.0-101.0","FD4D9DF6EED34CE78ED3728EAF1E9D18","019cf4f7-9bc1-707b-9de4-c99a5815e22d","019cf4c8-1de8-79ec-b3bd-d98520647593","","null","
                <div class=""stimulus-container"">
                    <img src=""images/causal_sequence/coin_causal/coin_causal_1.png"" class=""exp-image"">
                    <div class=""question-area""></div> 
                </div>","null","","","","","","","","",""
"","","","","","html-button-response","102","2962345","0.0-102.0","FD4D9DF6EED34CE78ED3728EAF1E9D18","019cf4f7-9bc1-707b-9de4-c99a5815e22d","019cf4c8-1de8-79ec-b3bd-d98520647593","","1165","
                <div class=""stimulus-container"">
                    <img src=""images/causal_sequence/coin_causal/coin_causal_1.png"" class=""exp-image"">
                    <div class=""question-area"">
                        <p style=""font-size: 20px; font-weight: bold; margin: 0;"">Is there a person in this image?</p>
                    </div>
                </div>","0","main_experiment_trial","1","coin_causal","causal_sequence","","","","",""
"","","","","","html-keyboard-response","103","2967348","0.0-103.0","FD4D9DF6EED34CE78ED3728EAF1E9D18","019cf4f7-9bc1-707b-9de4-c99a5815e22d","019cf4c8-1de8-79ec-b3bd-d98520647593","","null","
                <div class=""stimulus-container"">
                    <img src=""images/causal_sequence/coin_causal/coin_causal_2.png"" class=""exp-image"">
                    <div class=""question-area""></div> 
                </div>","null","","","","","","","","",""
"","","","","","html-button-response","104","2968595","0.0-104.0","FD4D9DF6EED34CE78ED3728EAF1E9D18","019cf4f7-9bc1-707b-9de4-c99a5815e22d","019cf4c8-1de8-79ec-b3bd-d98520647593","","1246","
                <div class=""stimulus-container"">
                    <img src=""images/causal_sequence/coin_causal/coin_causal_2.png"" class=""exp-image"">
                    <div class=""question-area"">
                        <p style=""font-size: 20px; font-weight: bold; margin: 0;"">Is there a person in this image?</p>
                    </div>
                </div>","0","main_experiment_trial","2","coin_causal","causal_sequence","","","","",""
"","","","","","html-keyboard-response","105","2973598","0.0-105.0","FD4D9DF6EED34CE78ED3728EAF1E9D18","019cf4f7-9bc1-707b-9de4-c99a5815e22d","019cf4c8-1de8-79ec-b3bd-d98520647593","","null","
                <div class=""stimulus-container"">
                    <img src=""images/causal_sequence/coin_causal/coin_causal_3.png"" class=""exp-image"">
                    <div class=""question-area""></div> 
                </div>","null","","","","","","","","",""
"","","","","","html-button-response","106","2974768","0.0-106.0","FD4D9DF6EED34CE78ED3728EAF1E9D18","019cf4f7-9bc1-707b-9de4-c99a5815e22d","019cf4c8-1de8-79ec-b3bd-d98520647593","","1169","
                <div class=""stimulus-container"">
                    <img src=""images/causal_sequence/coin_causal/coin_causal_3.png"" class=""exp-image"">
                    <div class=""question-area"">
                        <p style=""font-size: 20px; font-weight: bold; margin: 0;"">Is there a person in this image?</p>
                    </div>
                </div>","0","main_experiment_trial","3","coin_causal","causal_sequence","","","","",""
"","","","","","html-keyboard-response","107","2979769","0.0-107.0","FD4D9DF6EED34CE78ED3728EAF1E9D18","019cf4f7-9bc1-707b-9de4-c99a5815e22d","019cf4c8-1de8-79ec-b3bd-d98520647593","","null","
                <div class=""stimulus-container"">
                    <img src=""images/causal_sequence/coin_causal/coin_causal_4.png"" class=""exp-image"">
                    <div class=""question-area""></div> 
                </div>","null","","","","","","","","",""
"","","","","","html-button-response","108","2980343","0.0-108.0","FD4D9DF6EED34CE78ED3728EAF1E9D18","019cf4f7-9bc1-707b-9de4-c99a5815e22d","019cf4c8-1de8-79ec-b3bd-d98520647593","","572","
                <div class=""stimulus-container"">
                    <img src=""images/causal_sequence/coin_causal/coin_causal_4.png"" class=""exp-image"">
                    <div class=""question-area"">
                        <p style=""font-size: 20px; font-weight: bold; margin: 0;"">Is there a person in this image?</p>
                    </div>
                </div>","0","main_experiment_trial","4","coin_causal","causal_sequence","","","","",""
"","","","","","html-keyboard-response","109","2985345","0.0-109.0","FD4D9DF6EED34CE78ED3728EAF1E9D18","019cf4f7-9bc1-707b-9de4-c99a5815e22d","019cf4c8-1de8-79ec-b3bd-d98520647593","","null","
                <div class=""stimulus-container"">
                    <img src=""images/causal_sequence/coin_causal/coin_causal_5.png"" class=""exp-image"">
                    <div class=""question-area""></div> 
                </div>","null","","","","","","","","",""
"","","","","","html-button-response","110","2987517","0.0-110.0","FD4D9DF6EED34CE78ED3728EAF1E9D18","019cf4f7-9bc1-707b-9de4-c99a5815e22d","019cf4c8-1de8-79ec-b3bd-d98520647593","","2170","
                <div class=""stimulus-container"">
                    <img src=""images/causal_sequence/coin_causal/coin_causal_5.png"" class=""exp-image"">
                    <div class=""question-area"">
                        <p style=""font-size: 20px; font-weight: bold; margin: 0;"">Is there a person in this image?</p>
                    </div>
                </div>","0","main_experiment_trial","5","coin_causal","causal_sequence","","","","",""
"","","","","","html-keyboard-response","111","2992518","0.0-111.0","FD4D9DF6EED34CE78ED3728EAF1E9D18","019cf4f7-9bc1-707b-9de4-c99a5815e22d","019cf4c8-1de8-79ec-b3bd-d98520647593","","null","
                <div class=""stimulus-container"">
                    <img src=""images/causal_sequence/coin_causal/coin_causal_6.png"" class=""exp-image"">
                    <div class=""question-area""></div> 
                </div>","null","","","","","","","","",""
"","","","","","html-button-response","112","2993788","0.0-112.0","FD4D9DF6EED34CE78ED3728EAF1E9D18","019cf4f7-9bc1-707b-9de4-c99a5815e22d","019cf4c8-1de8-79ec-b3bd-d98520647593","","1269","
                <div class=""stimulus-container"">
                    <img src=""images/causal_sequence/coin_causal/coin_causal_6.png"" class=""exp-image"">
                    <div class=""question-area"">
                        <p style=""font-size: 20px; font-weight: bold; margin: 0;"">Is there a person in this image?</p>
                    </div>
                </div>","0","main_experiment_trial","6","coin_causal","causal_sequence","","","","",""
"","","","","","html-keyboard-response","113","2998791","0.0-113.0","FD4D9DF6EED34CE78ED3728EAF1E9D18","019cf4f7-9bc1-707b-9de4-c99a5815e22d","019cf4c8-1de8-79ec-b3bd-d98520647593","","null","
                <div class=""stimulus-container"">
                    <img src=""images/causal_sequence/coin_causal/coin_causal_7.png"" class=""exp-image"">
                    <div class=""question-area""></div> 
                </div>","null","","","","","","","","",""
"","","","","","html-button-response","114","3000503","0.0-114.0","FD4D9DF6EED34CE78ED3728EAF1E9D18","019cf4f7-9bc1-707b-9de4-c99a5815e22d","019cf4c8-1de8-79ec-b3bd-d98520647593","","1712","
                <div class=""stimulus-container"">
                    <img src=""images/causal_sequence/coin_causal/coin_causal_7.png"" class=""exp-image"">
                    <div class=""question-area"">
                        <p style=""font-size: 20px; font-weight: bold; margin: 0;"">Is there a person in this image?</p>
                    </div>
                </div>","1","main_experiment_trial","7","coin_causal","causal_sequence","","","","",""
"","","","","","html-keyboard-response","115","3005506","0.0-115.0","FD4D9DF6EED34CE78ED3728EAF1E9D18","019cf4f7-9bc1-707b-9de4-c99a5815e22d","019cf4c8-1de8-79ec-b3bd-d98520647593","","null","
                <div class=""stimulus-container"">
                    <img src=""images/causal_sequence/coin_causal/coin_causal_8.png"" class=""exp-image"">
                    <div class=""question-area""></div> 
                </div>","null","","","","","","","","",""
"","","","","","html-button-response","116","3006916","0.0-116.0","FD4D9DF6EED34CE78ED3728EAF1E9D18","019cf4f7-9bc1-707b-9de4-c99a5815e22d","019cf4c8-1de8-79ec-b3bd-d98520647593","","1410","
                <div class=""stimulus-container"">
                    <img src=""images/causal_sequence/coin_causal/coin_causal_8.png"" class=""exp-image"">
                    <div class=""question-area"">
                        <p style=""font-size: 20px; font-weight: bold; margin: 0;"">Is there a person in this image?</p>
                    </div>
                </div>","0","main_experiment_trial","8","coin_causal","causal_sequence","","","","",""
"","","","","","html-keyboard-response","117","3011919","0.0-117.0","FD4D9DF6EED34CE78ED3728EAF1E9D18","019cf4f7-9bc1-707b-9de4-c99a5815e22d","019cf4c8-1de8-79ec-b3bd-d98520647593","","null","
                <div class=""stimulus-container"">
                    <img src=""images/causal_sequence/coin_causal/coin_causal_9.png"" class=""exp-image"">
                    <div class=""question-area""></div> 
                </div>","null","","","","","","","","",""
"","","","","","html-button-response","118","3013005","0.0-118.0","FD4D9DF6EED34CE78ED3728EAF1E9D18","019cf4f7-9bc1-707b-9de4-c99a5815e22d","019cf4c8-1de8-79ec-b3bd-d98520647593","","1085","
                <div class=""stimulus-container"">
                    <img src=""images/causal_sequence/coin_causal/coin_causal_9.png"" class=""exp-image"">
                    <div class=""question-area"">
                        <p style=""font-size: 20px; font-weight: bold; margin: 0;"">Is there a person in this image?</p>
                    </div>
                </div>","0","main_experiment_trial","9","coin_causal","causal_sequence","","","","",""
"","","","","","html-keyboard-response","119","3018008","0.0-119.0","FD4D9DF6EED34CE78ED3728EAF1E9D18","019cf4f7-9bc1-707b-9de4-c99a5815e22d","019cf4c8-1de8-79ec-b3bd-d98520647593","","null","
                <div class=""stimulus-container"">
                    <img src=""images/causal_sequence/coin_causal/coin_causal_ten.png"" class=""exp-image"">
                    <div class=""question-area""></div> 
                </div>","null","","","","","","","","",""
"","","","","","html-button-response","120","3019231","0.0-120.0","FD4D9DF6EED34CE78ED3728EAF1E9D18","019cf4f7-9bc1-707b-9de4-c99a5815e22d","019cf4c8-1de8-79ec-b3bd-d98520647593","","1222","
                <div class=""stimulus-container"">
                    <img src=""images/causal_sequence/coin_causal/coin_causal_ten.png"" class=""exp-image"">
                    <div class=""question-area"">
                        <p style=""font-size: 20px; font-weight: bold; margin: 0;"">Is there a person in this image?</p>
                    </div>
                </div>","0","main_experiment_trial","ten","coin_causal","causal_sequence","","","","",""
"","","","","","html-keyboard-response","121","3020233","0.0-121.0","FD4D9DF6EED34CE78ED3728EAF1E9D18","019cf4f7-9bc1-707b-9de4-c99a5815e22d","019cf4c8-1de8-79ec-b3bd-d98520647593","","null","<div style=""background-color: white; width: 100vw; height: 100vh;""></div>","null","","","","","","","","",""
"","","","","","html-keyboard-response","122","3025235","0.0-122.0","FD4D9DF6EED34CE78ED3728EAF1E9D18","019cf4f7-9bc1-707b-9de4-c99a5815e22d","019cf4c8-1de8-79ec-b3bd-d98520647593","","null","
                <div class=""stimulus-container"">
                    <img src=""images/schematic_sequence/interview_scheme/interview_scheme_1.png"" class=""exp-image"">
                    <div class=""question-area""></div> 
                </div>","null","","","","","","","","",""
"","","","","","html-button-response","123","3026869","0.0-123.0","FD4D9DF6EED34CE78ED3728EAF1E9D18","019cf4f7-9bc1-707b-9de4-c99a5815e22d","019cf4c8-1de8-79ec-b3bd-d98520647593","","1632","
                <div class=""stimulus-container"">
                    <img src=""images/schematic_sequence/interview_scheme/interview_scheme_1.png"" class=""exp-image"">
                    <div class=""question-area"">
                        <p style=""font-size: 20px; font-weight: bold; margin: 0;"">Is there a person in this image?</p>
                    </div>
                </div>","1","main_experiment_trial","1","interview_scheme","schematic_sequence","","","","",""
"","","","","","html-keyboard-response","124","3031872","0.0-124.0","FD4D9DF6EED34CE78ED3728EAF1E9D18","019cf4f7-9bc1-707b-9de4-c99a5815e22d","019cf4c8-1de8-79ec-b3bd-d98520647593","","null","
                <div class=""stimulus-container"">
                    <img src=""images/schematic_sequence/interview_scheme/interview_scheme_2.png"" class=""exp-image"">
                    <div class=""question-area""></div> 
                </div>","null","","","","","","","","",""
"","","","","","html-button-response","125","3033812","0.0-125.0","FD4D9DF6EED34CE78ED3728EAF1E9D18","019cf4f7-9bc1-707b-9de4-c99a5815e22d","019cf4c8-1de8-79ec-b3bd-d98520647593","","1939","
                <div class=""stimulus-container"">
                    <img src=""images/schematic_sequence/interview_scheme/interview_scheme_2.png"" class=""exp-image"">
                    <div class=""question-area"">
                        <p style=""font-size: 20px; font-weight: bold; margin: 0;"">Is there a person in this image?</p>
                    </div>
                </div>","0","main_experiment_trial","2","interview_scheme","schematic_sequence","","","","",""
"","","","","","html-keyboard-response","126","3038814","0.0-126.0","FD4D9DF6EED34CE78ED3728EAF1E9D18","019cf4f7-9bc1-707b-9de4-c99a5815e22d","019cf4c8-1de8-79ec-b3bd-d98520647593","","null","
                <div class=""stimulus-container"">
                    <img src=""images/schematic_sequence/interview_scheme/interview_scheme_3.png"" class=""exp-image"">
                    <div class=""question-area""></div> 
                </div>","null","","","","","","","","",""
"","","","","","html-button-response","127","3040656","0.0-127.0","FD4D9DF6EED34CE78ED3728EAF1E9D18","019cf4f7-9bc1-707b-9de4-c99a5815e22d","019cf4c8-1de8-79ec-b3bd-d98520647593","","1839","
                <div class=""stimulus-container"">
                    <img src=""images/schematic_sequence/interview_scheme/interview_scheme_3.png"" class=""exp-image"">
                    <div class=""question-area"">
                        <p style=""font-size: 20px; font-weight: bold; margin: 0;"">Is there a person in this image?</p>
                    </div>
                </div>","1","main_experiment_trial","3","interview_scheme","schematic_sequence","","","","",""
"","","","","","html-keyboard-response","128","3045658","0.0-128.0","FD4D9DF6EED34CE78ED3728EAF1E9D18","019cf4f7-9bc1-707b-9de4-c99a5815e22d","019cf4c8-1de8-79ec-b3bd-d98520647593","","null","
                <div class=""stimulus-container"">
                    <img src=""images/schematic_sequence/interview_scheme/interview_scheme_4.png"" class=""exp-image"">
                    <div class=""question-area""></div> 
                </div>","null","","","","","","","","",""
"","","","","","html-button-response","129","3046512","0.0-129.0","FD4D9DF6EED34CE78ED3728EAF1E9D18","019cf4f7-9bc1-707b-9de4-c99a5815e22d","019cf4c8-1de8-79ec-b3bd-d98520647593","","853","
                <div class=""stimulus-container"">
                    <img src=""images/schematic_sequence/interview_scheme/interview_scheme_4.png"" class=""exp-image"">
                    <div class=""question-area"">
                        <p style=""font-size: 20px; font-weight: bold; margin: 0;"">Is there a person in this image?</p>
                    </div>
                </div>","1","main_experiment_trial","4","interview_scheme","schematic_sequence","","","","",""
"","","","","","html-keyboard-response","130","3051514","0.0-130.0","FD4D9DF6EED34CE78ED3728EAF1E9D18","019cf4f7-9bc1-707b-9de4-c99a5815e22d","019cf4c8-1de8-79ec-b3bd-d98520647593","","null","
                <div class=""stimulus-container"">
                    <img src=""images/schematic_sequence/interview_scheme/interview_scheme_5.png"" class=""exp-image"">
                    <div class=""question-area""></div> 
                </div>","null","","","","","","","","",""
"","","","","","html-button-response","131","3053232","0.0-131.0","FD4D9DF6EED34CE78ED3728EAF1E9D18","019cf4f7-9bc1-707b-9de4-c99a5815e22d","019cf4c8-1de8-79ec-b3bd-d98520647593","","1716","
                <div class=""stimulus-container"">
                    <img src=""images/schematic_sequence/interview_scheme/interview_scheme_5.png"" class=""exp-image"">
                    <div class=""question-area"">
                        <p style=""font-size: 20px; font-weight: bold; margin: 0;"">Is there a person in this image?</p>
                    </div>
                </div>","0","main_experiment_trial","5","interview_scheme","schematic_sequence","","","","",""
"","","","","","html-keyboard-response","132","3058234","0.0-132.0","FD4D9DF6EED34CE78ED3728EAF1E9D18","019cf4f7-9bc1-707b-9de4-c99a5815e22d","019cf4c8-1de8-79ec-b3bd-d98520647593","","null","
                <div class=""stimulus-container"">
                    <img src=""images/schematic_sequence/interview_scheme/interview_scheme_6.png"" class=""exp-image"">
                    <div class=""question-area""></div> 
                </div>","null","","","","","","","","",""
"","","","","","html-button-response","133","3059808","0.0-133.0","FD4D9DF6EED34CE78ED3728EAF1E9D18","019cf4f7-9bc1-707b-9de4-c99a5815e22d","019cf4c8-1de8-79ec-b3bd-d98520647593","","1573","
                <div class=""stimulus-container"">
                    <img src=""images/schematic_sequence/interview_scheme/interview_scheme_6.png"" class=""exp-image"">
                    <div class=""question-area"">
                        <p style=""font-size: 20px; font-weight: bold; margin: 0;"">Is there a person in this image?</p>
                    </div>
                </div>","0","main_experiment_trial","6","interview_scheme","schematic_sequence","","","","",""
"","","","","","html-keyboard-response","134","3064811","0.0-134.0","FD4D9DF6EED34CE78ED3728EAF1E9D18","019cf4f7-9bc1-707b-9de4-c99a5815e22d","019cf4c8-1de8-79ec-b3bd-d98520647593","","null","
                <div class=""stimulus-container"">
                    <img src=""images/schematic_sequence/interview_scheme/interview_scheme_7.png"" class=""exp-image"">
                    <div class=""question-area""></div> 
                </div>","null","","","","","","","","",""
"","","","","","html-button-response","135","3066079","0.0-135.0","FD4D9DF6EED34CE78ED3728EAF1E9D18","019cf4f7-9bc1-707b-9de4-c99a5815e22d","019cf4c8-1de8-79ec-b3bd-d98520647593","","1267","
                <div class=""stimulus-container"">
                    <img src=""images/schematic_sequence/interview_scheme/interview_scheme_7.png"" class=""exp-image"">
                    <div class=""question-area"">
                        <p style=""font-size: 20px; font-weight: bold; margin: 0;"">Is there a person in this image?</p>
                    </div>
                </div>","0","main_experiment_trial","7","interview_scheme","schematic_sequence","","","","",""
"","","","","","html-keyboard-response","136","3071081","0.0-136.0","FD4D9DF6EED34CE78ED3728EAF1E9D18","019cf4f7-9bc1-707b-9de4-c99a5815e22d","019cf4c8-1de8-79ec-b3bd-d98520647593","","null","
                <div class=""stimulus-container"">
                    <img src=""images/schematic_sequence/interview_scheme/interview_scheme_8.png"" class=""exp-image"">
                    <div class=""question-area""></div> 
                </div>","null","","","","","","","","",""
"","","","","","html-button-response","137","3072206","0.0-137.0","FD4D9DF6EED34CE78ED3728EAF1E9D18","019cf4f7-9bc1-707b-9de4-c99a5815e22d","019cf4c8-1de8-79ec-b3bd-d98520647593","","1124","
                <div class=""stimulus-container"">
                    <img src=""images/schematic_sequence/interview_scheme/interview_scheme_8.png"" class=""exp-image"">
                    <div class=""question-area"">
                        <p style=""font-size: 20px; font-weight: bold; margin: 0;"">Is there a person in this image?</p>
                    </div>
                </div>","0","main_experiment_trial","8","interview_scheme","schematic_sequence","","","","",""
"","","","","","html-keyboard-response","138","3077207","0.0-138.0","FD4D9DF6EED34CE78ED3728EAF1E9D18","019cf4f7-9bc1-707b-9de4-c99a5815e22d","019cf4c8-1de8-79ec-b3bd-d98520647593","","null","
                <div class=""stimulus-container"">
                    <img src=""images/schematic_sequence/interview_scheme/interview_scheme_9.png"" class=""exp-image"">
                    <div class=""question-area""></div> 
                </div>","null","","","","","","","","",""
"","","","","","html-button-response","139","3079828","0.0-139.0","FD4D9DF6EED34CE78ED3728EAF1E9D18","019cf4f7-9bc1-707b-9de4-c99a5815e22d","019cf4c8-1de8-79ec-b3bd-d98520647593","","2620","
                <div class=""stimulus-container"">
                    <img src=""images/schematic_sequence/interview_scheme/interview_scheme_9.png"" class=""exp-image"">
                    <div class=""question-area"">
                        <p style=""font-size: 20px; font-weight: bold; margin: 0;"">Is there a person in this image?</p>
                    </div>
                </div>","0","main_experiment_trial","9","interview_scheme","schematic_sequence","","","","",""
"","","","","","html-keyboard-response","140","3084830","0.0-140.0","FD4D9DF6EED34CE78ED3728EAF1E9D18","019cf4f7-9bc1-707b-9de4-c99a5815e22d","019cf4c8-1de8-79ec-b3bd-d98520647593","","null","
                <div class=""stimulus-container"">
                    <img src=""images/schematic_sequence/interview_scheme/interview_scheme_ten.png"" class=""exp-image"">
                    <div class=""question-area""></div> 
                </div>","null","","","","","","","","",""
"","","","","","html-button-response","141","3086101","0.0-141.0","FD4D9DF6EED34CE78ED3728EAF1E9D18","019cf4f7-9bc1-707b-9de4-c99a5815e22d","019cf4c8-1de8-79ec-b3bd-d98520647593","","1268","
                <div class=""stimulus-container"">
                    <img src=""images/schematic_sequence/interview_scheme/interview_scheme_ten.png"" class=""exp-image"">
                    <div class=""question-area"">
                        <p style=""font-size: 20px; font-weight: bold; margin: 0;"">Is there a person in this image?</p>
                    </div>
                </div>","0","main_experiment_trial","ten","interview_scheme","schematic_sequence","","","","",""
"","","","","","html-keyboard-response","142","3087103","0.0-142.0","FD4D9DF6EED34CE78ED3728EAF1E9D18","019cf4f7-9bc1-707b-9de4-c99a5815e22d","019cf4c8-1de8-79ec-b3bd-d98520647593","","null","<div style=""background-color: white; width: 100vw; height: 100vh;""></div>","null","","","","","","","","",""
"","","","","","html-keyboard-response","143","3092105","0.0-143.0","FD4D9DF6EED34CE78ED3728EAF1E9D18","019cf4f7-9bc1-707b-9de4-c99a5815e22d","019cf4c8-1de8-79ec-b3bd-d98520647593","","null","
                <div class=""stimulus-container"">
                    <img src=""images/schematic_sequence/supermarket_scheme/supermarket_scheme_1.png"" class=""exp-image"">
                    <div class=""question-area""></div> 
                </div>","null","","","","","","","","",""
"","","","","","html-button-response","144","3092690","0.0-144.0","FD4D9DF6EED34CE78ED3728EAF1E9D18","019cf4f7-9bc1-707b-9de4-c99a5815e22d","019cf4c8-1de8-79ec-b3bd-d98520647593","","583","
                <div class=""stimulus-container"">
                    <img src=""images/schematic_sequence/supermarket_scheme/supermarket_scheme_1.png"" class=""exp-image"">
                    <div class=""question-area"">
                        <p style=""font-size: 20px; font-weight: bold; margin: 0;"">Is there a person in this image?</p>
                    </div>
                </div>","1","main_experiment_trial","1","supermarket_scheme","schematic_sequence","","","","",""
"","","","","","html-keyboard-response","145","3097692","0.0-145.0","FD4D9DF6EED34CE78ED3728EAF1E9D18","019cf4f7-9bc1-707b-9de4-c99a5815e22d","019cf4c8-1de8-79ec-b3bd-d98520647593","","null","
                <div class=""stimulus-container"">
                    <img src=""images/schematic_sequence/supermarket_scheme/supermarket_scheme_2.png"" class=""exp-image"">
                    <div class=""question-area""></div> 
                </div>","null","","","","","","","","",""
"","","","","","html-button-response","146","3098475","0.0-146.0","FD4D9DF6EED34CE78ED3728EAF1E9D18","019cf4f7-9bc1-707b-9de4-c99a5815e22d","019cf4c8-1de8-79ec-b3bd-d98520647593","","781","
                <div class=""stimulus-container"">
                    <img src=""images/schematic_sequence/supermarket_scheme/supermarket_scheme_2.png"" class=""exp-image"">
                    <div class=""question-area"">
                        <p style=""font-size: 20px; font-weight: bold; margin: 0;"">Is there a person in this image?</p>
                    </div>
                </div>","1","main_experiment_trial","2","supermarket_scheme","schematic_sequence","","","","",""
"","","","","","html-keyboard-response","147","3103477","0.0-147.0","FD4D9DF6EED34CE78ED3728EAF1E9D18","019cf4f7-9bc1-707b-9de4-c99a5815e22d","019cf4c8-1de8-79ec-b3bd-d98520647593","","null","
                <div class=""stimulus-container"">
                    <img src=""images/schematic_sequence/supermarket_scheme/supermarket_scheme_3.png"" class=""exp-image"">
                    <div class=""question-area""></div> 
                </div>","null","","","","","","","","",""
"","","","","","html-button-response","148","3104376","0.0-148.0","FD4D9DF6EED34CE78ED3728EAF1E9D18","019cf4f7-9bc1-707b-9de4-c99a5815e22d","019cf4c8-1de8-79ec-b3bd-d98520647593","","899","
                <div class=""stimulus-container"">
                    <img src=""images/schematic_sequence/supermarket_scheme/supermarket_scheme_3.png"" class=""exp-image"">
                    <div class=""question-area"">
                        <p style=""font-size: 20px; font-weight: bold; margin: 0;"">Is there a person in this image?</p>
                    </div>
                </div>","1","main_experiment_trial","3","supermarket_scheme","schematic_sequence","","","","",""
"","","","","","html-keyboard-response","149","3109378","0.0-149.0","FD4D9DF6EED34CE78ED3728EAF1E9D18","019cf4f7-9bc1-707b-9de4-c99a5815e22d","019cf4c8-1de8-79ec-b3bd-d98520647593","","null","
                <div class=""stimulus-container"">
                    <img src=""images/schematic_sequence/supermarket_scheme/supermarket_scheme_4.png"" class=""exp-image"">
                    <div class=""question-area""></div> 
                </div>","null","","","","","","","","",""
"","","","","","html-button-response","150","3111383","0.0-150.0","FD4D9DF6EED34CE78ED3728EAF1E9D18","019cf4f7-9bc1-707b-9de4-c99a5815e22d","019cf4c8-1de8-79ec-b3bd-d98520647593","","2004","
                <div class=""stimulus-container"">
                    <img src=""images/schematic_sequence/supermarket_scheme/supermarket_scheme_4.png"" class=""exp-image"">
                    <div class=""question-area"">
                        <p style=""font-size: 20px; font-weight: bold; margin: 0;"">Is there a person in this image?</p>
                    </div>
                </div>","0","main_experiment_trial","4","supermarket_scheme","schematic_sequence","","","","",""
"","","","","","html-keyboard-response","151","3116385","0.0-151.0","FD4D9DF6EED34CE78ED3728EAF1E9D18","019cf4f7-9bc1-707b-9de4-c99a5815e22d","019cf4c8-1de8-79ec-b3bd-d98520647593","","null","
                <div class=""stimulus-container"">
                    <img src=""images/schematic_sequence/supermarket_scheme/supermarket_scheme_5.png"" class=""exp-image"">
                    <div class=""question-area""></div> 
                </div>","null","","","","","","","","",""
"","","","","","html-button-response","152","3117450","0.0-152.0","FD4D9DF6EED34CE78ED3728EAF1E9D18","019cf4f7-9bc1-707b-9de4-c99a5815e22d","019cf4c8-1de8-79ec-b3bd-d98520647593","","1065","
                <div class=""stimulus-container"">
                    <img src=""images/schematic_sequence/supermarket_scheme/supermarket_scheme_5.png"" class=""exp-image"">
                    <div class=""question-area"">
                        <p style=""font-size: 20px; font-weight: bold; margin: 0;"">Is there a person in this image?</p>
                    </div>
                </div>","1","main_experiment_trial","5","supermarket_scheme","schematic_sequence","","","","",""
"","","","","","html-keyboard-response","153","3122451","0.0-153.0","FD4D9DF6EED34CE78ED3728EAF1E9D18","019cf4f7-9bc1-707b-9de4-c99a5815e22d","019cf4c8-1de8-79ec-b3bd-d98520647593","","null","
                <div class=""stimulus-container"">
                    <img src=""images/schematic_sequence/supermarket_scheme/supermarket_scheme_6.png"" class=""exp-image"">
                    <div class=""question-area""></div> 
                </div>","null","","","","","","","","",""
"","","","","","html-button-response","154","3123900","0.0-154.0","FD4D9DF6EED34CE78ED3728EAF1E9D18","019cf4f7-9bc1-707b-9de4-c99a5815e22d","019cf4c8-1de8-79ec-b3bd-d98520647593","","1448","
                <div class=""stimulus-container"">
                    <img src=""images/schematic_sequence/supermarket_scheme/supermarket_scheme_6.png"" class=""exp-image"">
                    <div class=""question-area"">
                        <p style=""font-size: 20px; font-weight: bold; margin: 0;"">Is there a person in this image?</p>
                    </div>
                </div>","0","main_experiment_trial","6","supermarket_scheme","schematic_sequence","","","","",""
"","","","","","html-keyboard-response","155","3128903","0.0-155.0","FD4D9DF6EED34CE78ED3728EAF1E9D18","019cf4f7-9bc1-707b-9de4-c99a5815e22d","019cf4c8-1de8-79ec-b3bd-d98520647593","","null","
                <div class=""stimulus-container"">
                    <img src=""images/schematic_sequence/supermarket_scheme/supermarket_scheme_7.png"" class=""exp-image"">
                    <div class=""question-area""></div> 
                </div>","null","","","","","","","","",""
"","","","","","html-button-response","156","3129516","0.0-156.0","FD4D9DF6EED34CE78ED3728EAF1E9D18","019cf4f7-9bc1-707b-9de4-c99a5815e22d","019cf4c8-1de8-79ec-b3bd-d98520647593","","612","
                <div class=""stimulus-container"">
                    <img src=""images/schematic_sequence/supermarket_scheme/supermarket_scheme_7.png"" class=""exp-image"">
                    <div class=""question-area"">
                        <p style=""font-size: 20px; font-weight: bold; margin: 0;"">Is there a person in this image?</p>
                    </div>
                </div>","0","main_experiment_trial","7","supermarket_scheme","schematic_sequence","","","","",""
"","","","","","html-keyboard-response","157","3134518","0.0-157.0","FD4D9DF6EED34CE78ED3728EAF1E9D18","019cf4f7-9bc1-707b-9de4-c99a5815e22d","019cf4c8-1de8-79ec-b3bd-d98520647593","","null","
                <div class=""stimulus-container"">
                    <img src=""images/schematic_sequence/supermarket_scheme/supermarket_scheme_8.png"" class=""exp-image"">
                    <div class=""question-area""></div> 
                </div>","null","","","","","","","","",""
"","","","","","html-button-response","158","3135256","0.0-158.0","FD4D9DF6EED34CE78ED3728EAF1E9D18","019cf4f7-9bc1-707b-9de4-c99a5815e22d","019cf4c8-1de8-79ec-b3bd-d98520647593","","737","
                <div class=""stimulus-container"">
                    <img src=""images/schematic_sequence/supermarket_scheme/supermarket_scheme_8.png"" class=""exp-image"">
                    <div class=""question-area"">
                        <p style=""font-size: 20px; font-weight: bold; margin: 0;"">Is there a person in this image?</p>
                    </div>
                </div>","0","main_experiment_trial","8","supermarket_scheme","schematic_sequence","","","","",""
"","","","","","html-keyboard-response","159","3140258","0.0-159.0","FD4D9DF6EED34CE78ED3728EAF1E9D18","019cf4f7-9bc1-707b-9de4-c99a5815e22d","019cf4c8-1de8-79ec-b3bd-d98520647593","","null","
                <div class=""stimulus-container"">
                    <img src=""images/schematic_sequence/supermarket_scheme/supermarket_scheme_9.png"" class=""exp-image"">
                    <div class=""question-area""></div> 
                </div>","null","","","","","","","","",""
"","","","","","html-button-response","160","3141590","0.0-160.0","FD4D9DF6EED34CE78ED3728EAF1E9D18","019cf4f7-9bc1-707b-9de4-c99a5815e22d","019cf4c8-1de8-79ec-b3bd-d98520647593","","1331","
                <div class=""stimulus-container"">
                    <img src=""images/schematic_sequence/supermarket_scheme/supermarket_scheme_9.png"" class=""exp-image"">
                    <div class=""question-area"">
                        <p style=""font-size: 20px; font-weight: bold; margin: 0;"">Is there a person in this image?</p>
                    </div>
                </div>","0","main_experiment_trial","9","supermarket_scheme","schematic_sequence","","","","",""
"","","","","","html-keyboard-response","161","3146591","0.0-161.0","FD4D9DF6EED34CE78ED3728EAF1E9D18","019cf4f7-9bc1-707b-9de4-c99a5815e22d","019cf4c8-1de8-79ec-b3bd-d98520647593","","null","
                <div class=""stimulus-container"">
                    <img src=""images/schematic_sequence/supermarket_scheme/supermarket_scheme_ten.png"" class=""exp-image"">
                    <div class=""question-area""></div> 
                </div>","null","","","","","","","","",""
"","","","","","html-button-response","162","3148560","0.0-162.0","FD4D9DF6EED34CE78ED3728EAF1E9D18","019cf4f7-9bc1-707b-9de4-c99a5815e22d","019cf4c8-1de8-79ec-b3bd-d98520647593","","1967","
                <div class=""stimulus-container"">
                    <img src=""images/schematic_sequence/supermarket_scheme/supermarket_scheme_ten.png"" class=""exp-image"">
                    <div class=""question-area"">
                        <p style=""font-size: 20px; font-weight: bold; margin: 0;"">Is there a person in this image?</p>
                    </div>
                </div>","1","main_experiment_trial","ten","supermarket_scheme","schematic_sequence","","","","",""
"","","","","","html-keyboard-response","163","3149561","0.0-163.0","FD4D9DF6EED34CE78ED3728EAF1E9D18","019cf4f7-9bc1-707b-9de4-c99a5815e22d","019cf4c8-1de8-79ec-b3bd-d98520647593","","null","<div style=""background-color: white; width: 100vw; height: 100vh;""></div>","null","","","","","","","","",""
"","","","","","html-keyboard-response","164","3154564","0.0-164.0","FD4D9DF6EED34CE78ED3728EAF1E9D18","019cf4f7-9bc1-707b-9de4-c99a5815e22d","019cf4c8-1de8-79ec-b3bd-d98520647593","","null","
                <div class=""stimulus-container"">
                    <img src=""images/causal_sequence/the_performance_causal/the_performance_causal_1.png"" class=""exp-image"">
                    <div class=""question-area""></div> 
                </div>","null","","","","","","","","",""
"","","","","","html-button-response","165","3156981","0.0-165.0","FD4D9DF6EED34CE78ED3728EAF1E9D18","019cf4f7-9bc1-707b-9de4-c99a5815e22d","019cf4c8-1de8-79ec-b3bd-d98520647593","","2417","
                <div class=""stimulus-container"">
                    <img src=""images/causal_sequence/the_performance_causal/the_performance_causal_1.png"" class=""exp-image"">
                    <div class=""question-area"">
                        <p style=""font-size: 20px; font-weight: bold; margin: 0;"">Is there a person in this image?</p>
                    </div>
                </div>","0","main_experiment_trial","1","the_performance_causal","causal_sequence","","","","",""
"","","","","","html-keyboard-response","166","3161983","0.0-166.0","FD4D9DF6EED34CE78ED3728EAF1E9D18","019cf4f7-9bc1-707b-9de4-c99a5815e22d","019cf4c8-1de8-79ec-b3bd-d98520647593","","null","
                <div class=""stimulus-container"">
                    <img src=""images/causal_sequence/the_performance_causal/the_performance_causal_2.png"" class=""exp-image"">
                    <div class=""question-area""></div> 
                </div>","null","","","","","","","","",""
"","","","","","html-button-response","167","3163060","0.0-167.0","FD4D9DF6EED34CE78ED3728EAF1E9D18","019cf4f7-9bc1-707b-9de4-c99a5815e22d","019cf4c8-1de8-79ec-b3bd-d98520647593","","1075","
                <div class=""stimulus-container"">
                    <img src=""images/causal_sequence/the_performance_causal/the_performance_causal_2.png"" class=""exp-image"">
                    <div class=""question-area"">
                        <p style=""font-size: 20px; font-weight: bold; margin: 0;"">Is there a person in this image?</p>
                    </div>
                </div>","0","main_experiment_trial","2","the_performance_causal","causal_sequence","","","","",""
"","","","","","html-keyboard-response","168","3168062","0.0-168.0","FD4D9DF6EED34CE78ED3728EAF1E9D18","019cf4f7-9bc1-707b-9de4-c99a5815e22d","019cf4c8-1de8-79ec-b3bd-d98520647593","","null","
                <div class=""stimulus-container"">
                    <img src=""images/causal_sequence/the_performance_causal/the_performance_causal_3.png"" class=""exp-image"">
                    <div class=""question-area""></div> 
                </div>","null","","","","","","","","",""
"","","","","","html-button-response","169","3170050","0.0-169.0","FD4D9DF6EED34CE78ED3728EAF1E9D18","019cf4f7-9bc1-707b-9de4-c99a5815e22d","019cf4c8-1de8-79ec-b3bd-d98520647593","","1987","
                <div class=""stimulus-container"">
                    <img src=""images/causal_sequence/the_performance_causal/the_performance_causal_3.png"" class=""exp-image"">
                    <div class=""question-area"">
                        <p style=""font-size: 20px; font-weight: bold; margin: 0;"">Is there a person in this image?</p>
                    </div>
                </div>","0","main_experiment_trial","3","the_performance_causal","causal_sequence","","","","",""
"","","","","","html-keyboard-response","170","3175052","0.0-170.0","FD4D9DF6EED34CE78ED3728EAF1E9D18","019cf4f7-9bc1-707b-9de4-c99a5815e22d","019cf4c8-1de8-79ec-b3bd-d98520647593","","null","
                <div class=""stimulus-container"">
                    <img src=""images/causal_sequence/the_performance_causal/the_performance_causal_4.png"" class=""exp-image"">
                    <div class=""question-area""></div> 
                </div>","null","","","","","","","","",""
"","","","","","html-button-response","171","3176492","0.0-171.0","FD4D9DF6EED34CE78ED3728EAF1E9D18","019cf4f7-9bc1-707b-9de4-c99a5815e22d","019cf4c8-1de8-79ec-b3bd-d98520647593","","1439","
                <div class=""stimulus-container"">
                    <img src=""images/causal_sequence/the_performance_causal/the_performance_causal_4.png"" class=""exp-image"">
                    <div class=""question-area"">
                        <p style=""font-size: 20px; font-weight: bold; margin: 0;"">Is there a person in this image?</p>
                    </div>
                </div>","0","main_experiment_trial","4","the_performance_causal","causal_sequence","","","","",""
"","","","","","html-keyboard-response","172","3181495","0.0-172.0","FD4D9DF6EED34CE78ED3728EAF1E9D18","019cf4f7-9bc1-707b-9de4-c99a5815e22d","019cf4c8-1de8-79ec-b3bd-d98520647593","","null","
                <div class=""stimulus-container"">
                    <img src=""images/causal_sequence/the_performance_causal/the_performance_causal_5.png"" class=""exp-image"">
                    <div class=""question-area""></div> 
                </div>","null","","","","","","","","",""
"","","","","","html-button-response","173","3183538","0.0-173.0","FD4D9DF6EED34CE78ED3728EAF1E9D18","019cf4f7-9bc1-707b-9de4-c99a5815e22d","019cf4c8-1de8-79ec-b3bd-d98520647593","","2042","
                <div class=""stimulus-container"">
                    <img src=""images/causal_sequence/the_performance_causal/the_performance_causal_5.png"" class=""exp-image"">
                    <div class=""question-area"">
                        <p style=""font-size: 20px; font-weight: bold; margin: 0;"">Is there a person in this image?</p>
                    </div>
                </div>","0","main_experiment_trial","5","the_performance_causal","causal_sequence","","","","",""
"","","","","","html-keyboard-response","174","3188540","0.0-174.0","FD4D9DF6EED34CE78ED3728EAF1E9D18","019cf4f7-9bc1-707b-9de4-c99a5815e22d","019cf4c8-1de8-79ec-b3bd-d98520647593","","null","
                <div class=""stimulus-container"">
                    <img src=""images/causal_sequence/the_performance_causal/the_performance_causal_6.png"" class=""exp-image"">
                    <div class=""question-area""></div> 
                </div>","null","","","","","","","","",""
"","","","","","html-button-response","175","3190163","0.0-175.0","FD4D9DF6EED34CE78ED3728EAF1E9D18","019cf4f7-9bc1-707b-9de4-c99a5815e22d","019cf4c8-1de8-79ec-b3bd-d98520647593","","1622","
                <div class=""stimulus-container"">
                    <img src=""images/causal_sequence/the_performance_causal/the_performance_causal_6.png"" class=""exp-image"">
                    <div class=""question-area"">
                        <p style=""font-size: 20px; font-weight: bold; margin: 0;"">Is there a person in this image?</p>
                    </div>
                </div>","0","main_experiment_trial","6","the_performance_causal","causal_sequence","","","","",""
"","","","","","html-keyboard-response","176","3195164","0.0-176.0","FD4D9DF6EED34CE78ED3728EAF1E9D18","019cf4f7-9bc1-707b-9de4-c99a5815e22d","019cf4c8-1de8-79ec-b3bd-d98520647593","","null","
                <div class=""stimulus-container"">
                    <img src=""images/causal_sequence/the_performance_causal/the_performance_causal_7.png"" class=""exp-image"">
                    <div class=""question-area""></div> 
                </div>","null","","","","","","","","",""
"","","","","","html-button-response","177","3197291","0.0-177.0","FD4D9DF6EED34CE78ED3728EAF1E9D18","019cf4f7-9bc1-707b-9de4-c99a5815e22d","019cf4c8-1de8-79ec-b3bd-d98520647593","","2125","
                <div class=""stimulus-container"">
                    <img src=""images/causal_sequence/the_performance_causal/the_performance_causal_7.png"" class=""exp-image"">
                    <div class=""question-area"">
                        <p style=""font-size: 20px; font-weight: bold; margin: 0;"">Is there a person in this image?</p>
                    </div>
                </div>","0","main_experiment_trial","7","the_performance_causal","causal_sequence","","","","",""
"","","","","","html-keyboard-response","178","3202292","0.0-178.0","FD4D9DF6EED34CE78ED3728EAF1E9D18","019cf4f7-9bc1-707b-9de4-c99a5815e22d","019cf4c8-1de8-79ec-b3bd-d98520647593","","null","
                <div class=""stimulus-container"">
                    <img src=""images/causal_sequence/the_performance_causal/the_performance_causal_8.png"" class=""exp-image"">
                    <div class=""question-area""></div> 
                </div>","null","","","","","","","","",""
"","","","","","html-button-response","179","3203221","0.0-179.0","FD4D9DF6EED34CE78ED3728EAF1E9D18","019cf4f7-9bc1-707b-9de4-c99a5815e22d","019cf4c8-1de8-79ec-b3bd-d98520647593","","927","
                <div class=""stimulus-container"">
                    <img src=""images/causal_sequence/the_performance_causal/the_performance_causal_8.png"" class=""exp-image"">
                    <div class=""question-area"">
                        <p style=""font-size: 20px; font-weight: bold; margin: 0;"">Is there a person in this image?</p>
                    </div>
                </div>","0","main_experiment_trial","8","the_performance_causal","causal_sequence","","","","",""
"","","","","","html-keyboard-response","180","3208223","0.0-180.0","FD4D9DF6EED34CE78ED3728EAF1E9D18","019cf4f7-9bc1-707b-9de4-c99a5815e22d","019cf4c8-1de8-79ec-b3bd-d98520647593","","null","
                <div class=""stimulus-container"">
                    <img src=""images/causal_sequence/the_performance_causal/the_performance_causal_9.png"" class=""exp-image"">
                    <div class=""question-area""></div> 
                </div>","null","","","","","","","","",""
"","","","","","html-button-response","181","3209541","0.0-181.0","FD4D9DF6EED34CE78ED3728EAF1E9D18","019cf4f7-9bc1-707b-9de4-c99a5815e22d","019cf4c8-1de8-79ec-b3bd-d98520647593","","1317","
                <div class=""stimulus-container"">
                    <img src=""images/causal_sequence/the_performance_causal/the_performance_causal_9.png"" class=""exp-image"">
                    <div class=""question-area"">
                        <p style=""font-size: 20px; font-weight: bold; margin: 0;"">Is there a person in this image?</p>
                    </div>
                </div>","0","main_experiment_trial","9","the_performance_causal","causal_sequence","","","","",""
"","","","","","html-keyboard-response","182","3214543","0.0-182.0","FD4D9DF6EED34CE78ED3728EAF1E9D18","019cf4f7-9bc1-707b-9de4-c99a5815e22d","019cf4c8-1de8-79ec-b3bd-d98520647593","","null","
                <div class=""stimulus-container"">
                    <img src=""images/causal_sequence/the_performance_causal/the_performance_causal_ten.png"" class=""exp-image"">
                    <div class=""question-area""></div> 
