"success","timeout","failed_images","failed_audio","failed_video","trial_type","trial_index","time_elapsed","internal_node_id","subject_id","study_id","session_id","view_history","rt","stimulus","response","task","image_index","folder","sequence_type","valuable_image_index","reward_type","chosen_image_index","target_X","correct_choice"
"true","false","[]","[]","[]","preload","0","98","0.0-0.0","7EC6EC9604A74DB4B503ED8DB5DFB91F","019cf705-43e7-7cb2-a567-6467a3d89f22","019cf6fe-235e-7d95-bb9b-b011d2fe188e","","","","","","","","","","","","",""
"","","","","","instructions","1","10404","0.0-1.0","7EC6EC9604A74DB4B503ED8DB5DFB91F","019cf705-43e7-7cb2-a567-6467a3d89f22","019cf6fe-235e-7d95-bb9b-b011d2fe188e","[{""page_index"":0,""viewing_time"":10305}]","10306","","","","","","","","","","",""
"","","","","","instructions","2","14095","0.0-2.0","7EC6EC9604A74DB4B503ED8DB5DFB91F","019cf705-43e7-7cb2-a567-6467a3d89f22","019cf6fe-235e-7d95-bb9b-b011d2fe188e","[{""page_index"":0,""viewing_time"":3691}]","3691","","","","","","","","","","",""
"true","","","","","fullscreen","3","79945","0.0-3.0","7EC6EC9604A74DB4B503ED8DB5DFB91F","019cf705-43e7-7cb2-a567-6467a3d89f22","019cf6fe-235e-7d95-bb9b-b011d2fe188e","","64846","","","","","","","","","","",""
"","","","","","instructions","4","145671","0.0-4.0","7EC6EC9604A74DB4B503ED8DB5DFB91F","019cf705-43e7-7cb2-a567-6467a3d89f22","019cf6fe-235e-7d95-bb9b-b011d2fe188e","[{""page_index"":0,""viewing_time"":65725}]","65725","","","","","","","","","","",""
"","","","","","instructions","5","153966","0.0-5.0","7EC6EC9604A74DB4B503ED8DB5DFB91F","019cf705-43e7-7cb2-a567-6467a3d89f22","019cf6fe-235e-7d95-bb9b-b011d2fe188e","[{""page_index"":0,""viewing_time"":8296}]","8296","","","","","","","","","","",""
"","","","","","html-keyboard-response","6","157968","0.0-6.0","7EC6EC9604A74DB4B503ED8DB5DFB91F","019cf705-43e7-7cb2-a567-6467a3d89f22","019cf6fe-235e-7d95-bb9b-b011d2fe188e","","null","
                <div class=""stimulus-container"">
                    <img src=""images/instructions/movie_1.png"" class=""exp-image"">
                    <div class=""question-area""></div> 
                </div>","null","","","","","","","","",""
"","","","","","html-button-response","7","158765","0.0-7.0","7EC6EC9604A74DB4B503ED8DB5DFB91F","019cf705-43e7-7cb2-a567-6467a3d89f22","019cf6fe-235e-7d95-bb9b-b011d2fe188e","","796","
                <div class=""stimulus-container"">
                    <img src=""images/instructions/movie_1.png"" class=""exp-image"">
                    <div class=""question-area"">
                        <p style=""font-size: 20px; font-weight: bold; margin: 0;"">Was there a person in this image?</p>
                    </div>
                </div>","0","example_question","1","","","","","","",""
"","","","","","html-keyboard-response","8","162781","0.0-8.0","7EC6EC9604A74DB4B503ED8DB5DFB91F","019cf705-43e7-7cb2-a567-6467a3d89f22","019cf6fe-235e-7d95-bb9b-b011d2fe188e","","null","
                <div class=""stimulus-container"">
                    <img src=""images/instructions/movie_2.png"" class=""exp-image"">
                    <div class=""question-area""></div> 
                </div>","null","","","","","","","","",""
"","","","","","html-button-response","9","163411","0.0-9.0","7EC6EC9604A74DB4B503ED8DB5DFB91F","019cf705-43e7-7cb2-a567-6467a3d89f22","019cf6fe-235e-7d95-bb9b-b011d2fe188e","","630","
                <div class=""stimulus-container"">
                    <img src=""images/instructions/movie_2.png"" class=""exp-image"">
                    <div class=""question-area"">
                        <p style=""font-size: 20px; font-weight: bold; margin: 0;"">Was there a person in this image?</p>
                    </div>
                </div>","0","example_question","2","","","","","","",""
"","","","","","html-keyboard-response","10","167418","0.0-10.0","7EC6EC9604A74DB4B503ED8DB5DFB91F","019cf705-43e7-7cb2-a567-6467a3d89f22","019cf6fe-235e-7d95-bb9b-b011d2fe188e","","null","
                <div class=""stimulus-container"">
                    <img src=""images/instructions/movie_3.png"" class=""exp-image"">
                    <div class=""question-area""></div> 
                </div>","null","","","","","","","","",""
"","","","","","html-button-response","11","168073","0.0-11.0","7EC6EC9604A74DB4B503ED8DB5DFB91F","019cf705-43e7-7cb2-a567-6467a3d89f22","019cf6fe-235e-7d95-bb9b-b011d2fe188e","","654","
                <div class=""stimulus-container"">
                    <img src=""images/instructions/movie_3.png"" class=""exp-image"">
                    <div class=""question-area"">
                        <p style=""font-size: 20px; font-weight: bold; margin: 0;"">Was there a person in this image?</p>
                    </div>
                </div>","0","example_question","3","","","","","","",""
"","","","","","html-keyboard-response","12","172074","0.0-12.0","7EC6EC9604A74DB4B503ED8DB5DFB91F","019cf705-43e7-7cb2-a567-6467a3d89f22","019cf6fe-235e-7d95-bb9b-b011d2fe188e","","null","
                <div class=""stimulus-container"">
                    <img src=""images/instructions/movie_4.png"" class=""exp-image"">
                    <div class=""question-area""></div> 
                </div>","null","","","","","","","","",""
"","","","","","html-button-response","13","172959","0.0-13.0","7EC6EC9604A74DB4B503ED8DB5DFB91F","019cf705-43e7-7cb2-a567-6467a3d89f22","019cf6fe-235e-7d95-bb9b-b011d2fe188e","","884","
                <div class=""stimulus-container"">
                    <img src=""images/instructions/movie_4.png"" class=""exp-image"">
                    <div class=""question-area"">
                        <p style=""font-size: 20px; font-weight: bold; margin: 0;"">Was there a person in this image?</p>
                    </div>
                </div>","0","example_question","4","","","","","","",""
"","","","","","instructions","14","202321","0.0-14.0","7EC6EC9604A74DB4B503ED8DB5DFB91F","019cf705-43e7-7cb2-a567-6467a3d89f22","019cf6fe-235e-7d95-bb9b-b011d2fe188e","[{""page_index"":0,""viewing_time"":29362}]","29362","","","","","","","","","","",""
"","","","","","instructions","15","205285","0.0-15.0","7EC6EC9604A74DB4B503ED8DB5DFB91F","019cf705-43e7-7cb2-a567-6467a3d89f22","019cf6fe-235e-7d95-bb9b-b011d2fe188e","[{""page_index"":0,""viewing_time"":2964}]","2964","","","","","","","","","","",""
"","","","","","html-keyboard-response","16","206295","0.0-16.0","7EC6EC9604A74DB4B503ED8DB5DFB91F","019cf705-43e7-7cb2-a567-6467a3d89f22","019cf6fe-235e-7d95-bb9b-b011d2fe188e","","null","<div style=""background-color: white; width: 100vw; height: 100vh;""></div>","null","","","","","","","","",""
"","","","","","html-keyboard-response","17","211296","0.0-17.0","7EC6EC9604A74DB4B503ED8DB5DFB91F","019cf705-43e7-7cb2-a567-6467a3d89f22","019cf6fe-235e-7d95-bb9b-b011d2fe188e","","null","
                <div class=""stimulus-container"">
                    <img src=""images/causal_sequence/package_causal/package_causal_1.png"" class=""exp-image"">
                    <div class=""question-area""></div> 
                </div>","null","","","","","","","","",""
"","","","","","html-button-response","18","212270","0.0-18.0","7EC6EC9604A74DB4B503ED8DB5DFB91F","019cf705-43e7-7cb2-a567-6467a3d89f22","019cf6fe-235e-7d95-bb9b-b011d2fe188e","","973","
                <div class=""stimulus-container"">
                    <img src=""images/causal_sequence/package_causal/package_causal_1.png"" class=""exp-image"">
                    <div class=""question-area"">
                        <p style=""font-size: 20px; font-weight: bold; margin: 0;"">Is there a person in this image?</p>
                    </div>
                </div>","0","main_experiment_trial","1","package_causal","causal_sequence","","","","",""
"","","","","","html-keyboard-response","19","217278","0.0-19.0","7EC6EC9604A74DB4B503ED8DB5DFB91F","019cf705-43e7-7cb2-a567-6467a3d89f22","019cf6fe-235e-7d95-bb9b-b011d2fe188e","","null","
                <div class=""stimulus-container"">
                    <img src=""images/causal_sequence/package_causal/package_causal_2.png"" class=""exp-image"">
                    <div class=""question-area""></div> 
                </div>","null","","","","","","","","",""
"","","","","","html-button-response","20","219071","0.0-20.0","7EC6EC9604A74DB4B503ED8DB5DFB91F","019cf705-43e7-7cb2-a567-6467a3d89f22","019cf6fe-235e-7d95-bb9b-b011d2fe188e","","1792","
                <div class=""stimulus-container"">
                    <img src=""images/causal_sequence/package_causal/package_causal_2.png"" class=""exp-image"">
                    <div class=""question-area"">
                        <p style=""font-size: 20px; font-weight: bold; margin: 0;"">Is there a person in this image?</p>
                    </div>
                </div>","0","main_experiment_trial","2","package_causal","causal_sequence","","","","",""
"","","","","","html-keyboard-response","21","224083","0.0-21.0","7EC6EC9604A74DB4B503ED8DB5DFB91F","019cf705-43e7-7cb2-a567-6467a3d89f22","019cf6fe-235e-7d95-bb9b-b011d2fe188e","","null","
                <div class=""stimulus-container"">
                    <img src=""images/causal_sequence/package_causal/package_causal_3.png"" class=""exp-image"">
                    <div class=""question-area""></div> 
                </div>","null","","","","","","","","",""
"","","","","","html-button-response","22","224694","0.0-22.0","7EC6EC9604A74DB4B503ED8DB5DFB91F","019cf705-43e7-7cb2-a567-6467a3d89f22","019cf6fe-235e-7d95-bb9b-b011d2fe188e","","611","
                <div class=""stimulus-container"">
                    <img src=""images/causal_sequence/package_causal/package_causal_3.png"" class=""exp-image"">
                    <div class=""question-area"">
                        <p style=""font-size: 20px; font-weight: bold; margin: 0;"">Is there a person in this image?</p>
                    </div>
                </div>","0","main_experiment_trial","3","package_causal","causal_sequence","","","","",""
"","","","","","html-keyboard-response","23","229706","0.0-23.0","7EC6EC9604A74DB4B503ED8DB5DFB91F","019cf705-43e7-7cb2-a567-6467a3d89f22","019cf6fe-235e-7d95-bb9b-b011d2fe188e","","null","
                <div class=""stimulus-container"">
                    <img src=""images/causal_sequence/package_causal/package_causal_4.png"" class=""exp-image"">
                    <div class=""question-area""></div> 
                </div>","null","","","","","","","","",""
"","","","","","html-button-response","24","230354","0.0-24.0","7EC6EC9604A74DB4B503ED8DB5DFB91F","019cf705-43e7-7cb2-a567-6467a3d89f22","019cf6fe-235e-7d95-bb9b-b011d2fe188e","","648","
                <div class=""stimulus-container"">
                    <img src=""images/causal_sequence/package_causal/package_causal_4.png"" class=""exp-image"">
                    <div class=""question-area"">
                        <p style=""font-size: 20px; font-weight: bold; margin: 0;"">Is there a person in this image?</p>
                    </div>
                </div>","0","main_experiment_trial","4","package_causal","causal_sequence","","","","",""
"","","","","","html-keyboard-response","25","235366","0.0-25.0","7EC6EC9604A74DB4B503ED8DB5DFB91F","019cf705-43e7-7cb2-a567-6467a3d89f22","019cf6fe-235e-7d95-bb9b-b011d2fe188e","","null","
                <div class=""stimulus-container"">
                    <img src=""images/causal_sequence/package_causal/package_causal_5.png"" class=""exp-image"">
                    <div class=""question-area""></div> 
                </div>","null","","","","","","","","",""
"","","","","","html-button-response","26","235989","0.0-26.0","7EC6EC9604A74DB4B503ED8DB5DFB91F","019cf705-43e7-7cb2-a567-6467a3d89f22","019cf6fe-235e-7d95-bb9b-b011d2fe188e","","622","
                <div class=""stimulus-container"">
                    <img src=""images/causal_sequence/package_causal/package_causal_5.png"" class=""exp-image"">
                    <div class=""question-area"">
                        <p style=""font-size: 20px; font-weight: bold; margin: 0;"">Is there a person in this image?</p>
                    </div>
                </div>","0","main_experiment_trial","5","package_causal","causal_sequence","","","","",""
"","","","","","html-keyboard-response","27","240994","0.0-27.0","7EC6EC9604A74DB4B503ED8DB5DFB91F","019cf705-43e7-7cb2-a567-6467a3d89f22","019cf6fe-235e-7d95-bb9b-b011d2fe188e","","null","
                <div class=""stimulus-container"">
                    <img src=""images/causal_sequence/package_causal/package_causal_6.png"" class=""exp-image"">
                    <div class=""question-area""></div> 
                </div>","null","","","","","","","","",""
"","","","","","html-button-response","28","241597","0.0-28.0","7EC6EC9604A74DB4B503ED8DB5DFB91F","019cf705-43e7-7cb2-a567-6467a3d89f22","019cf6fe-235e-7d95-bb9b-b011d2fe188e","","603","
                <div class=""stimulus-container"">
                    <img src=""images/causal_sequence/package_causal/package_causal_6.png"" class=""exp-image"">
                    <div class=""question-area"">
                        <p style=""font-size: 20px; font-weight: bold; margin: 0;"">Is there a person in this image?</p>
                    </div>
                </div>","0","main_experiment_trial","6","package_causal","causal_sequence","","","","",""
"","","","","","html-keyboard-response","29","246607","0.0-29.0","7EC6EC9604A74DB4B503ED8DB5DFB91F","019cf705-43e7-7cb2-a567-6467a3d89f22","019cf6fe-235e-7d95-bb9b-b011d2fe188e","","null","
                <div class=""stimulus-container"">
                    <img src=""images/causal_sequence/package_causal/package_causal_7.png"" class=""exp-image"">
                    <div class=""question-area""></div> 
                </div>","null","","","","","","","","",""
"","","","","","html-button-response","30","247202","0.0-30.0","7EC6EC9604A74DB4B503ED8DB5DFB91F","019cf705-43e7-7cb2-a567-6467a3d89f22","019cf6fe-235e-7d95-bb9b-b011d2fe188e","","595","
                <div class=""stimulus-container"">
                    <img src=""images/causal_sequence/package_causal/package_causal_7.png"" class=""exp-image"">
                    <div class=""question-area"">
                        <p style=""font-size: 20px; font-weight: bold; margin: 0;"">Is there a person in this image?</p>
                    </div>
                </div>","0","main_experiment_trial","7","package_causal","causal_sequence","","","","",""
"","","","","","html-keyboard-response","31","252206","0.0-31.0","7EC6EC9604A74DB4B503ED8DB5DFB91F","019cf705-43e7-7cb2-a567-6467a3d89f22","019cf6fe-235e-7d95-bb9b-b011d2fe188e","","null","
                <div class=""stimulus-container"">
                    <img src=""images/causal_sequence/package_causal/package_causal_8.png"" class=""exp-image"">
                    <div class=""question-area""></div> 
                </div>","null","","","","","","","","",""
"","","","","","html-button-response","32","252920","0.0-32.0","7EC6EC9604A74DB4B503ED8DB5DFB91F","019cf705-43e7-7cb2-a567-6467a3d89f22","019cf6fe-235e-7d95-bb9b-b011d2fe188e","","714","
                <div class=""stimulus-container"">
                    <img src=""images/causal_sequence/package_causal/package_causal_8.png"" class=""exp-image"">
                    <div class=""question-area"">
                        <p style=""font-size: 20px; font-weight: bold; margin: 0;"">Is there a person in this image?</p>
                    </div>
                </div>","0","main_experiment_trial","8","package_causal","causal_sequence","","","","",""
"","","","","","html-keyboard-response","33","257925","0.0-33.0","7EC6EC9604A74DB4B503ED8DB5DFB91F","019cf705-43e7-7cb2-a567-6467a3d89f22","019cf6fe-235e-7d95-bb9b-b011d2fe188e","","null","
                <div class=""stimulus-container"">
                    <img src=""images/causal_sequence/package_causal/package_causal_9.png"" class=""exp-image"">
                    <div class=""question-area""></div> 
                </div>","null","","","","","","","","",""
"","","","","","html-button-response","34","258633","0.0-34.0","7EC6EC9604A74DB4B503ED8DB5DFB91F","019cf705-43e7-7cb2-a567-6467a3d89f22","019cf6fe-235e-7d95-bb9b-b011d2fe188e","","707","
                <div class=""stimulus-container"">
                    <img src=""images/causal_sequence/package_causal/package_causal_9.png"" class=""exp-image"">
                    <div class=""question-area"">
                        <p style=""font-size: 20px; font-weight: bold; margin: 0;"">Is there a person in this image?</p>
                    </div>
                </div>","0","main_experiment_trial","9","package_causal","causal_sequence","","","","",""
"","","","","","html-keyboard-response","35","263636","0.0-35.0","7EC6EC9604A74DB4B503ED8DB5DFB91F","019cf705-43e7-7cb2-a567-6467a3d89f22","019cf6fe-235e-7d95-bb9b-b011d2fe188e","","null","
                <div class=""stimulus-container"">
                    <img src=""images/causal_sequence/package_causal/package_causal_ten.png"" class=""exp-image"">
                    <div class=""question-area""></div> 
                </div>","null","","","","","","","","",""
"","","","","","html-button-response","36","264425","0.0-36.0","7EC6EC9604A74DB4B503ED8DB5DFB91F","019cf705-43e7-7cb2-a567-6467a3d89f22","019cf6fe-235e-7d95-bb9b-b011d2fe188e","","788","
                <div class=""stimulus-container"">
                    <img src=""images/causal_sequence/package_causal/package_causal_ten.png"" class=""exp-image"">
                    <div class=""question-area"">
                        <p style=""font-size: 20px; font-weight: bold; margin: 0;"">Is there a person in this image?</p>
                    </div>
                </div>","0","main_experiment_trial","ten","package_causal","causal_sequence","","","","",""
"","","","","","html-keyboard-response","37","265435","0.0-37.0","7EC6EC9604A74DB4B503ED8DB5DFB91F","019cf705-43e7-7cb2-a567-6467a3d89f22","019cf6fe-235e-7d95-bb9b-b011d2fe188e","","null","<div style=""background-color: white; width: 100vw; height: 100vh;""></div>","null","","","","","","","","",""
"","","","","","html-keyboard-response","38","270445","0.0-38.0","7EC6EC9604A74DB4B503ED8DB5DFB91F","019cf705-43e7-7cb2-a567-6467a3d89f22","019cf6fe-235e-7d95-bb9b-b011d2fe188e","","null","
                <div class=""stimulus-container"">
                    <img src=""images/schematic_sequence/hotel_scheme/hotel_scheme_1.png"" class=""exp-image"">
                    <div class=""question-area""></div> 
                </div>","null","","","","","","","","",""
"","","","","","html-button-response","39","270917","0.0-39.0","7EC6EC9604A74DB4B503ED8DB5DFB91F","019cf705-43e7-7cb2-a567-6467a3d89f22","019cf6fe-235e-7d95-bb9b-b011d2fe188e","","471","
                <div class=""stimulus-container"">
                    <img src=""images/schematic_sequence/hotel_scheme/hotel_scheme_1.png"" class=""exp-image"">
                    <div class=""question-area"">
                        <p style=""font-size: 20px; font-weight: bold; margin: 0;"">Is there a person in this image?</p>
                    </div>
                </div>","1","main_experiment_trial","1","hotel_scheme","schematic_sequence","","","","",""
"","","","","","html-keyboard-response","40","275919","0.0-40.0","7EC6EC9604A74DB4B503ED8DB5DFB91F","019cf705-43e7-7cb2-a567-6467a3d89f22","019cf6fe-235e-7d95-bb9b-b011d2fe188e","","null","
                <div class=""stimulus-container"">
                    <img src=""images/schematic_sequence/hotel_scheme/hotel_scheme_2.png"" class=""exp-image"">
                    <div class=""question-area""></div> 
                </div>","null","","","","","","","","",""
"","","","","","html-button-response","41","276542","0.0-41.0","7EC6EC9604A74DB4B503ED8DB5DFB91F","019cf705-43e7-7cb2-a567-6467a3d89f22","019cf6fe-235e-7d95-bb9b-b011d2fe188e","","623","
                <div class=""stimulus-container"">
                    <img src=""images/schematic_sequence/hotel_scheme/hotel_scheme_2.png"" class=""exp-image"">
                    <div class=""question-area"">
                        <p style=""font-size: 20px; font-weight: bold; margin: 0;"">Is there a person in this image?</p>
                    </div>
                </div>","0","main_experiment_trial","2","hotel_scheme","schematic_sequence","","","","",""
"","","","","","html-keyboard-response","42","281546","0.0-42.0","7EC6EC9604A74DB4B503ED8DB5DFB91F","019cf705-43e7-7cb2-a567-6467a3d89f22","019cf6fe-235e-7d95-bb9b-b011d2fe188e","","null","
                <div class=""stimulus-container"">
                    <img src=""images/schematic_sequence/hotel_scheme/hotel_scheme_3.png"" class=""exp-image"">
                    <div class=""question-area""></div> 
                </div>","null","","","","","","","","",""
"","","","","","html-button-response","43","282202","0.0-43.0","7EC6EC9604A74DB4B503ED8DB5DFB91F","019cf705-43e7-7cb2-a567-6467a3d89f22","019cf6fe-235e-7d95-bb9b-b011d2fe188e","","655","
                <div class=""stimulus-container"">
                    <img src=""images/schematic_sequence/hotel_scheme/hotel_scheme_3.png"" class=""exp-image"">
                    <div class=""question-area"">
                        <p style=""font-size: 20px; font-weight: bold; margin: 0;"">Is there a person in this image?</p>
                    </div>
                </div>","0","main_experiment_trial","3","hotel_scheme","schematic_sequence","","","","",""
"","","","","","html-keyboard-response","44","287209","0.0-44.0","7EC6EC9604A74DB4B503ED8DB5DFB91F","019cf705-43e7-7cb2-a567-6467a3d89f22","019cf6fe-235e-7d95-bb9b-b011d2fe188e","","null","
                <div class=""stimulus-container"">
                    <img src=""images/schematic_sequence/hotel_scheme/hotel_scheme_4.png"" class=""exp-image"">
                    <div class=""question-area""></div> 
                </div>","null","","","","","","","","",""
"","","","","","html-button-response","45","287773","0.0-45.0","7EC6EC9604A74DB4B503ED8DB5DFB91F","019cf705-43e7-7cb2-a567-6467a3d89f22","019cf6fe-235e-7d95-bb9b-b011d2fe188e","","563","
                <div class=""stimulus-container"">
                    <img src=""images/schematic_sequence/hotel_scheme/hotel_scheme_4.png"" class=""exp-image"">
                    <div class=""question-area"">
                        <p style=""font-size: 20px; font-weight: bold; margin: 0;"">Is there a person in this image?</p>
                    </div>
                </div>","1","main_experiment_trial","4","hotel_scheme","schematic_sequence","","","","",""
"","","","","","html-keyboard-response","46","292780","0.0-46.0","7EC6EC9604A74DB4B503ED8DB5DFB91F","019cf705-43e7-7cb2-a567-6467a3d89f22","019cf6fe-235e-7d95-bb9b-b011d2fe188e","","null","
                <div class=""stimulus-container"">
                    <img src=""images/schematic_sequence/hotel_scheme/hotel_scheme_5.png"" class=""exp-image"">
                    <div class=""question-area""></div> 
                </div>","null","","","","","","","","",""
"","","","","","html-button-response","47","293365","0.0-47.0","7EC6EC9604A74DB4B503ED8DB5DFB91F","019cf705-43e7-7cb2-a567-6467a3d89f22","019cf6fe-235e-7d95-bb9b-b011d2fe188e","","584","
                <div class=""stimulus-container"">
                    <img src=""images/schematic_sequence/hotel_scheme/hotel_scheme_5.png"" class=""exp-image"">
                    <div class=""question-area"">
                        <p style=""font-size: 20px; font-weight: bold; margin: 0;"">Is there a person in this image?</p>
                    </div>
                </div>","0","main_experiment_trial","5","hotel_scheme","schematic_sequence","","","","",""
"","","","","","html-keyboard-response","48","298369","0.0-48.0","7EC6EC9604A74DB4B503ED8DB5DFB91F","019cf705-43e7-7cb2-a567-6467a3d89f22","019cf6fe-235e-7d95-bb9b-b011d2fe188e","","null","
                <div class=""stimulus-container"">
                    <img src=""images/schematic_sequence/hotel_scheme/hotel_scheme_6.png"" class=""exp-image"">
                    <div class=""question-area""></div> 
                </div>","null","","","","","","","","",""
"","","","","","html-button-response","49","298796","0.0-49.0","7EC6EC9604A74DB4B503ED8DB5DFB91F","019cf705-43e7-7cb2-a567-6467a3d89f22","019cf6fe-235e-7d95-bb9b-b011d2fe188e","","426","
                <div class=""stimulus-container"">
                    <img src=""images/schematic_sequence/hotel_scheme/hotel_scheme_6.png"" class=""exp-image"">
                    <div class=""question-area"">
                        <p style=""font-size: 20px; font-weight: bold; margin: 0;"">Is there a person in this image?</p>
                    </div>
                </div>","0","main_experiment_trial","6","hotel_scheme","schematic_sequence","","","","",""
"","","","","","html-keyboard-response","50","303805","0.0-50.0","7EC6EC9604A74DB4B503ED8DB5DFB91F","019cf705-43e7-7cb2-a567-6467a3d89f22","019cf6fe-235e-7d95-bb9b-b011d2fe188e","","null","
                <div class=""stimulus-container"">
                    <img src=""images/schematic_sequence/hotel_scheme/hotel_scheme_7.png"" class=""exp-image"">
                    <div class=""question-area""></div> 
                </div>","null","","","","","","","","",""
"","","","","","html-button-response","51","304400","0.0-51.0","7EC6EC9604A74DB4B503ED8DB5DFB91F","019cf705-43e7-7cb2-a567-6467a3d89f22","019cf6fe-235e-7d95-bb9b-b011d2fe188e","","594","
                <div class=""stimulus-container"">
                    <img src=""images/schematic_sequence/hotel_scheme/hotel_scheme_7.png"" class=""exp-image"">
                    <div class=""question-area"">
                        <p style=""font-size: 20px; font-weight: bold; margin: 0;"">Is there a person in this image?</p>
                    </div>
                </div>","0","main_experiment_trial","7","hotel_scheme","schematic_sequence","","","","",""
"","","","","","html-keyboard-response","52","309414","0.0-52.0","7EC6EC9604A74DB4B503ED8DB5DFB91F","019cf705-43e7-7cb2-a567-6467a3d89f22","019cf6fe-235e-7d95-bb9b-b011d2fe188e","","null","
                <div class=""stimulus-container"">
                    <img src=""images/schematic_sequence/hotel_scheme/hotel_scheme_8.png"" class=""exp-image"">
                    <div class=""question-area""></div> 
                </div>","null","","","","","","","","",""
"","","","","","html-button-response","53","310062","0.0-53.0","7EC6EC9604A74DB4B503ED8DB5DFB91F","019cf705-43e7-7cb2-a567-6467a3d89f22","019cf6fe-235e-7d95-bb9b-b011d2fe188e","","648","
                <div class=""stimulus-container"">
                    <img src=""images/schematic_sequence/hotel_scheme/hotel_scheme_8.png"" class=""exp-image"">
                    <div class=""question-area"">
                        <p style=""font-size: 20px; font-weight: bold; margin: 0;"">Is there a person in this image?</p>
                    </div>
                </div>","0","main_experiment_trial","8","hotel_scheme","schematic_sequence","","","","",""
"","","","","","html-keyboard-response","54","315076","0.0-54.0","7EC6EC9604A74DB4B503ED8DB5DFB91F","019cf705-43e7-7cb2-a567-6467a3d89f22","019cf6fe-235e-7d95-bb9b-b011d2fe188e","","null","
                <div class=""stimulus-container"">
                    <img src=""images/schematic_sequence/hotel_scheme/hotel_scheme_9.png"" class=""exp-image"">
                    <div class=""question-area""></div> 
                </div>","null","","","","","","","","",""
"","","","","","html-button-response","55","315594","0.0-55.0","7EC6EC9604A74DB4B503ED8DB5DFB91F","019cf705-43e7-7cb2-a567-6467a3d89f22","019cf6fe-235e-7d95-bb9b-b011d2fe188e","","518","
                <div class=""stimulus-container"">
                    <img src=""images/schematic_sequence/hotel_scheme/hotel_scheme_9.png"" class=""exp-image"">
                    <div class=""question-area"">
                        <p style=""font-size: 20px; font-weight: bold; margin: 0;"">Is there a person in this image?</p>
                    </div>
                </div>","0","main_experiment_trial","9","hotel_scheme","schematic_sequence","","","","",""
"","","","","","html-keyboard-response","56","320596","0.0-56.0","7EC6EC9604A74DB4B503ED8DB5DFB91F","019cf705-43e7-7cb2-a567-6467a3d89f22","019cf6fe-235e-7d95-bb9b-b011d2fe188e","","null","
                <div class=""stimulus-container"">
                    <img src=""images/schematic_sequence/hotel_scheme/hotel_scheme_ten.png"" class=""exp-image"">
                    <div class=""question-area""></div> 
                </div>","null","","","","","","","","",""
"","","","","","html-button-response","57","321269","0.0-57.0","7EC6EC9604A74DB4B503ED8DB5DFB91F","019cf705-43e7-7cb2-a567-6467a3d89f22","019cf6fe-235e-7d95-bb9b-b011d2fe188e","","673","
                <div class=""stimulus-container"">
                    <img src=""images/schematic_sequence/hotel_scheme/hotel_scheme_ten.png"" class=""exp-image"">
                    <div class=""question-area"">
                        <p style=""font-size: 20px; font-weight: bold; margin: 0;"">Is there a person in this image?</p>
                    </div>
                </div>","0","main_experiment_trial","ten","hotel_scheme","schematic_sequence","","","","",""
"","","","","","html-keyboard-response","58","322276","0.0-58.0","7EC6EC9604A74DB4B503ED8DB5DFB91F","019cf705-43e7-7cb2-a567-6467a3d89f22","019cf6fe-235e-7d95-bb9b-b011d2fe188e","","null","<div style=""background-color: white; width: 100vw; height: 100vh;""></div>","null","","","","","","","","",""
"","","","","","html-keyboard-response","59","327288","0.0-59.0","7EC6EC9604A74DB4B503ED8DB5DFB91F","019cf705-43e7-7cb2-a567-6467a3d89f22","019cf6fe-235e-7d95-bb9b-b011d2fe188e","","null","
                <div class=""stimulus-container"">
                    <img src=""images/schematic_sequence/dinner_party_scheme/dinner_party_scheme_1.png"" class=""exp-image"">
                    <div class=""question-area""></div> 
                </div>","null","","","","","","","","",""
"","","","","","html-button-response","60","327851","0.0-60.0","7EC6EC9604A74DB4B503ED8DB5DFB91F","019cf705-43e7-7cb2-a567-6467a3d89f22","019cf6fe-235e-7d95-bb9b-b011d2fe188e","","562","
                <div class=""stimulus-container"">
                    <img src=""images/schematic_sequence/dinner_party_scheme/dinner_party_scheme_1.png"" class=""exp-image"">
                    <div class=""question-area"">
                        <p style=""font-size: 20px; font-weight: bold; margin: 0;"">Is there a person in this image?</p>
                    </div>
                </div>","0","main_experiment_trial","1","dinner_party_scheme","schematic_sequence","","","","",""
"","","","","","html-keyboard-response","61","332867","0.0-61.0","7EC6EC9604A74DB4B503ED8DB5DFB91F","019cf705-43e7-7cb2-a567-6467a3d89f22","019cf6fe-235e-7d95-bb9b-b011d2fe188e","","null","
                <div class=""stimulus-container"">
                    <img src=""images/schematic_sequence/dinner_party_scheme/dinner_party_scheme_2.png"" class=""exp-image"">
                    <div class=""question-area""></div> 
                </div>","null","","","","","","","","",""
"","","","","","html-button-response","62","333321","0.0-62.0","7EC6EC9604A74DB4B503ED8DB5DFB91F","019cf705-43e7-7cb2-a567-6467a3d89f22","019cf6fe-235e-7d95-bb9b-b011d2fe188e","","453","
                <div class=""stimulus-container"">
                    <img src=""images/schematic_sequence/dinner_party_scheme/dinner_party_scheme_2.png"" class=""exp-image"">
                    <div class=""question-area"">
                        <p style=""font-size: 20px; font-weight: bold; margin: 0;"">Is there a person in this image?</p>
                    </div>
                </div>","0","main_experiment_trial","2","dinner_party_scheme","schematic_sequence","","","","",""
"","","","","","html-keyboard-response","63","338334","0.0-63.0","7EC6EC9604A74DB4B503ED8DB5DFB91F","019cf705-43e7-7cb2-a567-6467a3d89f22","019cf6fe-235e-7d95-bb9b-b011d2fe188e","","null","
                <div class=""stimulus-container"">
                    <img src=""images/schematic_sequence/dinner_party_scheme/dinner_party_scheme_3.png"" class=""exp-image"">
                    <div class=""question-area""></div> 
                </div>","null","","","","","","","","",""
"","","","","","html-button-response","64","338833","0.0-64.0","7EC6EC9604A74DB4B503ED8DB5DFB91F","019cf705-43e7-7cb2-a567-6467a3d89f22","019cf6fe-235e-7d95-bb9b-b011d2fe188e","","499","
                <div class=""stimulus-container"">
                    <img src=""images/schematic_sequence/dinner_party_scheme/dinner_party_scheme_3.png"" class=""exp-image"">
                    <div class=""question-area"">
                        <p style=""font-size: 20px; font-weight: bold; margin: 0;"">Is there a person in this image?</p>
                    </div>
                </div>","0","main_experiment_trial","3","dinner_party_scheme","schematic_sequence","","","","",""
"","","","","","html-keyboard-response","65","343849","0.0-65.0","7EC6EC9604A74DB4B503ED8DB5DFB91F","019cf705-43e7-7cb2-a567-6467a3d89f22","019cf6fe-235e-7d95-bb9b-b011d2fe188e","","null","
                <div class=""stimulus-container"">
                    <img src=""images/schematic_sequence/dinner_party_scheme/dinner_party_scheme_4.png"" class=""exp-image"">
                    <div class=""question-area""></div> 
                </div>","null","","","","","","","","",""
"","","","","","html-button-response","66","344414","0.0-66.0","7EC6EC9604A74DB4B503ED8DB5DFB91F","019cf705-43e7-7cb2-a567-6467a3d89f22","019cf6fe-235e-7d95-bb9b-b011d2fe188e","","565","
                <div class=""stimulus-container"">
                    <img src=""images/schematic_sequence/dinner_party_scheme/dinner_party_scheme_4.png"" class=""exp-image"">
                    <div class=""question-area"">
                        <p style=""font-size: 20px; font-weight: bold; margin: 0;"">Is there a person in this image?</p>
                    </div>
                </div>","0","main_experiment_trial","4","dinner_party_scheme","schematic_sequence","","","","",""
"","","","","","html-keyboard-response","67","349428","0.0-67.0","7EC6EC9604A74DB4B503ED8DB5DFB91F","019cf705-43e7-7cb2-a567-6467a3d89f22","019cf6fe-235e-7d95-bb9b-b011d2fe188e","","null","
                <div class=""stimulus-container"">
                    <img src=""images/schematic_sequence/dinner_party_scheme/dinner_party_scheme_5.png"" class=""exp-image"">
                    <div class=""question-area""></div> 
                </div>","null","","","","","","","","",""
"","","","","","html-button-response","68","349930","0.0-68.0","7EC6EC9604A74DB4B503ED8DB5DFB91F","019cf705-43e7-7cb2-a567-6467a3d89f22","019cf6fe-235e-7d95-bb9b-b011d2fe188e","","501","
                <div class=""stimulus-container"">
                    <img src=""images/schematic_sequence/dinner_party_scheme/dinner_party_scheme_5.png"" class=""exp-image"">
                    <div class=""question-area"">
                        <p style=""font-size: 20px; font-weight: bold; margin: 0;"">Is there a person in this image?</p>
                    </div>
                </div>","0","main_experiment_trial","5","dinner_party_scheme","schematic_sequence","","","","",""
"","","","","","html-keyboard-response","69","354941","0.0-69.0","7EC6EC9604A74DB4B503ED8DB5DFB91F","019cf705-43e7-7cb2-a567-6467a3d89f22","019cf6fe-235e-7d95-bb9b-b011d2fe188e","","null","
                <div class=""stimulus-container"">
                    <img src=""images/schematic_sequence/dinner_party_scheme/dinner_party_scheme_6.png"" class=""exp-image"">
                    <div class=""question-area""></div> 
                </div>","null","","","","","","","","",""
"","","","","","html-button-response","70","355629","0.0-70.0","7EC6EC9604A74DB4B503ED8DB5DFB91F","019cf705-43e7-7cb2-a567-6467a3d89f22","019cf6fe-235e-7d95-bb9b-b011d2fe188e","","688","
                <div class=""stimulus-container"">
                    <img src=""images/schematic_sequence/dinner_party_scheme/dinner_party_scheme_6.png"" class=""exp-image"">
                    <div class=""question-area"">
                        <p style=""font-size: 20px; font-weight: bold; margin: 0;"">Is there a person in this image?</p>
                    </div>
                </div>","0","main_experiment_trial","6","dinner_party_scheme","schematic_sequence","","","","",""
"","","","","","html-keyboard-response","71","360644","0.0-71.0","7EC6EC9604A74DB4B503ED8DB5DFB91F","019cf705-43e7-7cb2-a567-6467a3d89f22","019cf6fe-235e-7d95-bb9b-b011d2fe188e","","null","
                <div class=""stimulus-container"">
                    <img src=""images/schematic_sequence/dinner_party_scheme/dinner_party_scheme_7.png"" class=""exp-image"">
                    <div class=""question-area""></div> 
                </div>","null","","","","","","","","",""
"","","","","","html-button-response","72","361160","0.0-72.0","7EC6EC9604A74DB4B503ED8DB5DFB91F","019cf705-43e7-7cb2-a567-6467a3d89f22","019cf6fe-235e-7d95-bb9b-b011d2fe188e","","515","
                <div class=""stimulus-container"">
                    <img src=""images/schematic_sequence/dinner_party_scheme/dinner_party_scheme_7.png"" class=""exp-image"">
                    <div class=""question-area"">
                        <p style=""font-size: 20px; font-weight: bold; margin: 0;"">Is there a person in this image?</p>
                    </div>
                </div>","0","main_experiment_trial","7","dinner_party_scheme","schematic_sequence","","","","",""
"","","","","","html-keyboard-response","73","366170","0.0-73.0","7EC6EC9604A74DB4B503ED8DB5DFB91F","019cf705-43e7-7cb2-a567-6467a3d89f22","019cf6fe-235e-7d95-bb9b-b011d2fe188e","","null","
                <div class=""stimulus-container"">
                    <img src=""images/schematic_sequence/dinner_party_scheme/dinner_party_scheme_8.png"" class=""exp-image"">
                    <div class=""question-area""></div> 
                </div>","null","","","","","","","","",""
"","","","","","html-button-response","74","366695","0.0-74.0","7EC6EC9604A74DB4B503ED8DB5DFB91F","019cf705-43e7-7cb2-a567-6467a3d89f22","019cf6fe-235e-7d95-bb9b-b011d2fe188e","","524","
                <div class=""stimulus-container"">
                    <img src=""images/schematic_sequence/dinner_party_scheme/dinner_party_scheme_8.png"" class=""exp-image"">
                    <div class=""question-area"">
                        <p style=""font-size: 20px; font-weight: bold; margin: 0;"">Is there a person in this image?</p>
                    </div>
                </div>","0","main_experiment_trial","8","dinner_party_scheme","schematic_sequence","","","","",""
"","","","","","html-keyboard-response","75","371703","0.0-75.0","7EC6EC9604A74DB4B503ED8DB5DFB91F","019cf705-43e7-7cb2-a567-6467a3d89f22","019cf6fe-235e-7d95-bb9b-b011d2fe188e","","null","
                <div class=""stimulus-container"">
                    <img src=""images/schematic_sequence/dinner_party_scheme/dinner_party_scheme_9.png"" class=""exp-image"">
                    <div class=""question-area""></div> 
                </div>","null","","","","","","","","",""
"","","","","","html-button-response","76","372400","0.0-76.0","7EC6EC9604A74DB4B503ED8DB5DFB91F","019cf705-43e7-7cb2-a567-6467a3d89f22","019cf6fe-235e-7d95-bb9b-b011d2fe188e","","697","
                <div class=""stimulus-container"">
                    <img src=""images/schematic_sequence/dinner_party_scheme/dinner_party_scheme_9.png"" class=""exp-image"">
                    <div class=""question-area"">
                        <p style=""font-size: 20px; font-weight: bold; margin: 0;"">Is there a person in this image?</p>
                    </div>
                </div>","0","main_experiment_trial","9","dinner_party_scheme","schematic_sequence","","","","",""
"","","","","","html-keyboard-response","77","377406","0.0-77.0","7EC6EC9604A74DB4B503ED8DB5DFB91F","019cf705-43e7-7cb2-a567-6467a3d89f22","019cf6fe-235e-7d95-bb9b-b011d2fe188e","","null","
                <div class=""stimulus-container"">
                    <img src=""images/schematic_sequence/dinner_party_scheme/dinner_party_scheme_ten.png"" class=""exp-image"">
                    <div class=""question-area""></div> 
                </div>","null","","","","","","","","",""
"","","","","","html-button-response","78","378171","0.0-78.0","7EC6EC9604A74DB4B503ED8DB5DFB91F","019cf705-43e7-7cb2-a567-6467a3d89f22","019cf6fe-235e-7d95-bb9b-b011d2fe188e","","764","
                <div class=""stimulus-container"">
                    <img src=""images/schematic_sequence/dinner_party_scheme/dinner_party_scheme_ten.png"" class=""exp-image"">
                    <div class=""question-area"">
                        <p style=""font-size: 20px; font-weight: bold; margin: 0;"">Is there a person in this image?</p>
                    </div>
                </div>","0","main_experiment_trial","ten","dinner_party_scheme","schematic_sequence","","","","",""
"","","","","","html-keyboard-response","79","379177","0.0-79.0","7EC6EC9604A74DB4B503ED8DB5DFB91F","019cf705-43e7-7cb2-a567-6467a3d89f22","019cf6fe-235e-7d95-bb9b-b011d2fe188e","","null","<div style=""background-color: white; width: 100vw; height: 100vh;""></div>","null","","","","","","","","",""
"","","","","","html-keyboard-response","80","384185","0.0-80.0","7EC6EC9604A74DB4B503ED8DB5DFB91F","019cf705-43e7-7cb2-a567-6467a3d89f22","019cf6fe-235e-7d95-bb9b-b011d2fe188e","","null","
                <div class=""stimulus-container"">
                    <img src=""images/schematic_sequence/restaurant_scheme/restaurant_scheme_1.png"" class=""exp-image"">
                    <div class=""question-area""></div> 
                </div>","null","","","","","","","","",""
"","","","","","html-button-response","81","385505","0.0-81.0","7EC6EC9604A74DB4B503ED8DB5DFB91F","019cf705-43e7-7cb2-a567-6467a3d89f22","019cf6fe-235e-7d95-bb9b-b011d2fe188e","","1320","
                <div class=""stimulus-container"">
                    <img src=""images/schematic_sequence/restaurant_scheme/restaurant_scheme_1.png"" class=""exp-image"">
                    <div class=""question-area"">
                        <p style=""font-size: 20px; font-weight: bold; margin: 0;"">Is there a person in this image?</p>
                    </div>
                </div>","0","main_experiment_trial","1","restaurant_scheme","schematic_sequence","","","","",""
"","","","","","html-keyboard-response","82","390514","0.0-82.0","7EC6EC9604A74DB4B503ED8DB5DFB91F","019cf705-43e7-7cb2-a567-6467a3d89f22","019cf6fe-235e-7d95-bb9b-b011d2fe188e","","null","
                <div class=""stimulus-container"">
                    <img src=""images/schematic_sequence/restaurant_scheme/restaurant_scheme_2.png"" class=""exp-image"">
                    <div class=""question-area""></div> 
                </div>","null","","","","","","","","",""
"","","","","","html-button-response","83","390983","0.0-83.0","7EC6EC9604A74DB4B503ED8DB5DFB91F","019cf705-43e7-7cb2-a567-6467a3d89f22","019cf6fe-235e-7d95-bb9b-b011d2fe188e","","469","
                <div class=""stimulus-container"">
                    <img src=""images/schematic_sequence/restaurant_scheme/restaurant_scheme_2.png"" class=""exp-image"">
                    <div class=""question-area"">
                        <p style=""font-size: 20px; font-weight: bold; margin: 0;"">Is there a person in this image?</p>
                    </div>
                </div>","1","main_experiment_trial","2","restaurant_scheme","schematic_sequence","","","","",""
"","","","","","html-keyboard-response","84","395984","0.0-84.0","7EC6EC9604A74DB4B503ED8DB5DFB91F","019cf705-43e7-7cb2-a567-6467a3d89f22","019cf6fe-235e-7d95-bb9b-b011d2fe188e","","null","
                <div class=""stimulus-container"">
                    <img src=""images/schematic_sequence/restaurant_scheme/restaurant_scheme_3.png"" class=""exp-image"">
                    <div class=""question-area""></div> 
                </div>","null","","","","","","","","",""
"","","","","","html-button-response","85","396676","0.0-85.0","7EC6EC9604A74DB4B503ED8DB5DFB91F","019cf705-43e7-7cb2-a567-6467a3d89f22","019cf6fe-235e-7d95-bb9b-b011d2fe188e","","692","
                <div class=""stimulus-container"">
                    <img src=""images/schematic_sequence/restaurant_scheme/restaurant_scheme_3.png"" class=""exp-image"">
                    <div class=""question-area"">
                        <p style=""font-size: 20px; font-weight: bold; margin: 0;"">Is there a person in this image?</p>
                    </div>
                </div>","1","main_experiment_trial","3","restaurant_scheme","schematic_sequence","","","","",""
"","","","","","html-keyboard-response","86","401678","0.0-86.0","7EC6EC9604A74DB4B503ED8DB5DFB91F","019cf705-43e7-7cb2-a567-6467a3d89f22","019cf6fe-235e-7d95-bb9b-b011d2fe188e","","null","
                <div class=""stimulus-container"">
                    <img src=""images/schematic_sequence/restaurant_scheme/restaurant_scheme_4.png"" class=""exp-image"">
                    <div class=""question-area""></div> 
                </div>","null","","","","","","","","",""
"","","","","","html-button-response","87","402343","0.0-87.0","7EC6EC9604A74DB4B503ED8DB5DFB91F","019cf705-43e7-7cb2-a567-6467a3d89f22","019cf6fe-235e-7d95-bb9b-b011d2fe188e","","665","
                <div class=""stimulus-container"">
                    <img src=""images/schematic_sequence/restaurant_scheme/restaurant_scheme_4.png"" class=""exp-image"">
                    <div class=""question-area"">
                        <p style=""font-size: 20px; font-weight: bold; margin: 0;"">Is there a person in this image?</p>
                    </div>
                </div>","0","main_experiment_trial","4","restaurant_scheme","schematic_sequence","","","","",""
"","","","","","html-keyboard-response","88","407353","0.0-88.0","7EC6EC9604A74DB4B503ED8DB5DFB91F","019cf705-43e7-7cb2-a567-6467a3d89f22","019cf6fe-235e-7d95-bb9b-b011d2fe188e","","null","
                <div class=""stimulus-container"">
                    <img src=""images/schematic_sequence/restaurant_scheme/restaurant_scheme_5.png"" class=""exp-image"">
                    <div class=""question-area""></div> 
                </div>","null","","","","","","","","",""
"","","","","","html-button-response","89","408048","0.0-89.0","7EC6EC9604A74DB4B503ED8DB5DFB91F","019cf705-43e7-7cb2-a567-6467a3d89f22","019cf6fe-235e-7d95-bb9b-b011d2fe188e","","695","
                <div class=""stimulus-container"">
                    <img src=""images/schematic_sequence/restaurant_scheme/restaurant_scheme_5.png"" class=""exp-image"">
                    <div class=""question-area"">
                        <p style=""font-size: 20px; font-weight: bold; margin: 0;"">Is there a person in this image?</p>
                    </div>
                </div>","0","main_experiment_trial","5","restaurant_scheme","schematic_sequence","","","","",""
"","","","","","html-keyboard-response","90","413063","0.0-90.0","7EC6EC9604A74DB4B503ED8DB5DFB91F","019cf705-43e7-7cb2-a567-6467a3d89f22","019cf6fe-235e-7d95-bb9b-b011d2fe188e","","null","
                <div class=""stimulus-container"">
                    <img src=""images/schematic_sequence/restaurant_scheme/restaurant_scheme_6.png"" class=""exp-image"">
                    <div class=""question-area""></div> 
                </div>","null","","","","","","","","",""
"","","","","","html-button-response","91","413694","0.0-91.0","7EC6EC9604A74DB4B503ED8DB5DFB91F","019cf705-43e7-7cb2-a567-6467a3d89f22","019cf6fe-235e-7d95-bb9b-b011d2fe188e","","631","
                <div class=""stimulus-container"">
                    <img src=""images/schematic_sequence/restaurant_scheme/restaurant_scheme_6.png"" class=""exp-image"">
                    <div class=""question-area"">
                        <p style=""font-size: 20px; font-weight: bold; margin: 0;"">Is there a person in this image?</p>
                    </div>
                </div>","1","main_experiment_trial","6","restaurant_scheme","schematic_sequence","","","","",""
"","","","","","html-keyboard-response","92","418697","0.0-92.0","7EC6EC9604A74DB4B503ED8DB5DFB91F","019cf705-43e7-7cb2-a567-6467a3d89f22","019cf6fe-235e-7d95-bb9b-b011d2fe188e","","null","
                <div class=""stimulus-container"">
                    <img src=""images/schematic_sequence/restaurant_scheme/restaurant_scheme_7.png"" class=""exp-image"">
                    <div class=""question-area""></div> 
                </div>","null","","","","","","","","",""
"","","","","","html-button-response","93","419261","0.0-93.0","7EC6EC9604A74DB4B503ED8DB5DFB91F","019cf705-43e7-7cb2-a567-6467a3d89f22","019cf6fe-235e-7d95-bb9b-b011d2fe188e","","563","
                <div class=""stimulus-container"">
                    <img src=""images/schematic_sequence/restaurant_scheme/restaurant_scheme_7.png"" class=""exp-image"">
                    <div class=""question-area"">
                        <p style=""font-size: 20px; font-weight: bold; margin: 0;"">Is there a person in this image?</p>
                    </div>
                </div>","1","main_experiment_trial","7","restaurant_scheme","schematic_sequence","","","","",""
"","","","","","html-keyboard-response","94","424262","0.0-94.0","7EC6EC9604A74DB4B503ED8DB5DFB91F","019cf705-43e7-7cb2-a567-6467a3d89f22","019cf6fe-235e-7d95-bb9b-b011d2fe188e","","null","
                <div class=""stimulus-container"">
                    <img src=""images/schematic_sequence/restaurant_scheme/restaurant_scheme_8.png"" class=""exp-image"">
                    <div class=""question-area""></div> 
                </div>","null","","","","","","","","",""
"","","","","","html-button-response","95","424996","0.0-95.0","7EC6EC9604A74DB4B503ED8DB5DFB91F","019cf705-43e7-7cb2-a567-6467a3d89f22","019cf6fe-235e-7d95-bb9b-b011d2fe188e","","734","
                <div class=""stimulus-container"">
                    <img src=""images/schematic_sequence/restaurant_scheme/restaurant_scheme_8.png"" class=""exp-image"">
                    <div class=""question-area"">
                        <p style=""font-size: 20px; font-weight: bold; margin: 0;"">Is there a person in this image?</p>
                    </div>
                </div>","0","main_experiment_trial","8","restaurant_scheme","schematic_sequence","","","","",""
"","","","","","html-keyboard-response","96","429998","0.0-96.0","7EC6EC9604A74DB4B503ED8DB5DFB91F","019cf705-43e7-7cb2-a567-6467a3d89f22","019cf6fe-235e-7d95-bb9b-b011d2fe188e","","null","
                <div class=""stimulus-container"">
                    <img src=""images/schematic_sequence/restaurant_scheme/restaurant_scheme_9.png"" class=""exp-image"">
                    <div class=""question-area""></div> 
                </div>","null","","","","","","","","",""
"","","","","","html-button-response","97","430422","0.0-97.0","7EC6EC9604A74DB4B503ED8DB5DFB91F","019cf705-43e7-7cb2-a567-6467a3d89f22","019cf6fe-235e-7d95-bb9b-b011d2fe188e","","424","
                <div class=""stimulus-container"">
                    <img src=""images/schematic_sequence/restaurant_scheme/restaurant_scheme_9.png"" class=""exp-image"">
                    <div class=""question-area"">
                        <p style=""font-size: 20px; font-weight: bold; margin: 0;"">Is there a person in this image?</p>
                    </div>
                </div>","0","main_experiment_trial","9","restaurant_scheme","schematic_sequence","","","","",""
"","","","","","html-keyboard-response","98","435422","0.0-98.0","7EC6EC9604A74DB4B503ED8DB5DFB91F","019cf705-43e7-7cb2-a567-6467a3d89f22","019cf6fe-235e-7d95-bb9b-b011d2fe188e","","null","
                <div class=""stimulus-container"">
                    <img src=""images/schematic_sequence/restaurant_scheme/restaurant_scheme_ten.png"" class=""exp-image"">
                    <div class=""question-area""></div> 
                </div>","null","","","","","","","","",""
"","","","","","html-button-response","99","436107","0.0-99.0","7EC6EC9604A74DB4B503ED8DB5DFB91F","019cf705-43e7-7cb2-a567-6467a3d89f22","019cf6fe-235e-7d95-bb9b-b011d2fe188e","","684","
                <div class=""stimulus-container"">
                    <img src=""images/schematic_sequence/restaurant_scheme/restaurant_scheme_ten.png"" class=""exp-image"">
                    <div class=""question-area"">
                        <p style=""font-size: 20px; font-weight: bold; margin: 0;"">Is there a person in this image?</p>
                    </div>
                </div>","0","main_experiment_trial","ten","restaurant_scheme","schematic_sequence","","","","",""
"","","","","","html-keyboard-response","100","437115","0.0-100.0","7EC6EC9604A74DB4B503ED8DB5DFB91F","019cf705-43e7-7cb2-a567-6467a3d89f22","019cf6fe-235e-7d95-bb9b-b011d2fe188e","","null","<div style=""background-color: white; width: 100vw; height: 100vh;""></div>","null","","","","","","","","",""
"","","","","","html-keyboard-response","101","442119","0.0-101.0","7EC6EC9604A74DB4B503ED8DB5DFB91F","019cf705-43e7-7cb2-a567-6467a3d89f22","019cf6fe-235e-7d95-bb9b-b011d2fe188e","","null","
                <div class=""stimulus-container"">
                    <img src=""images/causal_sequence/museum_causal/museum_causal_1.png"" class=""exp-image"">
                    <div class=""question-area""></div> 
                </div>","null","","","","","","","","",""
"","","","","","html-button-response","102","442842","0.0-102.0","7EC6EC9604A74DB4B503ED8DB5DFB91F","019cf705-43e7-7cb2-a567-6467a3d89f22","019cf6fe-235e-7d95-bb9b-b011d2fe188e","","723","
                <div class=""stimulus-container"">
                    <img src=""images/causal_sequence/museum_causal/museum_causal_1.png"" class=""exp-image"">
                    <div class=""question-area"">
                        <p style=""font-size: 20px; font-weight: bold; margin: 0;"">Is there a person in this image?</p>
                    </div>
                </div>","0","main_experiment_trial","1","museum_causal","causal_sequence","","","","",""
"","","","","","html-keyboard-response","103","447854","0.0-103.0","7EC6EC9604A74DB4B503ED8DB5DFB91F","019cf705-43e7-7cb2-a567-6467a3d89f22","019cf6fe-235e-7d95-bb9b-b011d2fe188e","","null","
                <div class=""stimulus-container"">
                    <img src=""images/causal_sequence/museum_causal/museum_causal_2.png"" class=""exp-image"">
                    <div class=""question-area""></div> 
                </div>","null","","","","","","","","",""
"","","","","","html-button-response","104","448546","0.0-104.0","7EC6EC9604A74DB4B503ED8DB5DFB91F","019cf705-43e7-7cb2-a567-6467a3d89f22","019cf6fe-235e-7d95-bb9b-b011d2fe188e","","691","
                <div class=""stimulus-container"">
                    <img src=""images/causal_sequence/museum_causal/museum_causal_2.png"" class=""exp-image"">
                    <div class=""question-area"">
                        <p style=""font-size: 20px; font-weight: bold; margin: 0;"">Is there a person in this image?</p>
                    </div>
                </div>","1","main_experiment_trial","2","museum_causal","causal_sequence","","","","",""
"","","","","","html-keyboard-response","105","453547","0.0-105.0","7EC6EC9604A74DB4B503ED8DB5DFB91F","019cf705-43e7-7cb2-a567-6467a3d89f22","019cf6fe-235e-7d95-bb9b-b011d2fe188e","","null","
                <div class=""stimulus-container"">
                    <img src=""images/causal_sequence/museum_causal/museum_causal_3.png"" class=""exp-image"">
                    <div class=""question-area""></div> 
                </div>","null","","","","","","","","",""
"","","","","","html-button-response","106","454757","0.0-106.0","7EC6EC9604A74DB4B503ED8DB5DFB91F","019cf705-43e7-7cb2-a567-6467a3d89f22","019cf6fe-235e-7d95-bb9b-b011d2fe188e","","1210","
                <div class=""stimulus-container"">
                    <img src=""images/causal_sequence/museum_causal/museum_causal_3.png"" class=""exp-image"">
                    <div class=""question-area"">
                        <p style=""font-size: 20px; font-weight: bold; margin: 0;"">Is there a person in this image?</p>
                    </div>
                </div>","0","main_experiment_trial","3","museum_causal","causal_sequence","","","","",""
"","","","","","html-keyboard-response","107","459763","0.0-107.0","7EC6EC9604A74DB4B503ED8DB5DFB91F","019cf705-43e7-7cb2-a567-6467a3d89f22","019cf6fe-235e-7d95-bb9b-b011d2fe188e","","null","
                <div class=""stimulus-container"">
                    <img src=""images/causal_sequence/museum_causal/museum_causal_4.png"" class=""exp-image"">
                    <div class=""question-area""></div> 
                </div>","null","","","","","","","","",""
"","","","","","html-button-response","108","460490","0.0-108.0","7EC6EC9604A74DB4B503ED8DB5DFB91F","019cf705-43e7-7cb2-a567-6467a3d89f22","019cf6fe-235e-7d95-bb9b-b011d2fe188e","","726","
                <div class=""stimulus-container"">
                    <img src=""images/causal_sequence/museum_causal/museum_causal_4.png"" class=""exp-image"">
                    <div class=""question-area"">
                        <p style=""font-size: 20px; font-weight: bold; margin: 0;"">Is there a person in this image?</p>
                    </div>
                </div>","1","main_experiment_trial","4","museum_causal","causal_sequence","","","","",""
"","","","","","html-keyboard-response","109","465495","0.0-109.0","7EC6EC9604A74DB4B503ED8DB5DFB91F","019cf705-43e7-7cb2-a567-6467a3d89f22","019cf6fe-235e-7d95-bb9b-b011d2fe188e","","null","
                <div class=""stimulus-container"">
                    <img src=""images/causal_sequence/museum_causal/museum_causal_5.png"" class=""exp-image"">
                    <div class=""question-area""></div> 
                </div>","null","","","","","","","","",""
"","","","","","html-button-response","110","466346","0.0-110.0","7EC6EC9604A74DB4B503ED8DB5DFB91F","019cf705-43e7-7cb2-a567-6467a3d89f22","019cf6fe-235e-7d95-bb9b-b011d2fe188e","","850","
                <div class=""stimulus-container"">
                    <img src=""images/causal_sequence/museum_causal/museum_causal_5.png"" class=""exp-image"">
                    <div class=""question-area"">
                        <p style=""font-size: 20px; font-weight: bold; margin: 0;"">Is there a person in this image?</p>
                    </div>
                </div>","0","main_experiment_trial","5","museum_causal","causal_sequence","","","","",""
"","","","","","html-keyboard-response","111","471354","0.0-111.0","7EC6EC9604A74DB4B503ED8DB5DFB91F","019cf705-43e7-7cb2-a567-6467a3d89f22","019cf6fe-235e-7d95-bb9b-b011d2fe188e","","null","
                <div class=""stimulus-container"">
                    <img src=""images/causal_sequence/museum_causal/museum_causal_6.png"" class=""exp-image"">
                    <div class=""question-area""></div> 
                </div>","null","","","","","","","","",""
"","","","","","html-button-response","112","471889","0.0-112.0","7EC6EC9604A74DB4B503ED8DB5DFB91F","019cf705-43e7-7cb2-a567-6467a3d89f22","019cf6fe-235e-7d95-bb9b-b011d2fe188e","","535","
                <div class=""stimulus-container"">
                    <img src=""images/causal_sequence/museum_causal/museum_causal_6.png"" class=""exp-image"">
                    <div class=""question-area"">
                        <p style=""font-size: 20px; font-weight: bold; margin: 0;"">Is there a person in this image?</p>
                    </div>
                </div>","0","main_experiment_trial","6","museum_causal","causal_sequence","","","","",""
"","","","","","html-keyboard-response","113","476902","0.0-113.0","7EC6EC9604A74DB4B503ED8DB5DFB91F","019cf705-43e7-7cb2-a567-6467a3d89f22","019cf6fe-235e-7d95-bb9b-b011d2fe188e","","null","
                <div class=""stimulus-container"">
                    <img src=""images/causal_sequence/museum_causal/museum_causal_7.png"" class=""exp-image"">
                    <div class=""question-area""></div> 
                </div>","null","","","","","","","","",""
"","","","","","html-button-response","114","477534","0.0-114.0","7EC6EC9604A74DB4B503ED8DB5DFB91F","019cf705-43e7-7cb2-a567-6467a3d89f22","019cf6fe-235e-7d95-bb9b-b011d2fe188e","","632","
                <div class=""stimulus-container"">
                    <img src=""images/causal_sequence/museum_causal/museum_causal_7.png"" class=""exp-image"">
                    <div class=""question-area"">
                        <p style=""font-size: 20px; font-weight: bold; margin: 0;"">Is there a person in this image?</p>
                    </div>
                </div>","1","main_experiment_trial","7","museum_causal","causal_sequence","","","","",""
"","","","","","html-keyboard-response","115","482536","0.0-115.0","7EC6EC9604A74DB4B503ED8DB5DFB91F","019cf705-43e7-7cb2-a567-6467a3d89f22","019cf6fe-235e-7d95-bb9b-b011d2fe188e","","null","
                <div class=""stimulus-container"">
                    <img src=""images/causal_sequence/museum_causal/museum_causal_8.png"" class=""exp-image"">
                    <div class=""question-area""></div> 
                </div>","null","","","","","","","","",""
"","","","","","html-button-response","116","483313","0.0-116.0","7EC6EC9604A74DB4B503ED8DB5DFB91F","019cf705-43e7-7cb2-a567-6467a3d89f22","019cf6fe-235e-7d95-bb9b-b011d2fe188e","","777","
                <div class=""stimulus-container"">
                    <img src=""images/causal_sequence/museum_causal/museum_causal_8.png"" class=""exp-image"">
                    <div class=""question-area"">
                        <p style=""font-size: 20px; font-weight: bold; margin: 0;"">Is there a person in this image?</p>
                    </div>
                </div>","0","main_experiment_trial","8","museum_causal","causal_sequence","","","","",""
"","","","","","html-keyboard-response","117","488327","0.0-117.0","7EC6EC9604A74DB4B503ED8DB5DFB91F","019cf705-43e7-7cb2-a567-6467a3d89f22","019cf6fe-235e-7d95-bb9b-b011d2fe188e","","null","
                <div class=""stimulus-container"">
                    <img src=""images/causal_sequence/museum_causal/museum_causal_9.png"" class=""exp-image"">
                    <div class=""question-area""></div> 
                </div>","null","","","","","","","","",""
"","","","","","html-button-response","118","488683","0.0-118.0","7EC6EC9604A74DB4B503ED8DB5DFB91F","019cf705-43e7-7cb2-a567-6467a3d89f22","019cf6fe-235e-7d95-bb9b-b011d2fe188e","","356","
                <div class=""stimulus-container"">
                    <img src=""images/causal_sequence/museum_causal/museum_causal_9.png"" class=""exp-image"">
                    <div class=""question-area"">
                        <p style=""font-size: 20px; font-weight: bold; margin: 0;"">Is there a person in this image?</p>
                    </div>
                </div>","1","main_experiment_trial","9","museum_causal","causal_sequence","","","","",""
"","","","","","html-keyboard-response","119","493693","0.0-119.0","7EC6EC9604A74DB4B503ED8DB5DFB91F","019cf705-43e7-7cb2-a567-6467a3d89f22","019cf6fe-235e-7d95-bb9b-b011d2fe188e","","null","
                <div class=""stimulus-container"">
                    <img src=""images/causal_sequence/museum_causal/museum_causal_ten.png"" class=""exp-image"">
                    <div class=""question-area""></div> 
                </div>","null","","","","","","","","",""
"","","","","","html-button-response","120","494209","0.0-120.0","7EC6EC9604A74DB4B503ED8DB5DFB91F","019cf705-43e7-7cb2-a567-6467a3d89f22","019cf6fe-235e-7d95-bb9b-b011d2fe188e","","515","
                <div class=""stimulus-container"">
                    <img src=""images/causal_sequence/museum_causal/museum_causal_ten.png"" class=""exp-image"">
                    <div class=""question-area"">
                        <p style=""font-size: 20px; font-weight: bold; margin: 0;"">Is there a person in this image?</p>
                    </div>
                </div>","0","main_experiment_trial","ten","museum_causal","causal_sequence","","","","",""
"","","","","","html-keyboard-response","121","495219","0.0-121.0","7EC6EC9604A74DB4B503ED8DB5DFB91F","019cf705-43e7-7cb2-a567-6467a3d89f22","019cf6fe-235e-7d95-bb9b-b011d2fe188e","","null","<div style=""background-color: white; width: 100vw; height: 100vh;""></div>","null","","","","","","","","",""
"","","","","","html-keyboard-response","122","500229","0.0-122.0","7EC6EC9604A74DB4B503ED8DB5DFB91F","019cf705-43e7-7cb2-a567-6467a3d89f22","019cf6fe-235e-7d95-bb9b-b011d2fe188e","","null","
                <div class=""stimulus-container"">
                    <img src=""images/causal_sequence/the_performance_causal/the_performance_causal_1.png"" class=""exp-image"">
                    <div class=""question-area""></div> 
                </div>","null","","","","","","","","",""
"","","","","","html-button-response","123","500934","0.0-123.0","7EC6EC9604A74DB4B503ED8DB5DFB91F","019cf705-43e7-7cb2-a567-6467a3d89f22","019cf6fe-235e-7d95-bb9b-b011d2fe188e","","704","
                <div class=""stimulus-container"">
                    <img src=""images/causal_sequence/the_performance_causal/the_performance_causal_1.png"" class=""exp-image"">
                    <div class=""question-area"">
                        <p style=""font-size: 20px; font-weight: bold; margin: 0;"">Is there a person in this image?</p>
                    </div>
                </div>","0","main_experiment_trial","1","the_performance_causal","causal_sequence","","","","",""
"","","","","","html-keyboard-response","124","505942","0.0-124.0","7EC6EC9604A74DB4B503ED8DB5DFB91F","019cf705-43e7-7cb2-a567-6467a3d89f22","019cf6fe-235e-7d95-bb9b-b011d2fe188e","","null","
                <div class=""stimulus-container"">
                    <img src=""images/causal_sequence/the_performance_causal/the_performance_causal_2.png"" class=""exp-image"">
                    <div class=""question-area""></div> 
                </div>","null","","","","","","","","",""
"","","","","","html-button-response","125","506435","0.0-125.0","7EC6EC9604A74DB4B503ED8DB5DFB91F","019cf705-43e7-7cb2-a567-6467a3d89f22","019cf6fe-235e-7d95-bb9b-b011d2fe188e","","493","
                <div class=""stimulus-container"">
                    <img src=""images/causal_sequence/the_performance_causal/the_performance_causal_2.png"" class=""exp-image"">
                    <div class=""question-area"">
                        <p style=""font-size: 20px; font-weight: bold; margin: 0;"">Is there a person in this image?</p>
                    </div>
                </div>","0","main_experiment_trial","2","the_performance_causal","causal_sequence","","","","",""
"","","","","","html-keyboard-response","126","511451","0.0-126.0","7EC6EC9604A74DB4B503ED8DB5DFB91F","019cf705-43e7-7cb2-a567-6467a3d89f22","019cf6fe-235e-7d95-bb9b-b011d2fe188e","","null","
                <div class=""stimulus-container"">
                    <img src=""images/causal_sequence/the_performance_causal/the_performance_causal_3.png"" class=""exp-image"">
                    <div class=""question-area""></div> 
                </div>","null","","","","","","","","",""
"","","","","","html-button-response","127","511860","0.0-127.0","7EC6EC9604A74DB4B503ED8DB5DFB91F","019cf705-43e7-7cb2-a567-6467a3d89f22","019cf6fe-235e-7d95-bb9b-b011d2fe188e","","408","
                <div class=""stimulus-container"">
                    <img src=""images/causal_sequence/the_performance_causal/the_performance_causal_3.png"" class=""exp-image"">
                    <div class=""question-area"">
                        <p style=""font-size: 20px; font-weight: bold; margin: 0;"">Is there a person in this image?</p>
                    </div>
                </div>","0","main_experiment_trial","3","the_performance_causal","causal_sequence","","","","",""
"","","","","","html-keyboard-response","128","516861","0.0-128.0","7EC6EC9604A74DB4B503ED8DB5DFB91F","019cf705-43e7-7cb2-a567-6467a3d89f22","019cf6fe-235e-7d95-bb9b-b011d2fe188e","","null","
                <div class=""stimulus-container"">
                    <img src=""images/causal_sequence/the_performance_causal/the_performance_causal_4.png"" class=""exp-image"">
                    <div class=""question-area""></div> 
                </div>","null","","","","","","","","",""
"","","","","","html-button-response","129","517495","0.0-129.0","7EC6EC9604A74DB4B503ED8DB5DFB91F","019cf705-43e7-7cb2-a567-6467a3d89f22","019cf6fe-235e-7d95-bb9b-b011d2fe188e","","634","
                <div class=""stimulus-container"">
                    <img src=""images/causal_sequence/the_performance_causal/the_performance_causal_4.png"" class=""exp-image"">
                    <div class=""question-area"">
                        <p style=""font-size: 20px; font-weight: bold; margin: 0;"">Is there a person in this image?</p>
                    </div>
                </div>","0","main_experiment_trial","4","the_performance_causal","causal_sequence","","","","",""
"","","","","","html-keyboard-response","130","522498","0.0-130.0","7EC6EC9604A74DB4B503ED8DB5DFB91F","019cf705-43e7-7cb2-a567-6467a3d89f22","019cf6fe-235e-7d95-bb9b-b011d2fe188e","","null","
                <div class=""stimulus-container"">
                    <img src=""images/causal_sequence/the_performance_causal/the_performance_causal_5.png"" class=""exp-image"">
                    <div class=""question-area""></div> 
                </div>","null","","","","","","","","",""
"","","","","","html-button-response","131","523331","0.0-131.0","7EC6EC9604A74DB4B503ED8DB5DFB91F","019cf705-43e7-7cb2-a567-6467a3d89f22","019cf6fe-235e-7d95-bb9b-b011d2fe188e","","833","
                <div class=""stimulus-container"">
                    <img src=""images/causal_sequence/the_performance_causal/the_performance_causal_5.png"" class=""exp-image"">
                    <div class=""question-area"">
                        <p style=""font-size: 20px; font-weight: bold; margin: 0;"">Is there a person in this image?</p>
                    </div>
                </div>","0","main_experiment_trial","5","the_performance_causal","causal_sequence","","","","",""
"","","","","","html-keyboard-response","132","528334","0.0-132.0","7EC6EC9604A74DB4B503ED8DB5DFB91F","019cf705-43e7-7cb2-a567-6467a3d89f22","019cf6fe-235e-7d95-bb9b-b011d2fe188e","","null","
                <div class=""stimulus-container"">
                    <img src=""images/causal_sequence/the_performance_causal/the_performance_causal_6.png"" class=""exp-image"">
                    <div class=""question-area""></div> 
                </div>","null","","","","","","","","",""
"","","","","","html-button-response","133","528966","0.0-133.0","7EC6EC9604A74DB4B503ED8DB5DFB91F","019cf705-43e7-7cb2-a567-6467a3d89f22","019cf6fe-235e-7d95-bb9b-b011d2fe188e","","632","
                <div class=""stimulus-container"">
                    <img src=""images/causal_sequence/the_performance_causal/the_performance_causal_6.png"" class=""exp-image"">
                    <div class=""question-area"">
                        <p style=""font-size: 20px; font-weight: bold; margin: 0;"">Is there a person in this image?</p>
                    </div>
                </div>","0","main_experiment_trial","6","the_performance_causal","causal_sequence","","","","",""
"","","","","","html-keyboard-response","134","533975","0.0-134.0","7EC6EC9604A74DB4B503ED8DB5DFB91F","019cf705-43e7-7cb2-a567-6467a3d89f22","019cf6fe-235e-7d95-bb9b-b011d2fe188e","","null","
                <div class=""stimulus-container"">
                    <img src=""images/causal_sequence/the_performance_causal/the_performance_causal_7.png"" class=""exp-image"">
                    <div class=""question-area""></div> 
                </div>","null","","","","","","","","",""
"","","","","","html-button-response","135","535322","0.0-135.0","7EC6EC9604A74DB4B503ED8DB5DFB91F","019cf705-43e7-7cb2-a567-6467a3d89f22","019cf6fe-235e-7d95-bb9b-b011d2fe188e","","1347","
                <div class=""stimulus-container"">
                    <img src=""images/causal_sequence/the_performance_causal/the_performance_causal_7.png"" class=""exp-image"">
                    <div class=""question-area"">
                        <p style=""font-size: 20px; font-weight: bold; margin: 0;"">Is there a person in this image?</p>
                    </div>
                </div>","0","main_experiment_trial","7","the_performance_causal","causal_sequence","","","","",""
"","","","","","html-keyboard-response","136","540338","0.0-136.0","7EC6EC9604A74DB4B503ED8DB5DFB91F","019cf705-43e7-7cb2-a567-6467a3d89f22","019cf6fe-235e-7d95-bb9b-b011d2fe188e","","null","
                <div class=""stimulus-container"">
                    <img src=""images/causal_sequence/the_performance_causal/the_performance_causal_8.png"" class=""exp-image"">
                    <div class=""question-area""></div> 
                </div>","null","","","","","","","","",""
"","","","","","html-button-response","137","541102","0.0-137.0","7EC6EC9604A74DB4B503ED8DB5DFB91F","019cf705-43e7-7cb2-a567-6467a3d89f22","019cf6fe-235e-7d95-bb9b-b011d2fe188e","","764","
                <div class=""stimulus-container"">
                    <img src=""images/causal_sequence/the_performance_causal/the_performance_causal_8.png"" class=""exp-image"">
                    <div class=""question-area"">
                        <p style=""font-size: 20px; font-weight: bold; margin: 0;"">Is there a person in this image?</p>
                    </div>
                </div>","0","main_experiment_trial","8","the_performance_causal","causal_sequence","","","","",""
"","","","","","html-keyboard-response","138","546117","0.0-138.0","7EC6EC9604A74DB4B503ED8DB5DFB91F","019cf705-43e7-7cb2-a567-6467a3d89f22","019cf6fe-235e-7d95-bb9b-b011d2fe188e","","null","
                <div class=""stimulus-container"">
                    <img src=""images/causal_sequence/the_performance_causal/the_performance_causal_9.png"" class=""exp-image"">
                    <div class=""question-area""></div> 
                </div>","null","","","","","","","","",""
"","","","","","html-button-response","139","546539","0.0-139.0","7EC6EC9604A74DB4B503ED8DB5DFB91F","019cf705-43e7-7cb2-a567-6467a3d89f22","019cf6fe-235e-7d95-bb9b-b011d2fe188e","","422","
                <div class=""stimulus-container"">
                    <img src=""images/causal_sequence/the_performance_causal/the_performance_causal_9.png"" class=""exp-image"">
                    <div class=""question-area"">
                        <p style=""font-size: 20px; font-weight: bold; margin: 0;"">Is there a person in this image?</p>
                    </div>
                </div>","0","main_experiment_trial","9","the_performance_causal","causal_sequence","","","","",""
"","","","","","html-keyboard-response","140","551542","0.0-140.0","7EC6EC9604A74DB4B503ED8DB5DFB91F","019cf705-43e7-7cb2-a567-6467a3d89f22","019cf6fe-235e-7d95-bb9b-b011d2fe188e","","null","
                <div class=""stimulus-container"">
                    <img src=""images/causal_sequence/the_performance_causal/the_performance_causal_ten.png"" class=""exp-image"">
                    <div class=""question-area""></div> 
                </div>","null","","","","","","","","",""
"","","","","","html-button-response","141","552069","0.0-141.0","7EC6EC9604A74DB4B503ED8DB5DFB91F","019cf705-43e7-7cb2-a567-6467a3d89f22","019cf6fe-235e-7d95-bb9b-b011d2fe188e","","527","
                <div class=""stimulus-container"">
                    <img src=""images/causal_sequence/the_performance_causal/the_performance_causal_ten.png"" class=""exp-image"">
                    <div class=""question-area"">
                        <p style=""font-size: 20px; font-weight: bold; margin: 0;"">Is there a person in this image?</p>
                    </div>
                </div>","0","main_experiment_trial","ten","the_performance_causal","causal_sequence","","","","",""
"","","","","","html-keyboard-response","142","553071","0.0-142.0","7EC6EC9604A74DB4B503ED8DB5DFB91F","019cf705-43e7-7cb2-a567-6467a3d89f22","019cf6fe-235e-7d95-bb9b-b011d2fe188e","","null","<div style=""background-color: white; width: 100vw; height: 100vh;""></div>","null","","","","","","","","",""
"","","","","","html-keyboard-response","143","558076","0.0-143.0","7EC6EC9604A74DB4B503ED8DB5DFB91F","019cf705-43e7-7cb2-a567-6467a3d89f22","019cf6fe-235e-7d95-bb9b-b011d2fe188e","","null","
                <div class=""stimulus-container"">
                    <img src=""images/causal_sequence/coin_causal/coin_causal_1.png"" class=""exp-image"">
                    <div class=""question-area""></div> 
                </div>","null","","","","","","","","",""
"","","","","","html-button-response","144","559000","0.0-144.0","7EC6EC9604A74DB4B503ED8DB5DFB91F","019cf705-43e7-7cb2-a567-6467a3d89f22","019cf6fe-235e-7d95-bb9b-b011d2fe188e","","924","
                <div class=""stimulus-container"">
                    <img src=""images/causal_sequence/coin_causal/coin_causal_1.png"" class=""exp-image"">
                    <div class=""question-area"">
                        <p style=""font-size: 20px; font-weight: bold; margin: 0;"">Is there a person in this image?</p>
                    </div>
                </div>","0","main_experiment_trial","1","coin_causal","causal_sequence","","","","",""
"","","","","","html-keyboard-response","145","564007","0.0-145.0","7EC6EC9604A74DB4B503ED8DB5DFB91F","019cf705-43e7-7cb2-a567-6467a3d89f22","019cf6fe-235e-7d95-bb9b-b011d2fe188e","","null","
                <div class=""stimulus-container"">
                    <img src=""images/causal_sequence/coin_causal/coin_causal_2.png"" class=""exp-image"">
                    <div class=""question-area""></div> 
                </div>","null","","","","","","","","",""
"","","","","","html-button-response","146","565001","0.0-146.0","7EC6EC9604A74DB4B503ED8DB5DFB91F","019cf705-43e7-7cb2-a567-6467a3d89f22","019cf6fe-235e-7d95-bb9b-b011d2fe188e","","994","
                <div class=""stimulus-container"">
                    <img src=""images/causal_sequence/coin_causal/coin_causal_2.png"" class=""exp-image"">
                    <div class=""question-area"">
                        <p style=""font-size: 20px; font-weight: bold; margin: 0;"">Is there a person in this image?</p>
                    </div>
                </div>","0","main_experiment_trial","2","coin_causal","causal_sequence","","","","",""
"","","","","","html-keyboard-response","147","570014","0.0-147.0","7EC6EC9604A74DB4B503ED8DB5DFB91F","019cf705-43e7-7cb2-a567-6467a3d89f22","019cf6fe-235e-7d95-bb9b-b011d2fe188e","","null","
                <div class=""stimulus-container"">
                    <img src=""images/causal_sequence/coin_causal/coin_causal_3.png"" class=""exp-image"">
                    <div class=""question-area""></div> 
                </div>","null","","","","","","","","",""
"","","","","","html-button-response","148","571165","0.0-148.0","7EC6EC9604A74DB4B503ED8DB5DFB91F","019cf705-43e7-7cb2-a567-6467a3d89f22","019cf6fe-235e-7d95-bb9b-b011d2fe188e","","1150","
                <div class=""stimulus-container"">
                    <img src=""images/causal_sequence/coin_causal/coin_causal_3.png"" class=""exp-image"">
                    <div class=""question-area"">
                        <p style=""font-size: 20px; font-weight: bold; margin: 0;"">Is there a person in this image?</p>
                    </div>
                </div>","0","main_experiment_trial","3","coin_causal","causal_sequence","","","","",""
"","","","","","html-keyboard-response","149","576168","0.0-149.0","7EC6EC9604A74DB4B503ED8DB5DFB91F","019cf705-43e7-7cb2-a567-6467a3d89f22","019cf6fe-235e-7d95-bb9b-b011d2fe188e","","null","
                <div class=""stimulus-container"">
                    <img src=""images/causal_sequence/coin_causal/coin_causal_4.png"" class=""exp-image"">
                    <div class=""question-area""></div> 
                </div>","null","","","","","","","","",""
"","","","","","html-button-response","150","577081","0.0-150.0","7EC6EC9604A74DB4B503ED8DB5DFB91F","019cf705-43e7-7cb2-a567-6467a3d89f22","019cf6fe-235e-7d95-bb9b-b011d2fe188e","","912","
                <div class=""stimulus-container"">
                    <img src=""images/causal_sequence/coin_causal/coin_causal_4.png"" class=""exp-image"">
                    <div class=""question-area"">
                        <p style=""font-size: 20px; font-weight: bold; margin: 0;"">Is there a person in this image?</p>
                    </div>
                </div>","0","main_experiment_trial","4","coin_causal","causal_sequence","","","","",""
"","","","","","html-keyboard-response","151","582090","0.0-151.0","7EC6EC9604A74DB4B503ED8DB5DFB91F","019cf705-43e7-7cb2-a567-6467a3d89f22","019cf6fe-235e-7d95-bb9b-b011d2fe188e","","null","
                <div class=""stimulus-container"">
                    <img src=""images/causal_sequence/coin_causal/coin_causal_5.png"" class=""exp-image"">
                    <div class=""question-area""></div> 
                </div>","null","","","","","","","","",""
"","","","","","html-button-response","152","582799","0.0-152.0","7EC6EC9604A74DB4B503ED8DB5DFB91F","019cf705-43e7-7cb2-a567-6467a3d89f22","019cf6fe-235e-7d95-bb9b-b011d2fe188e","","708","
                <div class=""stimulus-container"">
                    <img src=""images/causal_sequence/coin_causal/coin_causal_5.png"" class=""exp-image"">
                    <div class=""question-area"">
                        <p style=""font-size: 20px; font-weight: bold; margin: 0;"">Is there a person in this image?</p>
                    </div>
                </div>","0","main_experiment_trial","5","coin_causal","causal_sequence","","","","",""
"","","","","","html-keyboard-response","153","587805","0.0-153.0","7EC6EC9604A74DB4B503ED8DB5DFB91F","019cf705-43e7-7cb2-a567-6467a3d89f22","019cf6fe-235e-7d95-bb9b-b011d2fe188e","","null","
                <div class=""stimulus-container"">
                    <img src=""images/causal_sequence/coin_causal/coin_causal_6.png"" class=""exp-image"">
                    <div class=""question-area""></div> 
                </div>","null","","","","","","","","",""
"","","","","","html-button-response","154","588685","0.0-154.0","7EC6EC9604A74DB4B503ED8DB5DFB91F","019cf705-43e7-7cb2-a567-6467a3d89f22","019cf6fe-235e-7d95-bb9b-b011d2fe188e","","880","
                <div class=""stimulus-container"">
                    <img src=""images/causal_sequence/coin_causal/coin_causal_6.png"" class=""exp-image"">
                    <div class=""question-area"">
                        <p style=""font-size: 20px; font-weight: bold; margin: 0;"">Is there a person in this image?</p>
                    </div>
                </div>","0","main_experiment_trial","6","coin_causal","causal_sequence","","","","",""
"","","","","","html-keyboard-response","155","593687","0.0-155.0","7EC6EC9604A74DB4B503ED8DB5DFB91F","019cf705-43e7-7cb2-a567-6467a3d89f22","019cf6fe-235e-7d95-bb9b-b011d2fe188e","","null","
                <div class=""stimulus-container"">
                    <img src=""images/causal_sequence/coin_causal/coin_causal_7.png"" class=""exp-image"">
                    <div class=""question-area""></div> 
                </div>","null","","","","","","","","",""
"","","","","","html-button-response","156","594702","0.0-156.0","7EC6EC9604A74DB4B503ED8DB5DFB91F","019cf705-43e7-7cb2-a567-6467a3d89f22","019cf6fe-235e-7d95-bb9b-b011d2fe188e","","1015","
                <div class=""stimulus-container"">
                    <img src=""images/causal_sequence/coin_causal/coin_causal_7.png"" class=""exp-image"">
                    <div class=""question-area"">
                        <p style=""font-size: 20px; font-weight: bold; margin: 0;"">Is there a person in this image?</p>
                    </div>
                </div>","1","main_experiment_trial","7","coin_causal","causal_sequence","","","","",""
"","","","","","html-keyboard-response","157","599711","0.0-157.0","7EC6EC9604A74DB4B503ED8DB5DFB91F","019cf705-43e7-7cb2-a567-6467a3d89f22","019cf6fe-235e-7d95-bb9b-b011d2fe188e","","null","
                <div class=""stimulus-container"">
                    <img src=""images/causal_sequence/coin_causal/coin_causal_8.png"" class=""exp-image"">
                    <div class=""question-area""></div> 
                </div>","null","","","","","","","","",""
"","","","","","html-button-response","158","600118","0.0-158.0","7EC6EC9604A74DB4B503ED8DB5DFB91F","019cf705-43e7-7cb2-a567-6467a3d89f22","019cf6fe-235e-7d95-bb9b-b011d2fe188e","","406","
                <div class=""stimulus-container"">
                    <img src=""images/causal_sequence/coin_causal/coin_causal_8.png"" class=""exp-image"">
                    <div class=""question-area"">
                        <p style=""font-size: 20px; font-weight: bold; margin: 0;"">Is there a person in this image?</p>
                    </div>
                </div>","0","main_experiment_trial","8","coin_causal","causal_sequence","","","","",""
"","","","","","html-keyboard-response","159","605129","0.0-159.0","7EC6EC9604A74DB4B503ED8DB5DFB91F","019cf705-43e7-7cb2-a567-6467a3d89f22","019cf6fe-235e-7d95-bb9b-b011d2fe188e","","null","
                <div class=""stimulus-container"">
                    <img src=""images/causal_sequence/coin_causal/coin_causal_9.png"" class=""exp-image"">
                    <div class=""question-area""></div> 
                </div>","null","","","","","","","","",""
"","","","","","html-button-response","160","605506","0.0-160.0","7EC6EC9604A74DB4B503ED8DB5DFB91F","019cf705-43e7-7cb2-a567-6467a3d89f22","019cf6fe-235e-7d95-bb9b-b011d2fe188e","","376","
                <div class=""stimulus-container"">
                    <img src=""images/causal_sequence/coin_causal/coin_causal_9.png"" class=""exp-image"">
                    <div class=""question-area"">
                        <p style=""font-size: 20px; font-weight: bold; margin: 0;"">Is there a person in this image?</p>
                    </div>
                </div>","0","main_experiment_trial","9","coin_causal","causal_sequence","","","","",""
"","","","","","html-keyboard-response","161","610520","0.0-161.0","7EC6EC9604A74DB4B503ED8DB5DFB91F","019cf705-43e7-7cb2-a567-6467a3d89f22","019cf6fe-235e-7d95-bb9b-b011d2fe188e","","null","
                <div class=""stimulus-container"">
                    <img src=""images/causal_sequence/coin_causal/coin_causal_ten.png"" class=""exp-image"">
                    <div class=""question-area""></div> 
                </div>","null","","","","","","","","",""
"","","","","","html-button-response","162","610952","0.0-162.0","7EC6EC9604A74DB4B503ED8DB5DFB91F","019cf705-43e7-7cb2-a567-6467a3d89f22","019cf6fe-235e-7d95-bb9b-b011d2fe188e","","431","
                <div class=""stimulus-container"">
                    <img src=""images/causal_sequence/coin_causal/coin_causal_ten.png"" class=""exp-image"">
                    <div class=""question-area"">
                        <p style=""font-size: 20px; font-weight: bold; margin: 0;"">Is there a person in this image?</p>
                    </div>
                </div>","0","main_experiment_trial","ten","coin_causal","causal_sequence","","","","",""
"","","","","","html-keyboard-response","163","611955","0.0-163.0","7EC6EC9604A74DB4B503ED8DB5DFB91F","019cf705-43e7-7cb2-a567-6467a3d89f22","019cf6fe-235e-7d95-bb9b-b011d2fe188e","","null","<div style=""background-color: white; width: 100vw; height: 100vh;""></div>","null","","","","","","","","",""
"","","","","","html-keyboard-response","164","616957","0.0-164.0","7EC6EC9604A74DB4B503ED8DB5DFB91F","019cf705-43e7-7cb2-a567-6467a3d89f22","019cf6fe-235e-7d95-bb9b-b011d2fe188e","","null","
                <div class=""stimulus-container"">
                    <img src=""images/causal_sequence/dog_causal/dog_causal_1.png"" class=""exp-image"">
                    <div class=""question-area""></div> 
                </div>","null","","","","","","","","",""
"","","","","","html-button-response","165","617369","0.0-165.0","7EC6EC9604A74DB4B503ED8DB5DFB91F","019cf705-43e7-7cb2-a567-6467a3d89f22","019cf6fe-235e-7d95-bb9b-b011d2fe188e","","411","
                <div class=""stimulus-container"">
                    <img src=""images/causal_sequence/dog_causal/dog_causal_1.png"" class=""exp-image"">
                    <div class=""question-area"">
                        <p style=""font-size: 20px; font-weight: bold; margin: 0;"">Is there a person in this image?</p>
                    </div>
                </div>","0","main_experiment_trial","1","dog_causal","causal_sequence","","","","",""
"","","","","","html-keyboard-response","166","622384","0.0-166.0","7EC6EC9604A74DB4B503ED8DB5DFB91F","019cf705-43e7-7cb2-a567-6467a3d89f22","019cf6fe-235e-7d95-bb9b-b011d2fe188e","","null","
                <div class=""stimulus-container"">
                    <img src=""images/causal_sequence/dog_causal/dog_causal_2.png"" class=""exp-image"">
                    <div class=""question-area""></div> 
                </div>","null","","","","","","","","",""
"","","","","","html-button-response","167","622728","0.0-167.0","7EC6EC9604A74DB4B503ED8DB5DFB91F","019cf705-43e7-7cb2-a567-6467a3d89f22","019cf6fe-235e-7d95-bb9b-b011d2fe188e","","344","
                <div class=""stimulus-container"">
                    <img src=""images/causal_sequence/dog_causal/dog_causal_2.png"" class=""exp-image"">
                    <div class=""question-area"">
                        <p style=""font-size: 20px; font-weight: bold; margin: 0;"">Is there a person in this image?</p>
                    </div>
                </div>","0","main_experiment_trial","2","dog_causal","causal_sequence","","","","",""
"","","","","","html-keyboard-response","168","627744","0.0-168.0","7EC6EC9604A74DB4B503ED8DB5DFB91F","019cf705-43e7-7cb2-a567-6467a3d89f22","019cf6fe-235e-7d95-bb9b-b011d2fe188e","","null","
                <div class=""stimulus-container"">
                    <img src=""images/causal_sequence/dog_causal/dog_causal_3.png"" class=""exp-image"">
                    <div class=""question-area""></div> 
                </div>","null","","","","","","","","",""
"","","","","","html-button-response","169","628470","0.0-169.0","7EC6EC9604A74DB4B503ED8DB5DFB91F","019cf705-43e7-7cb2-a567-6467a3d89f22","019cf6fe-235e-7d95-bb9b-b011d2fe188e","","726","
                <div class=""stimulus-container"">
                    <img src=""images/causal_sequence/dog_causal/dog_causal_3.png"" class=""exp-image"">
                    <div class=""question-area"">
                        <p style=""font-size: 20px; font-weight: bold; margin: 0;"">Is there a person in this image?</p>
                    </div>
                </div>","0","main_experiment_trial","3","dog_causal","causal_sequence","","","","",""
"","","","","","html-keyboard-response","170","633472","0.0-170.0","7EC6EC9604A74DB4B503ED8DB5DFB91F","019cf705-43e7-7cb2-a567-6467a3d89f22","019cf6fe-235e-7d95-bb9b-b011d2fe188e","","null","
                <div class=""stimulus-container"">
                    <img src=""images/causal_sequence/dog_causal/dog_causal_4.png"" class=""exp-image"">
                    <div class=""question-area""></div> 
                </div>","null","","","","","","","","",""
"","","","","","html-button-response","171","634319","0.0-171.0","7EC6EC9604A74DB4B503ED8DB5DFB91F","019cf705-43e7-7cb2-a567-6467a3d89f22","019cf6fe-235e-7d95-bb9b-b011d2fe188e","","846","
                <div class=""stimulus-container"">
                    <img src=""images/causal_sequence/dog_causal/dog_causal_4.png"" class=""exp-image"">
                    <div class=""question-area"">
                        <p style=""font-size: 20px; font-weight: bold; margin: 0;"">Is there a person in this image?</p>
                    </div>
                </div>","0","main_experiment_trial","4","dog_causal","causal_sequence","","","","",""
"","","","","","html-keyboard-response","172","639321","0.0-172.0","7EC6EC9604A74DB4B503ED8DB5DFB91F","019cf705-43e7-7cb2-a567-6467a3d89f22","019cf6fe-235e-7d95-bb9b-b011d2fe188e","","null","
                <div class=""stimulus-container"">
                    <img src=""images/causal_sequence/dog_causal/dog_causal_5.png"" class=""exp-image"">
                    <div class=""question-area""></div> 
                </div>","null","","","","","","","","",""
"","","","","","html-button-response","173","640081","0.0-173.0","7EC6EC9604A74DB4B503ED8DB5DFB91F","019cf705-43e7-7cb2-a567-6467a3d89f22","019cf6fe-235e-7d95-bb9b-b011d2fe188e","","759","
                <div class=""stimulus-container"">
                    <img src=""images/causal_sequence/dog_causal/dog_causal_5.png"" class=""exp-image"">
                    <div class=""question-area"">
                        <p style=""font-size: 20px; font-weight: bold; margin: 0;"">Is there a person in this image?</p>
                    </div>
                </div>","0","main_experiment_trial","5","dog_causal","causal_sequence","","","","",""
"","","","","","html-keyboard-response","174","645084","0.0-174.0","7EC6EC9604A74DB4B503ED8DB5DFB91F","019cf705-43e7-7cb2-a567-6467a3d89f22","019cf6fe-235e-7d95-bb9b-b011d2fe188e","","null","
                <div class=""stimulus-container"">
                    <img src=""images/causal_sequence/dog_causal/dog_causal_6.png"" class=""exp-image"">
                    <div class=""question-area""></div> 
                </div>","null","","","","","","","","",""
"","","","","","html-button-response","175","645637","0.0-175.0","7EC6EC9604A74DB4B503ED8DB5DFB91F","019cf705-43e7-7cb2-a567-6467a3d89f22","019cf6fe-235e-7d95-bb9b-b011d2fe188e","","552","
                <div class=""stimulus-container"">
                    <img src=""images/causal_sequence/dog_causal/dog_causal_6.png"" class=""exp-image"">
                    <div class=""question-area"">
                        <p style=""font-size: 20px; font-weight: bold; margin: 0;"">Is there a person in this image?</p>
                    </div>
                </div>","0","main_experiment_trial","6","dog_causal","causal_sequence","","","","",""
"","","","","","html-keyboard-response","176","650648","0.0-176.0","7EC6EC9604A74DB4B503ED8DB5DFB91F","019cf705-43e7-7cb2-a567-6467a3d89f22","019cf6fe-235e-7d95-bb9b-b011d2fe188e","","null","
                <div class=""stimulus-container"">
                    <img src=""images/causal_sequence/dog_causal/dog_causal_7.png"" class=""exp-image"">
                    <div class=""question-area""></div> 
                </div>","null","","","","","","","","",""
"","","","","","html-button-response","177","651483","0.0-177.0","7EC6EC9604A74DB4B503ED8DB5DFB91F","019cf705-43e7-7cb2-a567-6467a3d89f22","019cf6fe-235e-7d95-bb9b-b011d2fe188e","","835","
                <div class=""stimulus-container"">
                    <img src=""images/causal_sequence/dog_causal/dog_causal_7.png"" class=""exp-image"">
                    <div class=""question-area"">
                        <p style=""font-size: 20px; font-weight: bold; margin: 0;"">Is there a person in this image?</p>
                    </div>
                </div>","0","main_experiment_trial","7","dog_causal","causal_sequence","","","","",""
"","","","","","html-keyboard-response","178","656487","0.0-178.0","7EC6EC9604A74DB4B503ED8DB5DFB91F","019cf705-43e7-7cb2-a567-6467a3d89f22","019cf6fe-235e-7d95-bb9b-b011d2fe188e","","null","
                <div class=""stimulus-container"">
                    <img src=""images/causal_sequence/dog_causal/dog_causal_8.png"" class=""exp-image"">
                    <div class=""question-area""></div> 
                </div>","null","","","","","","","","",""
"","","","","","html-button-response","179","656824","0.0-179.0","7EC6EC9604A74DB4B503ED8DB5DFB91F","019cf705-43e7-7cb2-a567-6467a3d89f22","019cf6fe-235e-7d95-bb9b-b011d2fe188e","","337","
                <div class=""stimulus-container"">
                    <img src=""images/causal_sequence/dog_causal/dog_causal_8.png"" class=""exp-image"">
                    <div class=""question-area"">
                        <p style=""font-size: 20px; font-weight: bold; margin: 0;"">Is there a person in this image?</p>
                    </div>
                </div>","0","main_experiment_trial","8","dog_causal","causal_sequence","","","","",""
"","","","","","html-keyboard-response","180","661828","0.0-180.0","7EC6EC9604A74DB4B503ED8DB5DFB91F","019cf705-43e7-7cb2-a567-6467a3d89f22","019cf6fe-235e-7d95-bb9b-b011d2fe188e","","null","
                <div class=""stimulus-container"">
                    <img src=""images/causal_sequence/dog_causal/dog_causal_9.png"" class=""exp-image"">
                    <div class=""question-area""></div> 
                </div>","null","","","","","","","","",""
"","","","","","html-button-response","181","662298","0.0-181.0","7EC6EC9604A74DB4B503ED8DB5DFB91F","019cf705-43e7-7cb2-a567-6467a3d89f22","019cf6fe-235e-7d95-bb9b-b011d2fe188e","","470","
                <div class=""stimulus-container"">
                    <img src=""images/causal_sequence/dog_causal/dog_causal_9.png"" class=""exp-image"">
                    <div class=""question-area"">
                        <p style=""font-size: 20px; font-weight: bold; margin: 0;"">Is there a person in this image?</p>
                    </div>
                </div>","0","main_experiment_trial","9","dog_causal","causal_sequence","","","","",""
"","","","","","html-keyboard-response","182","667305","0.0-182.0","7EC6EC9604A74DB4B503ED8DB5DFB91F","019cf705-43e7-7cb2-a567-6467a3d89f22","019cf6fe-235e-7d95-bb9b-b011d2fe188e","","null","
                <div class=""stimulus-container"">
                    <img src=""images/causal_sequence/dog_causal/dog_causal_ten.png"" class=""exp-image"">
                    <div class=""question-area""></div> 
                </div>","null","","","","","","","","",""
"","","","","","html-button-response","183","667842","0.0-183.0","7EC6EC9604A74DB4B503ED8DB5DFB91F","019cf705-43e7-7cb2-a567-6467a3d89f22","019cf6fe-235e-7d95-bb9b-b011d2fe188e","","536","
                <div class=""stimulus-container"">
                    <img src=""images/causal_sequence/dog_causal/dog_causal_ten.png"" class=""exp-image"">
                    <div class=""question-area"">
                        <p style=""font-size: 20px; font-weight: bold; margin: 0;"">Is there a person in this image?</p>
                    </div>
                </div>","0","main_experiment_trial","ten","dog_causal","causal_sequence","","","","",""
