"success","timeout","failed_images","failed_audio","failed_video","trial_type","trial_index","time_elapsed","internal_node_id","subject_id","study_id","session_id","view_history","rt","stimulus","response","task","image_index","folder","sequence_type","valuable_image_index","reward_type","chosen_image_index","target_X","correct_choice"
"true","false","[]","[]","[]","preload","0","8711","0.0-0.0","2550814AEB7C4AB5B74CB93587423C76","019cf817-44d4-70d8-82cf-e29e8d0de9a9","019cf80d-4266-7117-8a51-54e13c84aca4","","","","","","","","","","","","",""
"","","","","","instructions","1","12449","0.0-1.0","2550814AEB7C4AB5B74CB93587423C76","019cf817-44d4-70d8-82cf-e29e8d0de9a9","019cf80d-4266-7117-8a51-54e13c84aca4","[{""page_index"":0,""viewing_time"":3736}]","3736","","","","","","","","","","",""
"","","","","","instructions","2","22792","0.0-2.0","2550814AEB7C4AB5B74CB93587423C76","019cf817-44d4-70d8-82cf-e29e8d0de9a9","019cf80d-4266-7117-8a51-54e13c84aca4","[{""page_index"":0,""viewing_time"":10341}]","10342","","","","","","","","","","",""
"true","","","","","fullscreen","3","29804","0.0-3.0","2550814AEB7C4AB5B74CB93587423C76","019cf817-44d4-70d8-82cf-e29e8d0de9a9","019cf80d-4266-7117-8a51-54e13c84aca4","","5993","","","","","","","","","","",""
"","","","","","instructions","4","36134","0.0-4.0","2550814AEB7C4AB5B74CB93587423C76","019cf817-44d4-70d8-82cf-e29e8d0de9a9","019cf80d-4266-7117-8a51-54e13c84aca4","[{""page_index"":0,""viewing_time"":6328}]","6329","","","","","","","","","","",""
"","","","","","instructions","5","44264","0.0-5.0","2550814AEB7C4AB5B74CB93587423C76","019cf817-44d4-70d8-82cf-e29e8d0de9a9","019cf80d-4266-7117-8a51-54e13c84aca4","[{""page_index"":0,""viewing_time"":8128}]","8129","","","","","","","","","","",""
"","","","","","html-keyboard-response","6","48267","0.0-6.0","2550814AEB7C4AB5B74CB93587423C76","019cf817-44d4-70d8-82cf-e29e8d0de9a9","019cf80d-4266-7117-8a51-54e13c84aca4","","null","
                <div class=""stimulus-container"">
                    <img src=""images/instructions/movie_1.png"" class=""exp-image"">
                    <div class=""question-area""></div> 
                </div>","null","","","","","","","","",""
"","","","","","html-button-response","7","49973","0.0-7.0","2550814AEB7C4AB5B74CB93587423C76","019cf817-44d4-70d8-82cf-e29e8d0de9a9","019cf80d-4266-7117-8a51-54e13c84aca4","","1703","
                <div class=""stimulus-container"">
                    <img src=""images/instructions/movie_1.png"" class=""exp-image"">
                    <div class=""question-area"">
                        <p style=""font-size: 20px; font-weight: bold; margin: 0;"">Was there a person in this image?</p>
                    </div>
                </div>","0","example_question","1","","","","","","",""
"","","","","","html-keyboard-response","8","53981","0.0-8.0","2550814AEB7C4AB5B74CB93587423C76","019cf817-44d4-70d8-82cf-e29e8d0de9a9","019cf80d-4266-7117-8a51-54e13c84aca4","","null","
                <div class=""stimulus-container"">
                    <img src=""images/instructions/movie_2.png"" class=""exp-image"">
                    <div class=""question-area""></div> 
                </div>","null","","","","","","","","",""
"","","","","","html-button-response","9","55341","0.0-9.0","2550814AEB7C4AB5B74CB93587423C76","019cf817-44d4-70d8-82cf-e29e8d0de9a9","019cf80d-4266-7117-8a51-54e13c84aca4","","1358","
                <div class=""stimulus-container"">
                    <img src=""images/instructions/movie_2.png"" class=""exp-image"">
                    <div class=""question-area"">
                        <p style=""font-size: 20px; font-weight: bold; margin: 0;"">Was there a person in this image?</p>
                    </div>
                </div>","0","example_question","2","","","","","","",""
"","","","","","html-keyboard-response","10","59350","0.0-10.0","2550814AEB7C4AB5B74CB93587423C76","019cf817-44d4-70d8-82cf-e29e8d0de9a9","019cf80d-4266-7117-8a51-54e13c84aca4","","null","
                <div class=""stimulus-container"">
                    <img src=""images/instructions/movie_3.png"" class=""exp-image"">
                    <div class=""question-area""></div> 
                </div>","null","","","","","","","","",""
"","","","","","html-button-response","11","60524","0.0-11.0","2550814AEB7C4AB5B74CB93587423C76","019cf817-44d4-70d8-82cf-e29e8d0de9a9","019cf80d-4266-7117-8a51-54e13c84aca4","","1172","
                <div class=""stimulus-container"">
                    <img src=""images/instructions/movie_3.png"" class=""exp-image"">
                    <div class=""question-area"">
                        <p style=""font-size: 20px; font-weight: bold; margin: 0;"">Was there a person in this image?</p>
                    </div>
                </div>","0","example_question","3","","","","","","",""
"","","","","","html-keyboard-response","12","64535","0.0-12.0","2550814AEB7C4AB5B74CB93587423C76","019cf817-44d4-70d8-82cf-e29e8d0de9a9","019cf80d-4266-7117-8a51-54e13c84aca4","","null","
                <div class=""stimulus-container"">
                    <img src=""images/instructions/movie_4.png"" class=""exp-image"">
                    <div class=""question-area""></div> 
                </div>","null","","","","","","","","",""
"","","","","","html-button-response","13","65878","0.0-13.0","2550814AEB7C4AB5B74CB93587423C76","019cf817-44d4-70d8-82cf-e29e8d0de9a9","019cf80d-4266-7117-8a51-54e13c84aca4","","1336","
                <div class=""stimulus-container"">
                    <img src=""images/instructions/movie_4.png"" class=""exp-image"">
                    <div class=""question-area"">
                        <p style=""font-size: 20px; font-weight: bold; margin: 0;"">Was there a person in this image?</p>
                    </div>
                </div>","0","example_question","4","","","","","","",""
"","","","","","instructions","14","69624","0.0-14.0","2550814AEB7C4AB5B74CB93587423C76","019cf817-44d4-70d8-82cf-e29e8d0de9a9","019cf80d-4266-7117-8a51-54e13c84aca4","[{""page_index"":0,""viewing_time"":3746}]","3746","","","","","","","","","","",""
"","","","","","instructions","15","74063","0.0-15.0","2550814AEB7C4AB5B74CB93587423C76","019cf817-44d4-70d8-82cf-e29e8d0de9a9","019cf80d-4266-7117-8a51-54e13c84aca4","[{""page_index"":0,""viewing_time"":4438}]","4438","","","","","","","","","","",""
"","","","","","html-keyboard-response","16","75068","0.0-16.0","2550814AEB7C4AB5B74CB93587423C76","019cf817-44d4-70d8-82cf-e29e8d0de9a9","019cf80d-4266-7117-8a51-54e13c84aca4","","null","<div style=""background-color: white; width: 100vw; height: 100vh;""></div>","null","","","","","","","","",""
"","","","","","html-keyboard-response","17","80070","0.0-17.0","2550814AEB7C4AB5B74CB93587423C76","019cf817-44d4-70d8-82cf-e29e8d0de9a9","019cf80d-4266-7117-8a51-54e13c84aca4","","null","
                <div class=""stimulus-container"">
                    <img src=""images/semantic_sequence/housework_semantic/housework_semantic_1.png"" class=""exp-image"">
                    <div class=""question-area""></div> 
                </div>","null","","","","","","","","",""
"","","","","","html-button-response","18","81181","0.0-18.0","2550814AEB7C4AB5B74CB93587423C76","019cf817-44d4-70d8-82cf-e29e8d0de9a9","019cf80d-4266-7117-8a51-54e13c84aca4","","1109","
                <div class=""stimulus-container"">
                    <img src=""images/semantic_sequence/housework_semantic/housework_semantic_1.png"" class=""exp-image"">
                    <div class=""question-area"">
                        <p style=""font-size: 20px; font-weight: bold; margin: 0;"">Is there a person in this image?</p>
                    </div>
                </div>","1","main_experiment_trial","1","housework_semantic","semantic_sequence","","","","",""
"","","","","","html-keyboard-response","19","86196","0.0-19.0","2550814AEB7C4AB5B74CB93587423C76","019cf817-44d4-70d8-82cf-e29e8d0de9a9","019cf80d-4266-7117-8a51-54e13c84aca4","","null","
                <div class=""stimulus-container"">
                    <img src=""images/semantic_sequence/housework_semantic/housework_semantic_2.png"" class=""exp-image"">
                    <div class=""question-area""></div> 
                </div>","null","","","","","","","","",""
"","","","","","html-button-response","20","87130","0.0-20.0","2550814AEB7C4AB5B74CB93587423C76","019cf817-44d4-70d8-82cf-e29e8d0de9a9","019cf80d-4266-7117-8a51-54e13c84aca4","","931","
                <div class=""stimulus-container"">
                    <img src=""images/semantic_sequence/housework_semantic/housework_semantic_2.png"" class=""exp-image"">
                    <div class=""question-area"">
                        <p style=""font-size: 20px; font-weight: bold; margin: 0;"">Is there a person in this image?</p>
                    </div>
                </div>","0","main_experiment_trial","2","housework_semantic","semantic_sequence","","","","",""
"","","","","","html-keyboard-response","21","92139","0.0-21.0","2550814AEB7C4AB5B74CB93587423C76","019cf817-44d4-70d8-82cf-e29e8d0de9a9","019cf80d-4266-7117-8a51-54e13c84aca4","","null","
                <div class=""stimulus-container"">
                    <img src=""images/semantic_sequence/housework_semantic/housework_semantic_3.png"" class=""exp-image"">
                    <div class=""question-area""></div> 
                </div>","null","","","","","","","","",""
"","","","","","html-button-response","22","93211","0.0-22.0","2550814AEB7C4AB5B74CB93587423C76","019cf817-44d4-70d8-82cf-e29e8d0de9a9","019cf80d-4266-7117-8a51-54e13c84aca4","","1069","
                <div class=""stimulus-container"">
                    <img src=""images/semantic_sequence/housework_semantic/housework_semantic_3.png"" class=""exp-image"">
                    <div class=""question-area"">
                        <p style=""font-size: 20px; font-weight: bold; margin: 0;"">Is there a person in this image?</p>
                    </div>
                </div>","0","main_experiment_trial","3","housework_semantic","semantic_sequence","","","","",""
"","","","","","html-keyboard-response","23","98223","0.0-23.0","2550814AEB7C4AB5B74CB93587423C76","019cf817-44d4-70d8-82cf-e29e8d0de9a9","019cf80d-4266-7117-8a51-54e13c84aca4","","null","
                <div class=""stimulus-container"">
                    <img src=""images/semantic_sequence/housework_semantic/housework_semantic_4.png"" class=""exp-image"">
                    <div class=""question-area""></div> 
                </div>","null","","","","","","","","",""
"","","","","","html-button-response","24","98875","0.0-24.0","2550814AEB7C4AB5B74CB93587423C76","019cf817-44d4-70d8-82cf-e29e8d0de9a9","019cf80d-4266-7117-8a51-54e13c84aca4","","649","
                <div class=""stimulus-container"">
                    <img src=""images/semantic_sequence/housework_semantic/housework_semantic_4.png"" class=""exp-image"">
                    <div class=""question-area"">
                        <p style=""font-size: 20px; font-weight: bold; margin: 0;"">Is there a person in this image?</p>
                    </div>
                </div>","0","main_experiment_trial","4","housework_semantic","semantic_sequence","","","","",""
"","","","","","html-keyboard-response","25","103887","0.0-25.0","2550814AEB7C4AB5B74CB93587423C76","019cf817-44d4-70d8-82cf-e29e8d0de9a9","019cf80d-4266-7117-8a51-54e13c84aca4","","null","
                <div class=""stimulus-container"">
                    <img src=""images/semantic_sequence/housework_semantic/housework_semantic_5.png"" class=""exp-image"">
                    <div class=""question-area""></div> 
                </div>","null","","","","","","","","",""
"","","","","","html-button-response","26","104732","0.0-26.0","2550814AEB7C4AB5B74CB93587423C76","019cf817-44d4-70d8-82cf-e29e8d0de9a9","019cf80d-4266-7117-8a51-54e13c84aca4","","843","
                <div class=""stimulus-container"">
                    <img src=""images/semantic_sequence/housework_semantic/housework_semantic_5.png"" class=""exp-image"">
                    <div class=""question-area"">
                        <p style=""font-size: 20px; font-weight: bold; margin: 0;"">Is there a person in this image?</p>
                    </div>
                </div>","0","main_experiment_trial","5","housework_semantic","semantic_sequence","","","","",""
"","","","","","html-keyboard-response","27","109747","0.0-27.0","2550814AEB7C4AB5B74CB93587423C76","019cf817-44d4-70d8-82cf-e29e8d0de9a9","019cf80d-4266-7117-8a51-54e13c84aca4","","null","
                <div class=""stimulus-container"">
                    <img src=""images/semantic_sequence/housework_semantic/housework_semantic_6.png"" class=""exp-image"">
                    <div class=""question-area""></div> 
                </div>","null","","","","","","","","",""
"","","","","","html-button-response","28","110454","0.0-28.0","2550814AEB7C4AB5B74CB93587423C76","019cf817-44d4-70d8-82cf-e29e8d0de9a9","019cf80d-4266-7117-8a51-54e13c84aca4","","705","
                <div class=""stimulus-container"">
                    <img src=""images/semantic_sequence/housework_semantic/housework_semantic_6.png"" class=""exp-image"">
                    <div class=""question-area"">
                        <p style=""font-size: 20px; font-weight: bold; margin: 0;"">Is there a person in this image?</p>
                    </div>
                </div>","0","main_experiment_trial","6","housework_semantic","semantic_sequence","","","","",""
"","","","","","html-keyboard-response","29","115465","0.0-29.0","2550814AEB7C4AB5B74CB93587423C76","019cf817-44d4-70d8-82cf-e29e8d0de9a9","019cf80d-4266-7117-8a51-54e13c84aca4","","null","
                <div class=""stimulus-container"">
                    <img src=""images/semantic_sequence/housework_semantic/housework_semantic_7.png"" class=""exp-image"">
                    <div class=""question-area""></div> 
                </div>","null","","","","","","","","",""
"","","","","","html-button-response","30","116026","0.0-30.0","2550814AEB7C4AB5B74CB93587423C76","019cf817-44d4-70d8-82cf-e29e8d0de9a9","019cf80d-4266-7117-8a51-54e13c84aca4","","558","
                <div class=""stimulus-container"">
                    <img src=""images/semantic_sequence/housework_semantic/housework_semantic_7.png"" class=""exp-image"">
                    <div class=""question-area"">
                        <p style=""font-size: 20px; font-weight: bold; margin: 0;"">Is there a person in this image?</p>
                    </div>
                </div>","1","main_experiment_trial","7","housework_semantic","semantic_sequence","","","","",""
"","","","","","html-keyboard-response","31","121042","0.0-31.0","2550814AEB7C4AB5B74CB93587423C76","019cf817-44d4-70d8-82cf-e29e8d0de9a9","019cf80d-4266-7117-8a51-54e13c84aca4","","null","
                <div class=""stimulus-container"">
                    <img src=""images/semantic_sequence/housework_semantic/housework_semantic_8.png"" class=""exp-image"">
                    <div class=""question-area""></div> 
                </div>","null","","","","","","","","",""
"","","","","","html-button-response","32","121741","0.0-32.0","2550814AEB7C4AB5B74CB93587423C76","019cf817-44d4-70d8-82cf-e29e8d0de9a9","019cf80d-4266-7117-8a51-54e13c84aca4","","698","
                <div class=""stimulus-container"">
                    <img src=""images/semantic_sequence/housework_semantic/housework_semantic_8.png"" class=""exp-image"">
                    <div class=""question-area"">
                        <p style=""font-size: 20px; font-weight: bold; margin: 0;"">Is there a person in this image?</p>
                    </div>
                </div>","0","main_experiment_trial","8","housework_semantic","semantic_sequence","","","","",""
"","","","","","html-keyboard-response","33","126746","0.0-33.0","2550814AEB7C4AB5B74CB93587423C76","019cf817-44d4-70d8-82cf-e29e8d0de9a9","019cf80d-4266-7117-8a51-54e13c84aca4","","null","
                <div class=""stimulus-container"">
                    <img src=""images/semantic_sequence/housework_semantic/housework_semantic_9.png"" class=""exp-image"">
                    <div class=""question-area""></div> 
                </div>","null","","","","","","","","",""
"","","","","","html-button-response","34","127748","0.0-34.0","2550814AEB7C4AB5B74CB93587423C76","019cf817-44d4-70d8-82cf-e29e8d0de9a9","019cf80d-4266-7117-8a51-54e13c84aca4","","1000","
                <div class=""stimulus-container"">
                    <img src=""images/semantic_sequence/housework_semantic/housework_semantic_9.png"" class=""exp-image"">
                    <div class=""question-area"">
                        <p style=""font-size: 20px; font-weight: bold; margin: 0;"">Is there a person in this image?</p>
                    </div>
                </div>","0","main_experiment_trial","9","housework_semantic","semantic_sequence","","","","",""
"","","","","","html-keyboard-response","35","132765","0.0-35.0","2550814AEB7C4AB5B74CB93587423C76","019cf817-44d4-70d8-82cf-e29e8d0de9a9","019cf80d-4266-7117-8a51-54e13c84aca4","","null","
                <div class=""stimulus-container"">
                    <img src=""images/semantic_sequence/housework_semantic/housework_semantic_ten.png"" class=""exp-image"">
                    <div class=""question-area""></div> 
                </div>","null","","","","","","","","",""
"","","","","","html-button-response","36","133405","0.0-36.0","2550814AEB7C4AB5B74CB93587423C76","019cf817-44d4-70d8-82cf-e29e8d0de9a9","019cf80d-4266-7117-8a51-54e13c84aca4","","636","
                <div class=""stimulus-container"">
                    <img src=""images/semantic_sequence/housework_semantic/housework_semantic_ten.png"" class=""exp-image"">
                    <div class=""question-area"">
                        <p style=""font-size: 20px; font-weight: bold; margin: 0;"">Is there a person in this image?</p>
                    </div>
                </div>","0","main_experiment_trial","ten","housework_semantic","semantic_sequence","","","","",""
"","","","","","html-keyboard-response","37","134421","0.0-37.0","2550814AEB7C4AB5B74CB93587423C76","019cf817-44d4-70d8-82cf-e29e8d0de9a9","019cf80d-4266-7117-8a51-54e13c84aca4","","null","<div style=""background-color: white; width: 100vw; height: 100vh;""></div>","null","","","","","","","","",""
"","","","","","html-keyboard-response","38","139434","0.0-38.0","2550814AEB7C4AB5B74CB93587423C76","019cf817-44d4-70d8-82cf-e29e8d0de9a9","019cf80d-4266-7117-8a51-54e13c84aca4","","null","
                <div class=""stimulus-container"">
                    <img src=""images/schematic_sequence/interview_scheme/interview_scheme_1.png"" class=""exp-image"">
                    <div class=""question-area""></div> 
                </div>","null","","","","","","","","",""
"","","","","","html-button-response","39","140045","0.0-39.0","2550814AEB7C4AB5B74CB93587423C76","019cf817-44d4-70d8-82cf-e29e8d0de9a9","019cf80d-4266-7117-8a51-54e13c84aca4","","609","
                <div class=""stimulus-container"">
                    <img src=""images/schematic_sequence/interview_scheme/interview_scheme_1.png"" class=""exp-image"">
                    <div class=""question-area"">
                        <p style=""font-size: 20px; font-weight: bold; margin: 0;"">Is there a person in this image?</p>
                    </div>
                </div>","1","main_experiment_trial","1","interview_scheme","schematic_sequence","","","","",""
"","","","","","html-keyboard-response","40","145055","0.0-40.0","2550814AEB7C4AB5B74CB93587423C76","019cf817-44d4-70d8-82cf-e29e8d0de9a9","019cf80d-4266-7117-8a51-54e13c84aca4","","null","
                <div class=""stimulus-container"">
                    <img src=""images/schematic_sequence/interview_scheme/interview_scheme_2.png"" class=""exp-image"">
                    <div class=""question-area""></div> 
                </div>","null","","","","","","","","",""
"","","","","","html-button-response","41","145734","0.0-41.0","2550814AEB7C4AB5B74CB93587423C76","019cf817-44d4-70d8-82cf-e29e8d0de9a9","019cf80d-4266-7117-8a51-54e13c84aca4","","677","
                <div class=""stimulus-container"">
                    <img src=""images/schematic_sequence/interview_scheme/interview_scheme_2.png"" class=""exp-image"">
                    <div class=""question-area"">
                        <p style=""font-size: 20px; font-weight: bold; margin: 0;"">Is there a person in this image?</p>
                    </div>
                </div>","1","main_experiment_trial","2","interview_scheme","schematic_sequence","","","","",""
"","","","","","html-keyboard-response","42","150743","0.0-42.0","2550814AEB7C4AB5B74CB93587423C76","019cf817-44d4-70d8-82cf-e29e8d0de9a9","019cf80d-4266-7117-8a51-54e13c84aca4","","null","
                <div class=""stimulus-container"">
                    <img src=""images/schematic_sequence/interview_scheme/interview_scheme_3.png"" class=""exp-image"">
                    <div class=""question-area""></div> 
                </div>","null","","","","","","","","",""
"","","","","","html-button-response","43","151172","0.0-43.0","2550814AEB7C4AB5B74CB93587423C76","019cf817-44d4-70d8-82cf-e29e8d0de9a9","019cf80d-4266-7117-8a51-54e13c84aca4","","427","
                <div class=""stimulus-container"">
                    <img src=""images/schematic_sequence/interview_scheme/interview_scheme_3.png"" class=""exp-image"">
                    <div class=""question-area"">
                        <p style=""font-size: 20px; font-weight: bold; margin: 0;"">Is there a person in this image?</p>
                    </div>
                </div>","1","main_experiment_trial","3","interview_scheme","schematic_sequence","","","","",""
"","","","","","html-keyboard-response","44","156182","0.0-44.0","2550814AEB7C4AB5B74CB93587423C76","019cf817-44d4-70d8-82cf-e29e8d0de9a9","019cf80d-4266-7117-8a51-54e13c84aca4","","null","
                <div class=""stimulus-container"">
                    <img src=""images/schematic_sequence/interview_scheme/interview_scheme_4.png"" class=""exp-image"">
                    <div class=""question-area""></div> 
                </div>","null","","","","","","","","",""
"","","","","","html-button-response","45","156753","0.0-45.0","2550814AEB7C4AB5B74CB93587423C76","019cf817-44d4-70d8-82cf-e29e8d0de9a9","019cf80d-4266-7117-8a51-54e13c84aca4","","569","
                <div class=""stimulus-container"">
                    <img src=""images/schematic_sequence/interview_scheme/interview_scheme_4.png"" class=""exp-image"">
                    <div class=""question-area"">
                        <p style=""font-size: 20px; font-weight: bold; margin: 0;"">Is there a person in this image?</p>
                    </div>
                </div>","1","main_experiment_trial","4","interview_scheme","schematic_sequence","","","","",""
"","","","","","html-keyboard-response","46","161758","0.0-46.0","2550814AEB7C4AB5B74CB93587423C76","019cf817-44d4-70d8-82cf-e29e8d0de9a9","019cf80d-4266-7117-8a51-54e13c84aca4","","null","
                <div class=""stimulus-container"">
                    <img src=""images/schematic_sequence/interview_scheme/interview_scheme_5.png"" class=""exp-image"">
                    <div class=""question-area""></div> 
                </div>","null","","","","","","","","",""
"","","","","","html-button-response","47","162342","0.0-47.0","2550814AEB7C4AB5B74CB93587423C76","019cf817-44d4-70d8-82cf-e29e8d0de9a9","019cf80d-4266-7117-8a51-54e13c84aca4","","583","
                <div class=""stimulus-container"">
                    <img src=""images/schematic_sequence/interview_scheme/interview_scheme_5.png"" class=""exp-image"">
                    <div class=""question-area"">
                        <p style=""font-size: 20px; font-weight: bold; margin: 0;"">Is there a person in this image?</p>
                    </div>
                </div>","0","main_experiment_trial","5","interview_scheme","schematic_sequence","","","","",""
"","","","","","html-keyboard-response","48","167347","0.0-48.0","2550814AEB7C4AB5B74CB93587423C76","019cf817-44d4-70d8-82cf-e29e8d0de9a9","019cf80d-4266-7117-8a51-54e13c84aca4","","null","
                <div class=""stimulus-container"">
                    <img src=""images/schematic_sequence/interview_scheme/interview_scheme_6.png"" class=""exp-image"">
                    <div class=""question-area""></div> 
                </div>","null","","","","","","","","",""
"","","","","","html-button-response","49","167854","0.0-49.0","2550814AEB7C4AB5B74CB93587423C76","019cf817-44d4-70d8-82cf-e29e8d0de9a9","019cf80d-4266-7117-8a51-54e13c84aca4","","505","
                <div class=""stimulus-container"">
                    <img src=""images/schematic_sequence/interview_scheme/interview_scheme_6.png"" class=""exp-image"">
                    <div class=""question-area"">
                        <p style=""font-size: 20px; font-weight: bold; margin: 0;"">Is there a person in this image?</p>
                    </div>
                </div>","0","main_experiment_trial","6","interview_scheme","schematic_sequence","","","","",""
"","","","","","html-keyboard-response","50","172861","0.0-50.0","2550814AEB7C4AB5B74CB93587423C76","019cf817-44d4-70d8-82cf-e29e8d0de9a9","019cf80d-4266-7117-8a51-54e13c84aca4","","null","
                <div class=""stimulus-container"">
                    <img src=""images/schematic_sequence/interview_scheme/interview_scheme_7.png"" class=""exp-image"">
                    <div class=""question-area""></div> 
                </div>","null","","","","","","","","",""
"","","","","","html-button-response","51","173380","0.0-51.0","2550814AEB7C4AB5B74CB93587423C76","019cf817-44d4-70d8-82cf-e29e8d0de9a9","019cf80d-4266-7117-8a51-54e13c84aca4","","517","
                <div class=""stimulus-container"">
                    <img src=""images/schematic_sequence/interview_scheme/interview_scheme_7.png"" class=""exp-image"">
                    <div class=""question-area"">
                        <p style=""font-size: 20px; font-weight: bold; margin: 0;"">Is there a person in this image?</p>
                    </div>
                </div>","0","main_experiment_trial","7","interview_scheme","schematic_sequence","","","","",""
"","","","","","html-keyboard-response","52","178390","0.0-52.0","2550814AEB7C4AB5B74CB93587423C76","019cf817-44d4-70d8-82cf-e29e8d0de9a9","019cf80d-4266-7117-8a51-54e13c84aca4","","null","
                <div class=""stimulus-container"">
                    <img src=""images/schematic_sequence/interview_scheme/interview_scheme_8.png"" class=""exp-image"">
                    <div class=""question-area""></div> 
                </div>","null","","","","","","","","",""
"","","","","","html-button-response","53","179052","0.0-53.0","2550814AEB7C4AB5B74CB93587423C76","019cf817-44d4-70d8-82cf-e29e8d0de9a9","019cf80d-4266-7117-8a51-54e13c84aca4","","661","
                <div class=""stimulus-container"">
                    <img src=""images/schematic_sequence/interview_scheme/interview_scheme_8.png"" class=""exp-image"">
                    <div class=""question-area"">
                        <p style=""font-size: 20px; font-weight: bold; margin: 0;"">Is there a person in this image?</p>
                    </div>
                </div>","0","main_experiment_trial","8","interview_scheme","schematic_sequence","","","","",""
"","","","","","html-keyboard-response","54","184059","0.0-54.0","2550814AEB7C4AB5B74CB93587423C76","019cf817-44d4-70d8-82cf-e29e8d0de9a9","019cf80d-4266-7117-8a51-54e13c84aca4","","null","
                <div class=""stimulus-container"">
                    <img src=""images/schematic_sequence/interview_scheme/interview_scheme_9.png"" class=""exp-image"">
                    <div class=""question-area""></div> 
                </div>","null","","","","","","","","",""
"","","","","","html-button-response","55","184521","0.0-55.0","2550814AEB7C4AB5B74CB93587423C76","019cf817-44d4-70d8-82cf-e29e8d0de9a9","019cf80d-4266-7117-8a51-54e13c84aca4","","460","
                <div class=""stimulus-container"">
                    <img src=""images/schematic_sequence/interview_scheme/interview_scheme_9.png"" class=""exp-image"">
                    <div class=""question-area"">
                        <p style=""font-size: 20px; font-weight: bold; margin: 0;"">Is there a person in this image?</p>
                    </div>
                </div>","0","main_experiment_trial","9","interview_scheme","schematic_sequence","","","","",""
"","","","","","html-keyboard-response","56","189532","0.0-56.0","2550814AEB7C4AB5B74CB93587423C76","019cf817-44d4-70d8-82cf-e29e8d0de9a9","019cf80d-4266-7117-8a51-54e13c84aca4","","null","
                <div class=""stimulus-container"">
                    <img src=""images/schematic_sequence/interview_scheme/interview_scheme_ten.png"" class=""exp-image"">
                    <div class=""question-area""></div> 
                </div>","null","","","","","","","","",""
"","","","","","html-button-response","57","190049","0.0-57.0","2550814AEB7C4AB5B74CB93587423C76","019cf817-44d4-70d8-82cf-e29e8d0de9a9","019cf80d-4266-7117-8a51-54e13c84aca4","","514","
                <div class=""stimulus-container"">
                    <img src=""images/schematic_sequence/interview_scheme/interview_scheme_ten.png"" class=""exp-image"">
                    <div class=""question-area"">
                        <p style=""font-size: 20px; font-weight: bold; margin: 0;"">Is there a person in this image?</p>
                    </div>
                </div>","0","main_experiment_trial","ten","interview_scheme","schematic_sequence","","","","",""
"","","","","","html-keyboard-response","58","191066","0.0-58.0","2550814AEB7C4AB5B74CB93587423C76","019cf817-44d4-70d8-82cf-e29e8d0de9a9","019cf80d-4266-7117-8a51-54e13c84aca4","","null","<div style=""background-color: white; width: 100vw; height: 100vh;""></div>","null","","","","","","","","",""
"","","","","","html-keyboard-response","59","196081","0.0-59.0","2550814AEB7C4AB5B74CB93587423C76","019cf817-44d4-70d8-82cf-e29e8d0de9a9","019cf80d-4266-7117-8a51-54e13c84aca4","","null","
                <div class=""stimulus-container"">
                    <img src=""images/schematic_sequence/supermarket_scheme/supermarket_scheme_1.png"" class=""exp-image"">
                    <div class=""question-area""></div> 
                </div>","null","","","","","","","","",""
"","","","","","html-button-response","60","196885","0.0-60.0","2550814AEB7C4AB5B74CB93587423C76","019cf817-44d4-70d8-82cf-e29e8d0de9a9","019cf80d-4266-7117-8a51-54e13c84aca4","","803","
                <div class=""stimulus-container"">
                    <img src=""images/schematic_sequence/supermarket_scheme/supermarket_scheme_1.png"" class=""exp-image"">
                    <div class=""question-area"">
                        <p style=""font-size: 20px; font-weight: bold; margin: 0;"">Is there a person in this image?</p>
                    </div>
                </div>","1","main_experiment_trial","1","supermarket_scheme","schematic_sequence","","","","",""
"","","","","","html-keyboard-response","61","201900","0.0-61.0","2550814AEB7C4AB5B74CB93587423C76","019cf817-44d4-70d8-82cf-e29e8d0de9a9","019cf80d-4266-7117-8a51-54e13c84aca4","","null","
                <div class=""stimulus-container"">
                    <img src=""images/schematic_sequence/supermarket_scheme/supermarket_scheme_2.png"" class=""exp-image"">
                    <div class=""question-area""></div> 
                </div>","null","","","","","","","","",""
"","","","","","html-button-response","62","202518","0.0-62.0","2550814AEB7C4AB5B74CB93587423C76","019cf817-44d4-70d8-82cf-e29e8d0de9a9","019cf80d-4266-7117-8a51-54e13c84aca4","","616","
                <div class=""stimulus-container"">
                    <img src=""images/schematic_sequence/supermarket_scheme/supermarket_scheme_2.png"" class=""exp-image"">
                    <div class=""question-area"">
                        <p style=""font-size: 20px; font-weight: bold; margin: 0;"">Is there a person in this image?</p>
                    </div>
                </div>","1","main_experiment_trial","2","supermarket_scheme","schematic_sequence","","","","",""
"","","","","","html-keyboard-response","63","207529","0.0-63.0","2550814AEB7C4AB5B74CB93587423C76","019cf817-44d4-70d8-82cf-e29e8d0de9a9","019cf80d-4266-7117-8a51-54e13c84aca4","","null","
                <div class=""stimulus-container"">
                    <img src=""images/schematic_sequence/supermarket_scheme/supermarket_scheme_3.png"" class=""exp-image"">
                    <div class=""question-area""></div> 
                </div>","null","","","","","","","","",""
"","","","","","html-button-response","64","208112","0.0-64.0","2550814AEB7C4AB5B74CB93587423C76","019cf817-44d4-70d8-82cf-e29e8d0de9a9","019cf80d-4266-7117-8a51-54e13c84aca4","","581","
                <div class=""stimulus-container"">
                    <img src=""images/schematic_sequence/supermarket_scheme/supermarket_scheme_3.png"" class=""exp-image"">
                    <div class=""question-area"">
                        <p style=""font-size: 20px; font-weight: bold; margin: 0;"">Is there a person in this image?</p>
                    </div>
                </div>","1","main_experiment_trial","3","supermarket_scheme","schematic_sequence","","","","",""
"","","","","","html-keyboard-response","65","213124","0.0-65.0","2550814AEB7C4AB5B74CB93587423C76","019cf817-44d4-70d8-82cf-e29e8d0de9a9","019cf80d-4266-7117-8a51-54e13c84aca4","","null","
                <div class=""stimulus-container"">
                    <img src=""images/schematic_sequence/supermarket_scheme/supermarket_scheme_4.png"" class=""exp-image"">
                    <div class=""question-area""></div> 
                </div>","null","","","","","","","","",""
"","","","","","html-button-response","66","213760","0.0-66.0","2550814AEB7C4AB5B74CB93587423C76","019cf817-44d4-70d8-82cf-e29e8d0de9a9","019cf80d-4266-7117-8a51-54e13c84aca4","","635","
                <div class=""stimulus-container"">
                    <img src=""images/schematic_sequence/supermarket_scheme/supermarket_scheme_4.png"" class=""exp-image"">
                    <div class=""question-area"">
                        <p style=""font-size: 20px; font-weight: bold; margin: 0;"">Is there a person in this image?</p>
                    </div>
                </div>","0","main_experiment_trial","4","supermarket_scheme","schematic_sequence","","","","",""
"","","","","","html-keyboard-response","67","218775","0.0-67.0","2550814AEB7C4AB5B74CB93587423C76","019cf817-44d4-70d8-82cf-e29e8d0de9a9","019cf80d-4266-7117-8a51-54e13c84aca4","","null","
                <div class=""stimulus-container"">
                    <img src=""images/schematic_sequence/supermarket_scheme/supermarket_scheme_5.png"" class=""exp-image"">
                    <div class=""question-area""></div> 
                </div>","null","","","","","","","","",""
"","","","","","html-button-response","68","219522","0.0-68.0","2550814AEB7C4AB5B74CB93587423C76","019cf817-44d4-70d8-82cf-e29e8d0de9a9","019cf80d-4266-7117-8a51-54e13c84aca4","","744","
                <div class=""stimulus-container"">
                    <img src=""images/schematic_sequence/supermarket_scheme/supermarket_scheme_5.png"" class=""exp-image"">
                    <div class=""question-area"">
                        <p style=""font-size: 20px; font-weight: bold; margin: 0;"">Is there a person in this image?</p>
                    </div>
                </div>","1","main_experiment_trial","5","supermarket_scheme","schematic_sequence","","","","",""
"","","","","","html-keyboard-response","69","224538","0.0-69.0","2550814AEB7C4AB5B74CB93587423C76","019cf817-44d4-70d8-82cf-e29e8d0de9a9","019cf80d-4266-7117-8a51-54e13c84aca4","","null","
                <div class=""stimulus-container"">
                    <img src=""images/schematic_sequence/supermarket_scheme/supermarket_scheme_6.png"" class=""exp-image"">
                    <div class=""question-area""></div> 
                </div>","null","","","","","","","","",""
"","","","","","html-button-response","70","225206","0.0-70.0","2550814AEB7C4AB5B74CB93587423C76","019cf817-44d4-70d8-82cf-e29e8d0de9a9","019cf80d-4266-7117-8a51-54e13c84aca4","","667","
                <div class=""stimulus-container"">
                    <img src=""images/schematic_sequence/supermarket_scheme/supermarket_scheme_6.png"" class=""exp-image"">
                    <div class=""question-area"">
                        <p style=""font-size: 20px; font-weight: bold; margin: 0;"">Is there a person in this image?</p>
                    </div>
                </div>","0","main_experiment_trial","6","supermarket_scheme","schematic_sequence","","","","",""
"","","","","","html-keyboard-response","71","230218","0.0-71.0","2550814AEB7C4AB5B74CB93587423C76","019cf817-44d4-70d8-82cf-e29e8d0de9a9","019cf80d-4266-7117-8a51-54e13c84aca4","","null","
                <div class=""stimulus-container"">
                    <img src=""images/schematic_sequence/supermarket_scheme/supermarket_scheme_7.png"" class=""exp-image"">
                    <div class=""question-area""></div> 
                </div>","null","","","","","","","","",""
"","","","","","html-button-response","72","230817","0.0-72.0","2550814AEB7C4AB5B74CB93587423C76","019cf817-44d4-70d8-82cf-e29e8d0de9a9","019cf80d-4266-7117-8a51-54e13c84aca4","","597","
                <div class=""stimulus-container"">
                    <img src=""images/schematic_sequence/supermarket_scheme/supermarket_scheme_7.png"" class=""exp-image"">
                    <div class=""question-area"">
                        <p style=""font-size: 20px; font-weight: bold; margin: 0;"">Is there a person in this image?</p>
                    </div>
                </div>","0","main_experiment_trial","7","supermarket_scheme","schematic_sequence","","","","",""
"","","","","","html-keyboard-response","73","235824","0.0-73.0","2550814AEB7C4AB5B74CB93587423C76","019cf817-44d4-70d8-82cf-e29e8d0de9a9","019cf80d-4266-7117-8a51-54e13c84aca4","","null","
                <div class=""stimulus-container"">
                    <img src=""images/schematic_sequence/supermarket_scheme/supermarket_scheme_8.png"" class=""exp-image"">
                    <div class=""question-area""></div> 
                </div>","null","","","","","","","","",""
"","","","","","html-button-response","74","236261","0.0-74.0","2550814AEB7C4AB5B74CB93587423C76","019cf817-44d4-70d8-82cf-e29e8d0de9a9","019cf80d-4266-7117-8a51-54e13c84aca4","","434","
                <div class=""stimulus-container"">
                    <img src=""images/schematic_sequence/supermarket_scheme/supermarket_scheme_8.png"" class=""exp-image"">
                    <div class=""question-area"">
                        <p style=""font-size: 20px; font-weight: bold; margin: 0;"">Is there a person in this image?</p>
                    </div>
                </div>","0","main_experiment_trial","8","supermarket_scheme","schematic_sequence","","","","",""
"","","","","","html-keyboard-response","75","241268","0.0-75.0","2550814AEB7C4AB5B74CB93587423C76","019cf817-44d4-70d8-82cf-e29e8d0de9a9","019cf80d-4266-7117-8a51-54e13c84aca4","","null","
                <div class=""stimulus-container"">
                    <img src=""images/schematic_sequence/supermarket_scheme/supermarket_scheme_9.png"" class=""exp-image"">
                    <div class=""question-area""></div> 
                </div>","null","","","","","","","","",""
"","","","","","html-button-response","76","241978","0.0-76.0","2550814AEB7C4AB5B74CB93587423C76","019cf817-44d4-70d8-82cf-e29e8d0de9a9","019cf80d-4266-7117-8a51-54e13c84aca4","","707","
                <div class=""stimulus-container"">
                    <img src=""images/schematic_sequence/supermarket_scheme/supermarket_scheme_9.png"" class=""exp-image"">
                    <div class=""question-area"">
                        <p style=""font-size: 20px; font-weight: bold; margin: 0;"">Is there a person in this image?</p>
                    </div>
                </div>","0","main_experiment_trial","9","supermarket_scheme","schematic_sequence","","","","",""
"","","","","","html-keyboard-response","77","246986","0.0-77.0","2550814AEB7C4AB5B74CB93587423C76","019cf817-44d4-70d8-82cf-e29e8d0de9a9","019cf80d-4266-7117-8a51-54e13c84aca4","","null","
                <div class=""stimulus-container"">
                    <img src=""images/schematic_sequence/supermarket_scheme/supermarket_scheme_ten.png"" class=""exp-image"">
                    <div class=""question-area""></div> 
                </div>","null","","","","","","","","",""
"","","","","","html-button-response","78","247581","0.0-78.0","2550814AEB7C4AB5B74CB93587423C76","019cf817-44d4-70d8-82cf-e29e8d0de9a9","019cf80d-4266-7117-8a51-54e13c84aca4","","592","
                <div class=""stimulus-container"">
                    <img src=""images/schematic_sequence/supermarket_scheme/supermarket_scheme_ten.png"" class=""exp-image"">
                    <div class=""question-area"">
                        <p style=""font-size: 20px; font-weight: bold; margin: 0;"">Is there a person in this image?</p>
                    </div>
                </div>","1","main_experiment_trial","ten","supermarket_scheme","schematic_sequence","","","","",""
"","","","","","html-keyboard-response","79","248596","0.0-79.0","2550814AEB7C4AB5B74CB93587423C76","019cf817-44d4-70d8-82cf-e29e8d0de9a9","019cf80d-4266-7117-8a51-54e13c84aca4","","null","<div style=""background-color: white; width: 100vw; height: 100vh;""></div>","null","","","","","","","","",""
"","","","","","html-keyboard-response","80","253604","0.0-80.0","2550814AEB7C4AB5B74CB93587423C76","019cf817-44d4-70d8-82cf-e29e8d0de9a9","019cf80d-4266-7117-8a51-54e13c84aca4","","null","
                <div class=""stimulus-container"">
                    <img src=""images/semantic_sequence/visiting_cities_semantic/visiting_cities_semantic_1.png"" class=""exp-image"">
                    <div class=""question-area""></div> 
                </div>","null","","","","","","","","",""
"","","","","","html-button-response","81","254293","0.0-81.0","2550814AEB7C4AB5B74CB93587423C76","019cf817-44d4-70d8-82cf-e29e8d0de9a9","019cf80d-4266-7117-8a51-54e13c84aca4","","687","
                <div class=""stimulus-container"">
                    <img src=""images/semantic_sequence/visiting_cities_semantic/visiting_cities_semantic_1.png"" class=""exp-image"">
                    <div class=""question-area"">
                        <p style=""font-size: 20px; font-weight: bold; margin: 0;"">Is there a person in this image?</p>
                    </div>
                </div>","0","main_experiment_trial","1","visiting_cities_semantic","semantic_sequence","","","","",""
"","","","","","html-keyboard-response","82","259307","0.0-82.0","2550814AEB7C4AB5B74CB93587423C76","019cf817-44d4-70d8-82cf-e29e8d0de9a9","019cf80d-4266-7117-8a51-54e13c84aca4","","null","
                <div class=""stimulus-container"">
                    <img src=""images/semantic_sequence/visiting_cities_semantic/visiting_cities_semantic_2.png"" class=""exp-image"">
                    <div class=""question-area""></div> 
                </div>","null","","","","","","","","",""
"","","","","","html-button-response","83","259820","0.0-83.0","2550814AEB7C4AB5B74CB93587423C76","019cf817-44d4-70d8-82cf-e29e8d0de9a9","019cf80d-4266-7117-8a51-54e13c84aca4","","512","
                <div class=""stimulus-container"">
                    <img src=""images/semantic_sequence/visiting_cities_semantic/visiting_cities_semantic_2.png"" class=""exp-image"">
                    <div class=""question-area"">
                        <p style=""font-size: 20px; font-weight: bold; margin: 0;"">Is there a person in this image?</p>
                    </div>
                </div>","1","main_experiment_trial","2","visiting_cities_semantic","semantic_sequence","","","","",""
"","","","","","html-keyboard-response","84","264833","0.0-84.0","2550814AEB7C4AB5B74CB93587423C76","019cf817-44d4-70d8-82cf-e29e8d0de9a9","019cf80d-4266-7117-8a51-54e13c84aca4","","null","
                <div class=""stimulus-container"">
                    <img src=""images/semantic_sequence/visiting_cities_semantic/visiting_cities_semantic_3.png"" class=""exp-image"">
                    <div class=""question-area""></div> 
                </div>","null","","","","","","","","",""
"","","","","","html-button-response","85","265489","0.0-85.0","2550814AEB7C4AB5B74CB93587423C76","019cf817-44d4-70d8-82cf-e29e8d0de9a9","019cf80d-4266-7117-8a51-54e13c84aca4","","655","
                <div class=""stimulus-container"">
                    <img src=""images/semantic_sequence/visiting_cities_semantic/visiting_cities_semantic_3.png"" class=""exp-image"">
                    <div class=""question-area"">
                        <p style=""font-size: 20px; font-weight: bold; margin: 0;"">Is there a person in this image?</p>
                    </div>
                </div>","1","main_experiment_trial","3","visiting_cities_semantic","semantic_sequence","","","","",""
"","","","","","html-keyboard-response","86","270500","0.0-86.0","2550814AEB7C4AB5B74CB93587423C76","019cf817-44d4-70d8-82cf-e29e8d0de9a9","019cf80d-4266-7117-8a51-54e13c84aca4","","null","
                <div class=""stimulus-container"">
                    <img src=""images/semantic_sequence/visiting_cities_semantic/visiting_cities_semantic_4.png"" class=""exp-image"">
                    <div class=""question-area""></div> 
                </div>","null","","","","","","","","",""
"","","","","","html-button-response","87","271109","0.0-87.0","2550814AEB7C4AB5B74CB93587423C76","019cf817-44d4-70d8-82cf-e29e8d0de9a9","019cf80d-4266-7117-8a51-54e13c84aca4","","607","
                <div class=""stimulus-container"">
                    <img src=""images/semantic_sequence/visiting_cities_semantic/visiting_cities_semantic_4.png"" class=""exp-image"">
                    <div class=""question-area"">
                        <p style=""font-size: 20px; font-weight: bold; margin: 0;"">Is there a person in this image?</p>
                    </div>
                </div>","1","main_experiment_trial","4","visiting_cities_semantic","semantic_sequence","","","","",""
"","","","","","html-keyboard-response","88","276122","0.0-88.0","2550814AEB7C4AB5B74CB93587423C76","019cf817-44d4-70d8-82cf-e29e8d0de9a9","019cf80d-4266-7117-8a51-54e13c84aca4","","null","
                <div class=""stimulus-container"">
                    <img src=""images/semantic_sequence/visiting_cities_semantic/visiting_cities_semantic_5.png"" class=""exp-image"">
                    <div class=""question-area""></div> 
                </div>","null","","","","","","","","",""
"","","","","","html-button-response","89","276547","0.0-89.0","2550814AEB7C4AB5B74CB93587423C76","019cf817-44d4-70d8-82cf-e29e8d0de9a9","019cf80d-4266-7117-8a51-54e13c84aca4","","422","
                <div class=""stimulus-container"">
                    <img src=""images/semantic_sequence/visiting_cities_semantic/visiting_cities_semantic_5.png"" class=""exp-image"">
                    <div class=""question-area"">
                        <p style=""font-size: 20px; font-weight: bold; margin: 0;"">Is there a person in this image?</p>
                    </div>
                </div>","1","main_experiment_trial","5","visiting_cities_semantic","semantic_sequence","","","","",""
"","","","","","html-keyboard-response","90","281556","0.0-90.0","2550814AEB7C4AB5B74CB93587423C76","019cf817-44d4-70d8-82cf-e29e8d0de9a9","019cf80d-4266-7117-8a51-54e13c84aca4","","null","
                <div class=""stimulus-container"">
                    <img src=""images/semantic_sequence/visiting_cities_semantic/visiting_cities_semantic_6.png"" class=""exp-image"">
                    <div class=""question-area""></div> 
                </div>","null","","","","","","","","",""
"","","","","","html-button-response","91","281959","0.0-91.0","2550814AEB7C4AB5B74CB93587423C76","019cf817-44d4-70d8-82cf-e29e8d0de9a9","019cf80d-4266-7117-8a51-54e13c84aca4","","402","
                <div class=""stimulus-container"">
                    <img src=""images/semantic_sequence/visiting_cities_semantic/visiting_cities_semantic_6.png"" class=""exp-image"">
                    <div class=""question-area"">
                        <p style=""font-size: 20px; font-weight: bold; margin: 0;"">Is there a person in this image?</p>
                    </div>
                </div>","1","main_experiment_trial","6","visiting_cities_semantic","semantic_sequence","","","","",""
"","","","","","html-keyboard-response","92","286967","0.0-92.0","2550814AEB7C4AB5B74CB93587423C76","019cf817-44d4-70d8-82cf-e29e8d0de9a9","019cf80d-4266-7117-8a51-54e13c84aca4","","null","
                <div class=""stimulus-container"">
                    <img src=""images/semantic_sequence/visiting_cities_semantic/visiting_cities_semantic_7.png"" class=""exp-image"">
                    <div class=""question-area""></div> 
                </div>","null","","","","","","","","",""
"","","","","","html-button-response","93","287410","0.0-93.0","2550814AEB7C4AB5B74CB93587423C76","019cf817-44d4-70d8-82cf-e29e8d0de9a9","019cf80d-4266-7117-8a51-54e13c84aca4","","442","
                <div class=""stimulus-container"">
                    <img src=""images/semantic_sequence/visiting_cities_semantic/visiting_cities_semantic_7.png"" class=""exp-image"">
                    <div class=""question-area"">
                        <p style=""font-size: 20px; font-weight: bold; margin: 0;"">Is there a person in this image?</p>
                    </div>
                </div>","0","main_experiment_trial","7","visiting_cities_semantic","semantic_sequence","","","","",""
"","","","","","html-keyboard-response","94","292426","0.0-94.0","2550814AEB7C4AB5B74CB93587423C76","019cf817-44d4-70d8-82cf-e29e8d0de9a9","019cf80d-4266-7117-8a51-54e13c84aca4","","null","
                <div class=""stimulus-container"">
                    <img src=""images/semantic_sequence/visiting_cities_semantic/visiting_cities_semantic_8.png"" class=""exp-image"">
                    <div class=""question-area""></div> 
                </div>","null","","","","","","","","",""
"","","","","","html-button-response","95","292917","0.0-95.0","2550814AEB7C4AB5B74CB93587423C76","019cf817-44d4-70d8-82cf-e29e8d0de9a9","019cf80d-4266-7117-8a51-54e13c84aca4","","489","
                <div class=""stimulus-container"">
                    <img src=""images/semantic_sequence/visiting_cities_semantic/visiting_cities_semantic_8.png"" class=""exp-image"">
                    <div class=""question-area"">
                        <p style=""font-size: 20px; font-weight: bold; margin: 0;"">Is there a person in this image?</p>
                    </div>
                </div>","0","main_experiment_trial","8","visiting_cities_semantic","semantic_sequence","","","","",""
"","","","","","html-keyboard-response","96","297923","0.0-96.0","2550814AEB7C4AB5B74CB93587423C76","019cf817-44d4-70d8-82cf-e29e8d0de9a9","019cf80d-4266-7117-8a51-54e13c84aca4","","null","
                <div class=""stimulus-container"">
                    <img src=""images/semantic_sequence/visiting_cities_semantic/visiting_cities_semantic_9.png"" class=""exp-image"">
                    <div class=""question-area""></div> 
                </div>","null","","","","","","","","",""
"","","","","","html-button-response","97","298395","0.0-97.0","2550814AEB7C4AB5B74CB93587423C76","019cf817-44d4-70d8-82cf-e29e8d0de9a9","019cf80d-4266-7117-8a51-54e13c84aca4","","470","
                <div class=""stimulus-container"">
                    <img src=""images/semantic_sequence/visiting_cities_semantic/visiting_cities_semantic_9.png"" class=""exp-image"">
                    <div class=""question-area"">
                        <p style=""font-size: 20px; font-weight: bold; margin: 0;"">Is there a person in this image?</p>
                    </div>
                </div>","0","main_experiment_trial","9","visiting_cities_semantic","semantic_sequence","","","","",""
"","","","","","html-keyboard-response","98","303410","0.0-98.0","2550814AEB7C4AB5B74CB93587423C76","019cf817-44d4-70d8-82cf-e29e8d0de9a9","019cf80d-4266-7117-8a51-54e13c84aca4","","null","
                <div class=""stimulus-container"">
                    <img src=""images/semantic_sequence/visiting_cities_semantic/visiting_cities_semantic_ten.png"" class=""exp-image"">
                    <div class=""question-area""></div> 
                </div>","null","","","","","","","","",""
"","","","","","html-button-response","99","304729","0.0-99.0","2550814AEB7C4AB5B74CB93587423C76","019cf817-44d4-70d8-82cf-e29e8d0de9a9","019cf80d-4266-7117-8a51-54e13c84aca4","","1316","
                <div class=""stimulus-container"">
                    <img src=""images/semantic_sequence/visiting_cities_semantic/visiting_cities_semantic_ten.png"" class=""exp-image"">
                    <div class=""question-area"">
                        <p style=""font-size: 20px; font-weight: bold; margin: 0;"">Is there a person in this image?</p>
                    </div>
                </div>","0","main_experiment_trial","ten","visiting_cities_semantic","semantic_sequence","","","","",""
"","","","","","html-keyboard-response","100","305735","0.0-100.0","2550814AEB7C4AB5B74CB93587423C76","019cf817-44d4-70d8-82cf-e29e8d0de9a9","019cf80d-4266-7117-8a51-54e13c84aca4","","null","<div style=""background-color: white; width: 100vw; height: 100vh;""></div>","null","","","","","","","","",""
"","","","","","html-keyboard-response","101","310736","0.0-101.0","2550814AEB7C4AB5B74CB93587423C76","019cf817-44d4-70d8-82cf-e29e8d0de9a9","019cf80d-4266-7117-8a51-54e13c84aca4","","null","
                <div class=""stimulus-container"">
                    <img src=""images/schematic_sequence/flight_scheme/flight_scheme_1.png"" class=""exp-image"">
                    <div class=""question-area""></div> 
                </div>","null","","","","","","","","",""
"","","","","","html-button-response","102","311447","0.0-102.0","2550814AEB7C4AB5B74CB93587423C76","019cf817-44d4-70d8-82cf-e29e8d0de9a9","019cf80d-4266-7117-8a51-54e13c84aca4","","710","
                <div class=""stimulus-container"">
                    <img src=""images/schematic_sequence/flight_scheme/flight_scheme_1.png"" class=""exp-image"">
                    <div class=""question-area"">
                        <p style=""font-size: 20px; font-weight: bold; margin: 0;"">Is there a person in this image?</p>
                    </div>
                </div>","1","main_experiment_trial","1","flight_scheme","schematic_sequence","","","","",""
"","","","","","html-keyboard-response","103","316463","0.0-103.0","2550814AEB7C4AB5B74CB93587423C76","019cf817-44d4-70d8-82cf-e29e8d0de9a9","019cf80d-4266-7117-8a51-54e13c84aca4","","null","
                <div class=""stimulus-container"">
                    <img src=""images/schematic_sequence/flight_scheme/flight_scheme_2.png"" class=""exp-image"">
                    <div class=""question-area""></div> 
                </div>","null","","","","","","","","",""
"","","","","","html-button-response","104","316857","0.0-104.0","2550814AEB7C4AB5B74CB93587423C76","019cf817-44d4-70d8-82cf-e29e8d0de9a9","019cf80d-4266-7117-8a51-54e13c84aca4","","392","
                <div class=""stimulus-container"">
                    <img src=""images/schematic_sequence/flight_scheme/flight_scheme_2.png"" class=""exp-image"">
                    <div class=""question-area"">
                        <p style=""font-size: 20px; font-weight: bold; margin: 0;"">Is there a person in this image?</p>
                    </div>
                </div>","1","main_experiment_trial","2","flight_scheme","schematic_sequence","","","","",""
"","","","","","html-keyboard-response","105","321860","0.0-105.0","2550814AEB7C4AB5B74CB93587423C76","019cf817-44d4-70d8-82cf-e29e8d0de9a9","019cf80d-4266-7117-8a51-54e13c84aca4","","null","
                <div class=""stimulus-container"">
                    <img src=""images/schematic_sequence/flight_scheme/flight_scheme_3.png"" class=""exp-image"">
                    <div class=""question-area""></div> 
                </div>","null","","","","","","","","",""
"","","","","","html-button-response","106","322534","0.0-106.0","2550814AEB7C4AB5B74CB93587423C76","019cf817-44d4-70d8-82cf-e29e8d0de9a9","019cf80d-4266-7117-8a51-54e13c84aca4","","672","
                <div class=""stimulus-container"">
                    <img src=""images/schematic_sequence/flight_scheme/flight_scheme_3.png"" class=""exp-image"">
                    <div class=""question-area"">
                        <p style=""font-size: 20px; font-weight: bold; margin: 0;"">Is there a person in this image?</p>
                    </div>
                </div>","0","main_experiment_trial","3","flight_scheme","schematic_sequence","","","","",""
"","","","","","html-keyboard-response","107","327543","0.0-107.0","2550814AEB7C4AB5B74CB93587423C76","019cf817-44d4-70d8-82cf-e29e8d0de9a9","019cf80d-4266-7117-8a51-54e13c84aca4","","null","
                <div class=""stimulus-container"">
                    <img src=""images/schematic_sequence/flight_scheme/flight_scheme_4.png"" class=""exp-image"">
                    <div class=""question-area""></div> 
                </div>","null","","","","","","","","",""
"","","","","","html-button-response","108","327935","0.0-108.0","2550814AEB7C4AB5B74CB93587423C76","019cf817-44d4-70d8-82cf-e29e8d0de9a9","019cf80d-4266-7117-8a51-54e13c84aca4","","390","
                <div class=""stimulus-container"">
                    <img src=""images/schematic_sequence/flight_scheme/flight_scheme_4.png"" class=""exp-image"">
                    <div class=""question-area"">
                        <p style=""font-size: 20px; font-weight: bold; margin: 0;"">Is there a person in this image?</p>
                    </div>
                </div>","0","main_experiment_trial","4","flight_scheme","schematic_sequence","","","","",""
"","","","","","html-keyboard-response","109","332948","0.0-109.0","2550814AEB7C4AB5B74CB93587423C76","019cf817-44d4-70d8-82cf-e29e8d0de9a9","019cf80d-4266-7117-8a51-54e13c84aca4","","null","
                <div class=""stimulus-container"">
                    <img src=""images/schematic_sequence/flight_scheme/flight_scheme_5.png"" class=""exp-image"">
                    <div class=""question-area""></div> 
                </div>","null","","","","","","","","",""
"","","","","","html-button-response","110","333366","0.0-110.0","2550814AEB7C4AB5B74CB93587423C76","019cf817-44d4-70d8-82cf-e29e8d0de9a9","019cf80d-4266-7117-8a51-54e13c84aca4","","416","
                <div class=""stimulus-container"">
                    <img src=""images/schematic_sequence/flight_scheme/flight_scheme_5.png"" class=""exp-image"">
                    <div class=""question-area"">
                        <p style=""font-size: 20px; font-weight: bold; margin: 0;"">Is there a person in this image?</p>
                    </div>
                </div>","0","main_experiment_trial","5","flight_scheme","schematic_sequence","","","","",""
"","","","","","html-keyboard-response","111","338369","0.0-111.0","2550814AEB7C4AB5B74CB93587423C76","019cf817-44d4-70d8-82cf-e29e8d0de9a9","019cf80d-4266-7117-8a51-54e13c84aca4","","null","
                <div class=""stimulus-container"">
                    <img src=""images/schematic_sequence/flight_scheme/flight_scheme_6.png"" class=""exp-image"">
                    <div class=""question-area""></div> 
                </div>","null","","","","","","","","",""
"","","","","","html-button-response","112","338758","0.0-112.0","2550814AEB7C4AB5B74CB93587423C76","019cf817-44d4-70d8-82cf-e29e8d0de9a9","019cf80d-4266-7117-8a51-54e13c84aca4","","387","
                <div class=""stimulus-container"">
                    <img src=""images/schematic_sequence/flight_scheme/flight_scheme_6.png"" class=""exp-image"">
                    <div class=""question-area"">
                        <p style=""font-size: 20px; font-weight: bold; margin: 0;"">Is there a person in this image?</p>
                    </div>
                </div>","1","main_experiment_trial","6","flight_scheme","schematic_sequence","","","","",""
"","","","","","html-keyboard-response","113","343766","0.0-113.0","2550814AEB7C4AB5B74CB93587423C76","019cf817-44d4-70d8-82cf-e29e8d0de9a9","019cf80d-4266-7117-8a51-54e13c84aca4","","null","
                <div class=""stimulus-container"">
                    <img src=""images/schematic_sequence/flight_scheme/flight_scheme_7.png"" class=""exp-image"">
                    <div class=""question-area""></div> 
                </div>","null","","","","","","","","",""
"","","","","","html-button-response","114","344218","0.0-114.0","2550814AEB7C4AB5B74CB93587423C76","019cf817-44d4-70d8-82cf-e29e8d0de9a9","019cf80d-4266-7117-8a51-54e13c84aca4","","451","
                <div class=""stimulus-container"">
                    <img src=""images/schematic_sequence/flight_scheme/flight_scheme_7.png"" class=""exp-image"">
                    <div class=""question-area"">
                        <p style=""font-size: 20px; font-weight: bold; margin: 0;"">Is there a person in this image?</p>
                    </div>
                </div>","1","main_experiment_trial","7","flight_scheme","schematic_sequence","","","","",""
"","","","","","html-keyboard-response","115","349221","0.0-115.0","2550814AEB7C4AB5B74CB93587423C76","019cf817-44d4-70d8-82cf-e29e8d0de9a9","019cf80d-4266-7117-8a51-54e13c84aca4","","null","
                <div class=""stimulus-container"">
                    <img src=""images/schematic_sequence/flight_scheme/flight_scheme_8.png"" class=""exp-image"">
                    <div class=""question-area""></div> 
                </div>","null","","","","","","","","",""
"","","","","","html-button-response","116","349610","0.0-116.0","2550814AEB7C4AB5B74CB93587423C76","019cf817-44d4-70d8-82cf-e29e8d0de9a9","019cf80d-4266-7117-8a51-54e13c84aca4","","388","
                <div class=""stimulus-container"">
                    <img src=""images/schematic_sequence/flight_scheme/flight_scheme_8.png"" class=""exp-image"">
                    <div class=""question-area"">
                        <p style=""font-size: 20px; font-weight: bold; margin: 0;"">Is there a person in this image?</p>
                    </div>
                </div>","1","main_experiment_trial","8","flight_scheme","schematic_sequence","","","","",""
"","","","","","html-keyboard-response","117","354627","0.0-117.0","2550814AEB7C4AB5B74CB93587423C76","019cf817-44d4-70d8-82cf-e29e8d0de9a9","019cf80d-4266-7117-8a51-54e13c84aca4","","null","
                <div class=""stimulus-container"">
                    <img src=""images/schematic_sequence/flight_scheme/flight_scheme_9.png"" class=""exp-image"">
                    <div class=""question-area""></div> 
                </div>","null","","","","","","","","",""
"","","","","","html-button-response","118","354986","0.0-118.0","2550814AEB7C4AB5B74CB93587423C76","019cf817-44d4-70d8-82cf-e29e8d0de9a9","019cf80d-4266-7117-8a51-54e13c84aca4","","357","
                <div class=""stimulus-container"">
                    <img src=""images/schematic_sequence/flight_scheme/flight_scheme_9.png"" class=""exp-image"">
                    <div class=""question-area"">
                        <p style=""font-size: 20px; font-weight: bold; margin: 0;"">Is there a person in this image?</p>
                    </div>
                </div>","0","main_experiment_trial","9","flight_scheme","schematic_sequence","","","","",""
"","","","","","html-keyboard-response","119","359993","0.0-119.0","2550814AEB7C4AB5B74CB93587423C76","019cf817-44d4-70d8-82cf-e29e8d0de9a9","019cf80d-4266-7117-8a51-54e13c84aca4","","null","
                <div class=""stimulus-container"">
                    <img src=""images/schematic_sequence/flight_scheme/flight_scheme_ten.png"" class=""exp-image"">
                    <div class=""question-area""></div> 
                </div>","null","","","","","","","","",""
"","","","","","html-button-response","120","360335","0.0-120.0","2550814AEB7C4AB5B74CB93587423C76","019cf817-44d4-70d8-82cf-e29e8d0de9a9","019cf80d-4266-7117-8a51-54e13c84aca4","","340","
                <div class=""stimulus-container"">
                    <img src=""images/schematic_sequence/flight_scheme/flight_scheme_ten.png"" class=""exp-image"">
                    <div class=""question-area"">
                        <p style=""font-size: 20px; font-weight: bold; margin: 0;"">Is there a person in this image?</p>
                    </div>
                </div>","0","main_experiment_trial","ten","flight_scheme","schematic_sequence","","","","",""
"","","","","","html-keyboard-response","121","361337","0.0-121.0","2550814AEB7C4AB5B74CB93587423C76","019cf817-44d4-70d8-82cf-e29e8d0de9a9","019cf80d-4266-7117-8a51-54e13c84aca4","","null","<div style=""background-color: white; width: 100vw; height: 100vh;""></div>","null","","","","","","","","",""
"","","","","","html-keyboard-response","122","366351","0.0-122.0","2550814AEB7C4AB5B74CB93587423C76","019cf817-44d4-70d8-82cf-e29e8d0de9a9","019cf80d-4266-7117-8a51-54e13c84aca4","","null","
                <div class=""stimulus-container"">
                    <img src=""images/semantic_sequence/market_semantic/market_semantic_1.png"" class=""exp-image"">
                    <div class=""question-area""></div> 
                </div>","null","","","","","","","","",""
"","","","","","html-button-response","123","366830","0.0-123.0","2550814AEB7C4AB5B74CB93587423C76","019cf817-44d4-70d8-82cf-e29e8d0de9a9","019cf80d-4266-7117-8a51-54e13c84aca4","","477","
                <div class=""stimulus-container"">
                    <img src=""images/semantic_sequence/market_semantic/market_semantic_1.png"" class=""exp-image"">
                    <div class=""question-area"">
                        <p style=""font-size: 20px; font-weight: bold; margin: 0;"">Is there a person in this image?</p>
                    </div>
                </div>","1","main_experiment_trial","1","market_semantic","semantic_sequence","","","","",""
"","","","","","html-keyboard-response","124","371839","0.0-124.0","2550814AEB7C4AB5B74CB93587423C76","019cf817-44d4-70d8-82cf-e29e8d0de9a9","019cf80d-4266-7117-8a51-54e13c84aca4","","null","
                <div class=""stimulus-container"">
                    <img src=""images/semantic_sequence/market_semantic/market_semantic_2.png"" class=""exp-image"">
                    <div class=""question-area""></div> 
                </div>","null","","","","","","","","",""
"","","","","","html-button-response","125","372245","0.0-125.0","2550814AEB7C4AB5B74CB93587423C76","019cf817-44d4-70d8-82cf-e29e8d0de9a9","019cf80d-4266-7117-8a51-54e13c84aca4","","404","
                <div class=""stimulus-container"">
                    <img src=""images/semantic_sequence/market_semantic/market_semantic_2.png"" class=""exp-image"">
                    <div class=""question-area"">
                        <p style=""font-size: 20px; font-weight: bold; margin: 0;"">Is there a person in this image?</p>
                    </div>
                </div>","1","main_experiment_trial","2","market_semantic","semantic_sequence","","","","",""
"","","","","","html-keyboard-response","126","377263","0.0-126.0","2550814AEB7C4AB5B74CB93587423C76","019cf817-44d4-70d8-82cf-e29e8d0de9a9","019cf80d-4266-7117-8a51-54e13c84aca4","","null","
                <div class=""stimulus-container"">
                    <img src=""images/semantic_sequence/market_semantic/market_semantic_3.png"" class=""exp-image"">
                    <div class=""question-area""></div> 
                </div>","null","","","","","","","","",""
"","","","","","html-button-response","127","377667","0.0-127.0","2550814AEB7C4AB5B74CB93587423C76","019cf817-44d4-70d8-82cf-e29e8d0de9a9","019cf80d-4266-7117-8a51-54e13c84aca4","","402","
                <div class=""stimulus-container"">
                    <img src=""images/semantic_sequence/market_semantic/market_semantic_3.png"" class=""exp-image"">
                    <div class=""question-area"">
                        <p style=""font-size: 20px; font-weight: bold; margin: 0;"">Is there a person in this image?</p>
                    </div>
                </div>","1","main_experiment_trial","3","market_semantic","semantic_sequence","","","","",""
"","","","","","html-keyboard-response","128","382673","0.0-128.0","2550814AEB7C4AB5B74CB93587423C76","019cf817-44d4-70d8-82cf-e29e8d0de9a9","019cf80d-4266-7117-8a51-54e13c84aca4","","null","
                <div class=""stimulus-container"">
                    <img src=""images/semantic_sequence/market_semantic/market_semantic_4.png"" class=""exp-image"">
                    <div class=""question-area""></div> 
                </div>","null","","","","","","","","",""
"","","","","","html-button-response","129","383091","0.0-129.0","2550814AEB7C4AB5B74CB93587423C76","019cf817-44d4-70d8-82cf-e29e8d0de9a9","019cf80d-4266-7117-8a51-54e13c84aca4","","416","
                <div class=""stimulus-container"">
                    <img src=""images/semantic_sequence/market_semantic/market_semantic_4.png"" class=""exp-image"">
                    <div class=""question-area"">
                        <p style=""font-size: 20px; font-weight: bold; margin: 0;"">Is there a person in this image?</p>
                    </div>
                </div>","0","main_experiment_trial","4","market_semantic","semantic_sequence","","","","",""
"","","","","","html-keyboard-response","130","388105","0.0-130.0","2550814AEB7C4AB5B74CB93587423C76","019cf817-44d4-70d8-82cf-e29e8d0de9a9","019cf80d-4266-7117-8a51-54e13c84aca4","","null","
                <div class=""stimulus-container"">
                    <img src=""images/semantic_sequence/market_semantic/market_semantic_5.png"" class=""exp-image"">
                    <div class=""question-area""></div> 
                </div>","null","","","","","","","","",""
"","","","","","html-button-response","131","388574","0.0-131.0","2550814AEB7C4AB5B74CB93587423C76","019cf817-44d4-70d8-82cf-e29e8d0de9a9","019cf80d-4266-7117-8a51-54e13c84aca4","","467","
                <div class=""stimulus-container"">
                    <img src=""images/semantic_sequence/market_semantic/market_semantic_5.png"" class=""exp-image"">
                    <div class=""question-area"">
                        <p style=""font-size: 20px; font-weight: bold; margin: 0;"">Is there a person in this image?</p>
                    </div>
                </div>","1","main_experiment_trial","5","market_semantic","semantic_sequence","","","","",""
"","","","","","html-keyboard-response","132","393578","0.0-132.0","2550814AEB7C4AB5B74CB93587423C76","019cf817-44d4-70d8-82cf-e29e8d0de9a9","019cf80d-4266-7117-8a51-54e13c84aca4","","null","
                <div class=""stimulus-container"">
                    <img src=""images/semantic_sequence/market_semantic/market_semantic_6.png"" class=""exp-image"">
                    <div class=""question-area""></div> 
                </div>","null","","","","","","","","",""
"","","","","","html-button-response","133","394108","0.0-133.0","2550814AEB7C4AB5B74CB93587423C76","019cf817-44d4-70d8-82cf-e29e8d0de9a9","019cf80d-4266-7117-8a51-54e13c84aca4","","528","
                <div class=""stimulus-container"">
                    <img src=""images/semantic_sequence/market_semantic/market_semantic_6.png"" class=""exp-image"">
                    <div class=""question-area"">
                        <p style=""font-size: 20px; font-weight: bold; margin: 0;"">Is there a person in this image?</p>
                    </div>
                </div>","1","main_experiment_trial","6","market_semantic","semantic_sequence","","","","",""
"","","","","","html-keyboard-response","134","399120","0.0-134.0","2550814AEB7C4AB5B74CB93587423C76","019cf817-44d4-70d8-82cf-e29e8d0de9a9","019cf80d-4266-7117-8a51-54e13c84aca4","","null","
                <div class=""stimulus-container"">
                    <img src=""images/semantic_sequence/market_semantic/market_semantic_7.png"" class=""exp-image"">
                    <div class=""question-area""></div> 
                </div>","null","","","","","","","","",""
"","","","","","html-button-response","135","399524","0.0-135.0","2550814AEB7C4AB5B74CB93587423C76","019cf817-44d4-70d8-82cf-e29e8d0de9a9","019cf80d-4266-7117-8a51-54e13c84aca4","","402","
                <div class=""stimulus-container"">
                    <img src=""images/semantic_sequence/market_semantic/market_semantic_7.png"" class=""exp-image"">
                    <div class=""question-area"">
                        <p style=""font-size: 20px; font-weight: bold; margin: 0;"">Is there a person in this image?</p>
                    </div>
                </div>","0","main_experiment_trial","7","market_semantic","semantic_sequence","","","","",""
"","","","","","html-keyboard-response","136","404527","0.0-136.0","2550814AEB7C4AB5B74CB93587423C76","019cf817-44d4-70d8-82cf-e29e8d0de9a9","019cf80d-4266-7117-8a51-54e13c84aca4","","null","
                <div class=""stimulus-container"">
                    <img src=""images/semantic_sequence/market_semantic/market_semantic_8.png"" class=""exp-image"">
                    <div class=""question-area""></div> 
                </div>","null","","","","","","","","",""
"","","","","","html-button-response","137","404938","0.0-137.0","2550814AEB7C4AB5B74CB93587423C76","019cf817-44d4-70d8-82cf-e29e8d0de9a9","019cf80d-4266-7117-8a51-54e13c84aca4","","409","
                <div class=""stimulus-container"">
                    <img src=""images/semantic_sequence/market_semantic/market_semantic_8.png"" class=""exp-image"">
                    <div class=""question-area"">
                        <p style=""font-size: 20px; font-weight: bold; margin: 0;"">Is there a person in this image?</p>
                    </div>
                </div>","1","main_experiment_trial","8","market_semantic","semantic_sequence","","","","",""
"","","","","","html-keyboard-response","138","409948","0.0-138.0","2550814AEB7C4AB5B74CB93587423C76","019cf817-44d4-70d8-82cf-e29e8d0de9a9","019cf80d-4266-7117-8a51-54e13c84aca4","","null","
                <div class=""stimulus-container"">
                    <img src=""images/semantic_sequence/market_semantic/market_semantic_9.png"" class=""exp-image"">
                    <div class=""question-area""></div> 
                </div>","null","","","","","","","","",""
"","","","","","html-button-response","139","410315","0.0-139.0","2550814AEB7C4AB5B74CB93587423C76","019cf817-44d4-70d8-82cf-e29e8d0de9a9","019cf80d-4266-7117-8a51-54e13c84aca4","","365","
                <div class=""stimulus-container"">
                    <img src=""images/semantic_sequence/market_semantic/market_semantic_9.png"" class=""exp-image"">
                    <div class=""question-area"">
                        <p style=""font-size: 20px; font-weight: bold; margin: 0;"">Is there a person in this image?</p>
                    </div>
                </div>","1","main_experiment_trial","9","market_semantic","semantic_sequence","","","","",""
"","","","","","html-keyboard-response","140","415321","0.0-140.0","2550814AEB7C4AB5B74CB93587423C76","019cf817-44d4-70d8-82cf-e29e8d0de9a9","019cf80d-4266-7117-8a51-54e13c84aca4","","null","
                <div class=""stimulus-container"">
                    <img src=""images/semantic_sequence/market_semantic/market_semantic_ten.png"" class=""exp-image"">
                    <div class=""question-area""></div> 
                </div>","null","","","","","","","","",""
"","","","","","html-button-response","141","415685","0.0-141.0","2550814AEB7C4AB5B74CB93587423C76","019cf817-44d4-70d8-82cf-e29e8d0de9a9","019cf80d-4266-7117-8a51-54e13c84aca4","","362","
                <div class=""stimulus-container"">
                    <img src=""images/semantic_sequence/market_semantic/market_semantic_ten.png"" class=""exp-image"">
                    <div class=""question-area"">
                        <p style=""font-size: 20px; font-weight: bold; margin: 0;"">Is there a person in this image?</p>
                    </div>
                </div>","1","main_experiment_trial","ten","market_semantic","semantic_sequence","","","","",""
"","","","","","html-keyboard-response","142","416700","0.0-142.0","2550814AEB7C4AB5B74CB93587423C76","019cf817-44d4-70d8-82cf-e29e8d0de9a9","019cf80d-4266-7117-8a51-54e13c84aca4","","null","<div style=""background-color: white; width: 100vw; height: 100vh;""></div>","null","","","","","","","","",""
"","","","","","html-keyboard-response","143","421702","0.0-143.0","2550814AEB7C4AB5B74CB93587423C76","019cf817-44d4-70d8-82cf-e29e8d0de9a9","019cf80d-4266-7117-8a51-54e13c84aca4","","null","
                <div class=""stimulus-container"">
                    <img src=""images/semantic_sequence/kitchen_operations_semantic/kitchen_operations_semantic_1.png"" class=""exp-image"">
                    <div class=""question-area""></div> 
                </div>","null","","","","","","","","",""
"","","","","","html-button-response","144","422579","0.0-144.0","2550814AEB7C4AB5B74CB93587423C76","019cf817-44d4-70d8-82cf-e29e8d0de9a9","019cf80d-4266-7117-8a51-54e13c84aca4","","875","
                <div class=""stimulus-container"">
                    <img src=""images/semantic_sequence/kitchen_operations_semantic/kitchen_operations_semantic_1.png"" class=""exp-image"">
                    <div class=""question-area"">
                        <p style=""font-size: 20px; font-weight: bold; margin: 0;"">Is there a person in this image?</p>
                    </div>
                </div>","0","main_experiment_trial","1","kitchen_operations_semantic","semantic_sequence","","","","",""
"","","","","","html-keyboard-response","145","427590","0.0-145.0","2550814AEB7C4AB5B74CB93587423C76","019cf817-44d4-70d8-82cf-e29e8d0de9a9","019cf80d-4266-7117-8a51-54e13c84aca4","","null","
                <div class=""stimulus-container"">
                    <img src=""images/semantic_sequence/kitchen_operations_semantic/kitchen_operations_semantic_2.png"" class=""exp-image"">
                    <div class=""question-area""></div> 
                </div>","null","","","","","","","","",""
"","","","","","html-button-response","146","427964","0.0-146.0","2550814AEB7C4AB5B74CB93587423C76","019cf817-44d4-70d8-82cf-e29e8d0de9a9","019cf80d-4266-7117-8a51-54e13c84aca4","","372","
                <div class=""stimulus-container"">
                    <img src=""images/semantic_sequence/kitchen_operations_semantic/kitchen_operations_semantic_2.png"" class=""exp-image"">
                    <div class=""question-area"">
                        <p style=""font-size: 20px; font-weight: bold; margin: 0;"">Is there a person in this image?</p>
                    </div>
                </div>","0","main_experiment_trial","2","kitchen_operations_semantic","semantic_sequence","","","","",""
"","","","","","html-keyboard-response","147","432974","0.0-147.0","2550814AEB7C4AB5B74CB93587423C76","019cf817-44d4-70d8-82cf-e29e8d0de9a9","019cf80d-4266-7117-8a51-54e13c84aca4","","null","
                <div class=""stimulus-container"">
                    <img src=""images/semantic_sequence/kitchen_operations_semantic/kitchen_operations_semantic_3.png"" class=""exp-image"">
                    <div class=""question-area""></div> 
                </div>","null","","","","","","","","",""
"","","","","","html-button-response","148","433372","0.0-148.0","2550814AEB7C4AB5B74CB93587423C76","019cf817-44d4-70d8-82cf-e29e8d0de9a9","019cf80d-4266-7117-8a51-54e13c84aca4","","395","
                <div class=""stimulus-container"">
                    <img src=""images/semantic_sequence/kitchen_operations_semantic/kitchen_operations_semantic_3.png"" class=""exp-image"">
                    <div class=""question-area"">
                        <p style=""font-size: 20px; font-weight: bold; margin: 0;"">Is there a person in this image?</p>
                    </div>
                </div>","0","main_experiment_trial","3","kitchen_operations_semantic","semantic_sequence","","","","",""
"","","","","","html-keyboard-response","149","438382","0.0-149.0","2550814AEB7C4AB5B74CB93587423C76","019cf817-44d4-70d8-82cf-e29e8d0de9a9","019cf80d-4266-7117-8a51-54e13c84aca4","","null","
                <div class=""stimulus-container"">
                    <img src=""images/semantic_sequence/kitchen_operations_semantic/kitchen_operations_semantic_4.png"" class=""exp-image"">
                    <div class=""question-area""></div> 
                </div>","null","","","","","","","","",""
"","","","","","html-button-response","150","438862","0.0-150.0","2550814AEB7C4AB5B74CB93587423C76","019cf817-44d4-70d8-82cf-e29e8d0de9a9","019cf80d-4266-7117-8a51-54e13c84aca4","","478","
                <div class=""stimulus-container"">
                    <img src=""images/semantic_sequence/kitchen_operations_semantic/kitchen_operations_semantic_4.png"" class=""exp-image"">
                    <div class=""question-area"">
                        <p style=""font-size: 20px; font-weight: bold; margin: 0;"">Is there a person in this image?</p>
                    </div>
                </div>","0","main_experiment_trial","4","kitchen_operations_semantic","semantic_sequence","","","","",""
"","","","","","html-keyboard-response","151","443865","0.0-151.0","2550814AEB7C4AB5B74CB93587423C76","019cf817-44d4-70d8-82cf-e29e8d0de9a9","019cf80d-4266-7117-8a51-54e13c84aca4","","null","
                <div class=""stimulus-container"">
                    <img src=""images/semantic_sequence/kitchen_operations_semantic/kitchen_operations_semantic_5.png"" class=""exp-image"">
                    <div class=""question-area""></div> 
                </div>","null","","","","","","","","",""
"","","","","","html-button-response","152","444299","0.0-152.0","2550814AEB7C4AB5B74CB93587423C76","019cf817-44d4-70d8-82cf-e29e8d0de9a9","019cf80d-4266-7117-8a51-54e13c84aca4","","433","
                <div class=""stimulus-container"">
                    <img src=""images/semantic_sequence/kitchen_operations_semantic/kitchen_operations_semantic_5.png"" class=""exp-image"">
                    <div class=""question-area"">
                        <p style=""font-size: 20px; font-weight: bold; margin: 0;"">Is there a person in this image?</p>
                    </div>
                </div>","0","main_experiment_trial","5","kitchen_operations_semantic","semantic_sequence","","","","",""
"","","","","","html-keyboard-response","153","449311","0.0-153.0","2550814AEB7C4AB5B74CB93587423C76","019cf817-44d4-70d8-82cf-e29e8d0de9a9","019cf80d-4266-7117-8a51-54e13c84aca4","","null","
                <div class=""stimulus-container"">
                    <img src=""images/semantic_sequence/kitchen_operations_semantic/kitchen_operations_semantic_6.png"" class=""exp-image"">
                    <div class=""question-area""></div> 
                </div>","null","","","","","","","","",""
"","","","","","html-button-response","154","449766","0.0-154.0","2550814AEB7C4AB5B74CB93587423C76","019cf817-44d4-70d8-82cf-e29e8d0de9a9","019cf80d-4266-7117-8a51-54e13c84aca4","","452","
                <div class=""stimulus-container"">
                    <img src=""images/semantic_sequence/kitchen_operations_semantic/kitchen_operations_semantic_6.png"" class=""exp-image"">
                    <div class=""question-area"">
                        <p style=""font-size: 20px; font-weight: bold; margin: 0;"">Is there a person in this image?</p>
                    </div>
                </div>","0","main_experiment_trial","6","kitchen_operations_semantic","semantic_sequence","","","","",""
"","","","","","html-keyboard-response","155","454772","0.0-155.0","2550814AEB7C4AB5B74CB93587423C76","019cf817-44d4-70d8-82cf-e29e8d0de9a9","019cf80d-4266-7117-8a51-54e13c84aca4","","null","
                <div class=""stimulus-container"">
                    <img src=""images/semantic_sequence/kitchen_operations_semantic/kitchen_operations_semantic_7.png"" class=""exp-image"">
                    <div class=""question-area""></div> 
                </div>","null","","","","","","","","",""
"","","","","","html-button-response","156","455273","0.0-156.0","2550814AEB7C4AB5B74CB93587423C76","019cf817-44d4-70d8-82cf-e29e8d0de9a9","019cf80d-4266-7117-8a51-54e13c84aca4","","499","
                <div class=""stimulus-container"">
                    <img src=""images/semantic_sequence/kitchen_operations_semantic/kitchen_operations_semantic_7.png"" class=""exp-image"">
                    <div class=""question-area"">
                        <p style=""font-size: 20px; font-weight: bold; margin: 0;"">Is there a person in this image?</p>
                    </div>
                </div>","0","main_experiment_trial","7","kitchen_operations_semantic","semantic_sequence","","","","",""
"","","","","","html-keyboard-response","157","460283","0.0-157.0","2550814AEB7C4AB5B74CB93587423C76","019cf817-44d4-70d8-82cf-e29e8d0de9a9","019cf80d-4266-7117-8a51-54e13c84aca4","","null","
                <div class=""stimulus-container"">
                    <img src=""images/semantic_sequence/kitchen_operations_semantic/kitchen_operations_semantic_8.png"" class=""exp-image"">
                    <div class=""question-area""></div> 
                </div>","null","","","","","","","","",""
"","","","","","html-button-response","158","460687","0.0-158.0","2550814AEB7C4AB5B74CB93587423C76","019cf817-44d4-70d8-82cf-e29e8d0de9a9","019cf80d-4266-7117-8a51-54e13c84aca4","","402","
                <div class=""stimulus-container"">
                    <img src=""images/semantic_sequence/kitchen_operations_semantic/kitchen_operations_semantic_8.png"" class=""exp-image"">
                    <div class=""question-area"">
                        <p style=""font-size: 20px; font-weight: bold; margin: 0;"">Is there a person in this image?</p>
                    </div>
                </div>","0","main_experiment_trial","8","kitchen_operations_semantic","semantic_sequence","","","","",""
"","","","","","html-keyboard-response","159","465691","0.0-159.0","2550814AEB7C4AB5B74CB93587423C76","019cf817-44d4-70d8-82cf-e29e8d0de9a9","019cf80d-4266-7117-8a51-54e13c84aca4","","null","
                <div class=""stimulus-container"">
                    <img src=""images/semantic_sequence/kitchen_operations_semantic/kitchen_operations_semantic_9.png"" class=""exp-image"">
                    <div class=""question-area""></div> 
                </div>","null","","","","","","","","",""
"","","","","","html-button-response","160","466111","0.0-160.0","2550814AEB7C4AB5B74CB93587423C76","019cf817-44d4-70d8-82cf-e29e8d0de9a9","019cf80d-4266-7117-8a51-54e13c84aca4","","418","
                <div class=""stimulus-container"">
                    <img src=""images/semantic_sequence/kitchen_operations_semantic/kitchen_operations_semantic_9.png"" class=""exp-image"">
                    <div class=""question-area"">
                        <p style=""font-size: 20px; font-weight: bold; margin: 0;"">Is there a person in this image?</p>
                    </div>
                </div>","0","main_experiment_trial","9","kitchen_operations_semantic","semantic_sequence","","","","",""
"","","","","","html-keyboard-response","161","471122","0.0-161.0","2550814AEB7C4AB5B74CB93587423C76","019cf817-44d4-70d8-82cf-e29e8d0de9a9","019cf80d-4266-7117-8a51-54e13c84aca4","","null","
                <div class=""stimulus-container"">
                    <img src=""images/semantic_sequence/kitchen_operations_semantic/kitchen_operations_semantic_ten.png"" class=""exp-image"">
                    <div class=""question-area""></div> 
                </div>","null","","","","","","","","",""
"","","","","","html-button-response","162","471614","0.0-162.0","2550814AEB7C4AB5B74CB93587423C76","019cf817-44d4-70d8-82cf-e29e8d0de9a9","019cf80d-4266-7117-8a51-54e13c84aca4","","491","
                <div class=""stimulus-container"">
                    <img src=""images/semantic_sequence/kitchen_operations_semantic/kitchen_operations_semantic_ten.png"" class=""exp-image"">
                    <div class=""question-area"">
                        <p style=""font-size: 20px; font-weight: bold; margin: 0;"">Is there a person in this image?</p>
                    </div>
                </div>","0","main_experiment_trial","ten","kitchen_operations_semantic","semantic_sequence","","","","",""
"","","","","","html-keyboard-response","163","472620","0.0-163.0","2550814AEB7C4AB5B74CB93587423C76","019cf817-44d4-70d8-82cf-e29e8d0de9a9","019cf80d-4266-7117-8a51-54e13c84aca4","","null","<div style=""background-color: white; width: 100vw; height: 100vh;""></div>","null","","","","","","","","",""
"","","","","","html-keyboard-response","164","477636","0.0-164.0","2550814AEB7C4AB5B74CB93587423C76","019cf817-44d4-70d8-82cf-e29e8d0de9a9","019cf80d-4266-7117-8a51-54e13c84aca4","","null","
                <div class=""stimulus-container"">
                    <img src=""images/schematic_sequence/hotel_scheme/hotel_scheme_1.png"" class=""exp-image"">
                    <div class=""question-area""></div> 
                </div>","null","","","","","","","","",""
"","","","","","html-button-response","165","478425","0.0-165.0","2550814AEB7C4AB5B74CB93587423C76","019cf817-44d4-70d8-82cf-e29e8d0de9a9","019cf80d-4266-7117-8a51-54e13c84aca4","","787","
                <div class=""stimulus-container"">
                    <img src=""images/schematic_sequence/hotel_scheme/hotel_scheme_1.png"" class=""exp-image"">
                    <div class=""question-area"">
                        <p style=""font-size: 20px; font-weight: bold; margin: 0;"">Is there a person in this image?</p>
                    </div>
                </div>","1","main_experiment_trial","1","hotel_scheme","schematic_sequence","","","","",""
"","","","","","html-keyboard-response","166","483427","0.0-166.0","2550814AEB7C4AB5B74CB93587423C76","019cf817-44d4-70d8-82cf-e29e8d0de9a9","019cf80d-4266-7117-8a51-54e13c84aca4","","null","
                <div class=""stimulus-container"">
                    <img src=""images/schematic_sequence/hotel_scheme/hotel_scheme_2.png"" class=""exp-image"">
                    <div class=""question-area""></div> 
                </div>","null","","","","","","","","",""
"","","","","","html-button-response","167","483779","0.0-167.0","2550814AEB7C4AB5B74CB93587423C76","019cf817-44d4-70d8-82cf-e29e8d0de9a9","019cf80d-4266-7117-8a51-54e13c84aca4","","350","
                <div class=""stimulus-container"">
                    <img src=""images/schematic_sequence/hotel_scheme/hotel_scheme_2.png"" class=""exp-image"">
                    <div class=""question-area"">
                        <p style=""font-size: 20px; font-weight: bold; margin: 0;"">Is there a person in this image?</p>
                    </div>
                </div>","0","main_experiment_trial","2","hotel_scheme","schematic_sequence","","","","",""
"","","","","","html-keyboard-response","168","488786","0.0-168.0","2550814AEB7C4AB5B74CB93587423C76","019cf817-44d4-70d8-82cf-e29e8d0de9a9","019cf80d-4266-7117-8a51-54e13c84aca4","","null","
                <div class=""stimulus-container"">
                    <img src=""images/schematic_sequence/hotel_scheme/hotel_scheme_3.png"" class=""exp-image"">
                    <div class=""question-area""></div> 
                </div>","null","","","","","","","","",""
"","","","","","html-button-response","169","489220","0.0-169.0","2550814AEB7C4AB5B74CB93587423C76","019cf817-44d4-70d8-82cf-e29e8d0de9a9","019cf80d-4266-7117-8a51-54e13c84aca4","","432","
                <div class=""stimulus-container"">
                    <img src=""images/schematic_sequence/hotel_scheme/hotel_scheme_3.png"" class=""exp-image"">
                    <div class=""question-area"">
                        <p style=""font-size: 20px; font-weight: bold; margin: 0;"">Is there a person in this image?</p>
                    </div>
                </div>","0","main_experiment_trial","3","hotel_scheme","schematic_sequence","","","","",""
"","","","","","html-keyboard-response","170","494226","0.0-170.0","2550814AEB7C4AB5B74CB93587423C76","019cf817-44d4-70d8-82cf-e29e8d0de9a9","019cf80d-4266-7117-8a51-54e13c84aca4","","null","
                <div class=""stimulus-container"">
                    <img src=""images/schematic_sequence/hotel_scheme/hotel_scheme_4.png"" class=""exp-image"">
                    <div class=""question-area""></div> 
                </div>","null","","","","","","","","",""
"","","","","","html-button-response","171","494656","0.0-171.0","2550814AEB7C4AB5B74CB93587423C76","019cf817-44d4-70d8-82cf-e29e8d0de9a9","019cf80d-4266-7117-8a51-54e13c84aca4","","428","
                <div class=""stimulus-container"">
                    <img src=""images/schematic_sequence/hotel_scheme/hotel_scheme_4.png"" class=""exp-image"">
                    <div class=""question-area"">
                        <p style=""font-size: 20px; font-weight: bold; margin: 0;"">Is there a person in this image?</p>
                    </div>
                </div>","1","main_experiment_trial","4","hotel_scheme","schematic_sequence","","","","",""
"","","","","","html-keyboard-response","172","499669","0.0-172.0","2550814AEB7C4AB5B74CB93587423C76","019cf817-44d4-70d8-82cf-e29e8d0de9a9","019cf80d-4266-7117-8a51-54e13c84aca4","","null","
                <div class=""stimulus-container"">
                    <img src=""images/schematic_sequence/hotel_scheme/hotel_scheme_5.png"" class=""exp-image"">
                    <div class=""question-area""></div> 
                </div>","null","","","","","","","","",""
"","","","","","html-button-response","173","500062","0.0-173.0","2550814AEB7C4AB5B74CB93587423C76","019cf817-44d4-70d8-82cf-e29e8d0de9a9","019cf80d-4266-7117-8a51-54e13c84aca4","","391","
                <div class=""stimulus-container"">
                    <img src=""images/schematic_sequence/hotel_scheme/hotel_scheme_5.png"" class=""exp-image"">
                    <div class=""question-area"">
                        <p style=""font-size: 20px; font-weight: bold; margin: 0;"">Is there a person in this image?</p>
                    </div>
                </div>","0","main_experiment_trial","5","hotel_scheme","schematic_sequence","","","","",""
"","","","","","html-keyboard-response","174","505077","0.0-174.0","2550814AEB7C4AB5B74CB93587423C76","019cf817-44d4-70d8-82cf-e29e8d0de9a9","019cf80d-4266-7117-8a51-54e13c84aca4","","null","
                <div class=""stimulus-container"">
                    <img src=""images/schematic_sequence/hotel_scheme/hotel_scheme_6.png"" class=""exp-image"">
                    <div class=""question-area""></div> 
                </div>","null","","","","","","","","",""
"","","","","","html-button-response","175","505545","0.0-175.0","2550814AEB7C4AB5B74CB93587423C76","019cf817-44d4-70d8-82cf-e29e8d0de9a9","019cf80d-4266-7117-8a51-54e13c84aca4","","466","
                <div class=""stimulus-container"">
                    <img src=""images/schematic_sequence/hotel_scheme/hotel_scheme_6.png"" class=""exp-image"">
                    <div class=""question-area"">
                        <p style=""font-size: 20px; font-weight: bold; margin: 0;"">Is there a person in this image?</p>
                    </div>
                </div>","0","main_experiment_trial","6","hotel_scheme","schematic_sequence","","","","",""
"","","","","","html-keyboard-response","176","510556","0.0-176.0","2550814AEB7C4AB5B74CB93587423C76","019cf817-44d4-70d8-82cf-e29e8d0de9a9","019cf80d-4266-7117-8a51-54e13c84aca4","","null","
                <div class=""stimulus-container"">
                    <img src=""images/schematic_sequence/hotel_scheme/hotel_scheme_7.png"" class=""exp-image"">
                    <div class=""question-area""></div> 
                </div>","null","","","","","","","","",""
"","","","","","html-button-response","177","511014","0.0-177.0","2550814AEB7C4AB5B74CB93587423C76","019cf817-44d4-70d8-82cf-e29e8d0de9a9","019cf80d-4266-7117-8a51-54e13c84aca4","","456","
                <div class=""stimulus-container"">
                    <img src=""images/schematic_sequence/hotel_scheme/hotel_scheme_7.png"" class=""exp-image"">
                    <div class=""question-area"">
                        <p style=""font-size: 20px; font-weight: bold; margin: 0;"">Is there a person in this image?</p>
                    </div>
                </div>","0","main_experiment_trial","7","hotel_scheme","schematic_sequence","","","","",""
"","","","","","html-keyboard-response","178","516028","0.0-178.0","2550814AEB7C4AB5B74CB93587423C76","019cf817-44d4-70d8-82cf-e29e8d0de9a9","019cf80d-4266-7117-8a51-54e13c84aca4","","null","
                <div class=""stimulus-container"">
                    <img src=""images/schematic_sequence/hotel_scheme/hotel_scheme_8.png"" class=""exp-image"">
                    <div class=""question-area""></div> 
                </div>","null","","","","","","","","",""
"","","","","","html-button-response","179","516465","0.0-179.0","2550814AEB7C4AB5B74CB93587423C76","019cf817-44d4-70d8-82cf-e29e8d0de9a9","019cf80d-4266-7117-8a51-54e13c84aca4","","435","
                <div class=""stimulus-container"">
                    <img src=""images/schematic_sequence/hotel_scheme/hotel_scheme_8.png"" class=""exp-image"">
                    <div class=""question-area"">
                        <p style=""font-size: 20px; font-weight: bold; margin: 0;"">Is there a person in this image?</p>
                    </div>
                </div>","0","main_experiment_trial","8","hotel_scheme","schematic_sequence","","","","",""
"","","","","","html-keyboard-response","180","521479","0.0-180.0","2550814AEB7C4AB5B74CB93587423C76","019cf817-44d4-70d8-82cf-e29e8d0de9a9","019cf80d-4266-7117-8a51-54e13c84aca4","","null","
                <div class=""stimulus-container"">
                    <img src=""images/schematic_sequence/hotel_scheme/hotel_scheme_9.png"" class=""exp-image"">
                    <div class=""question-area""></div> 
                </div>","null","","","","","","","","",""
"","","","","","html-button-response","181","521910","0.0-181.0","2550814AEB7C4AB5B74CB93587423C76","019cf817-44d4-70d8-82cf-e29e8d0de9a9","019cf80d-4266-7117-8a51-54e13c84aca4","","429","
                <div class=""stimulus-container"">
                    <img src=""images/schematic_sequence/hotel_scheme/hotel_scheme_9.png"" class=""exp-image"">
                    <div class=""question-area"">
                        <p style=""font-size: 20px; font-weight: bold; margin: 0;"">Is there a person in this image?</p>
