"success","timeout","failed_images","failed_audio","failed_video","trial_type","trial_index","time_elapsed","internal_node_id","subject_id","study_id","session_id","view_history","rt","stimulus","response","task","image_index","folder","sequence_type","valuable_image_index","reward_type","chosen_image_index","target_X","correct_choice"
"true","false","[]","[]","[]","preload","0","3205","0.0-0.0","5C6D437C650449C99127F6632DB717CF","019cf4da-434c-71a4-8e1b-c97962bd7389","019cf4c8-1de8-79ec-b3bd-d98520647593","","","","","","","","","","","","",""
"","","","","","instructions","1","29418","0.0-1.0","5C6D437C650449C99127F6632DB717CF","019cf4da-434c-71a4-8e1b-c97962bd7389","019cf4c8-1de8-79ec-b3bd-d98520647593","[{""page_index"":0,""viewing_time"":26211}]","26211","","","","","","","","","","",""
"","","","","","instructions","2","34051","0.0-2.0","5C6D437C650449C99127F6632DB717CF","019cf4da-434c-71a4-8e1b-c97962bd7389","019cf4c8-1de8-79ec-b3bd-d98520647593","[{""page_index"":0,""viewing_time"":4633}]","4633","","","","","","","","","","",""
"true","","","","","fullscreen","3","36571","0.0-3.0","5C6D437C650449C99127F6632DB717CF","019cf4da-434c-71a4-8e1b-c97962bd7389","019cf4c8-1de8-79ec-b3bd-d98520647593","","1509","","","","","","","","","","",""
"","","","","","instructions","4","52102","0.0-4.0","5C6D437C650449C99127F6632DB717CF","019cf4da-434c-71a4-8e1b-c97962bd7389","019cf4c8-1de8-79ec-b3bd-d98520647593","[{""page_index"":0,""viewing_time"":15530}]","15531","","","","","","","","","","",""
"","","","","","instructions","5","182029","0.0-5.0","5C6D437C650449C99127F6632DB717CF","019cf4da-434c-71a4-8e1b-c97962bd7389","019cf4c8-1de8-79ec-b3bd-d98520647593","[{""page_index"":0,""viewing_time"":129926}]","129927","","","","","","","","","","",""
"","","","","","html-keyboard-response","6","186031","0.0-6.0","5C6D437C650449C99127F6632DB717CF","019cf4da-434c-71a4-8e1b-c97962bd7389","019cf4c8-1de8-79ec-b3bd-d98520647593","","null","
                <div class=""stimulus-container"">
                    <img src=""images/instructions/movie_1.png"" class=""exp-image"">
                    <div class=""question-area""></div> 
                </div>","null","","","","","","","","",""
"","","","","","html-button-response","7","187815","0.0-7.0","5C6D437C650449C99127F6632DB717CF","019cf4da-434c-71a4-8e1b-c97962bd7389","019cf4c8-1de8-79ec-b3bd-d98520647593","","1783","
                <div class=""stimulus-container"">
                    <img src=""images/instructions/movie_1.png"" class=""exp-image"">
                    <div class=""question-area"">
                        <p style=""font-size: 20px; font-weight: bold; margin: 0;"">Was there a person in this image?</p>
                    </div>
                </div>","0","example_question","1","","","","","","",""
"","","","","","html-keyboard-response","8","191817","0.0-8.0","5C6D437C650449C99127F6632DB717CF","019cf4da-434c-71a4-8e1b-c97962bd7389","019cf4c8-1de8-79ec-b3bd-d98520647593","","null","
                <div class=""stimulus-container"">
                    <img src=""images/instructions/movie_2.png"" class=""exp-image"">
                    <div class=""question-area""></div> 
                </div>","null","","","","","","","","",""
"","","","","","html-button-response","9","192253","0.0-9.0","5C6D437C650449C99127F6632DB717CF","019cf4da-434c-71a4-8e1b-c97962bd7389","019cf4c8-1de8-79ec-b3bd-d98520647593","","435","
                <div class=""stimulus-container"">
                    <img src=""images/instructions/movie_2.png"" class=""exp-image"">
                    <div class=""question-area"">
                        <p style=""font-size: 20px; font-weight: bold; margin: 0;"">Was there a person in this image?</p>
                    </div>
                </div>","1","example_question","2","","","","","","",""
"","","","","","html-keyboard-response","10","196270","0.0-10.0","5C6D437C650449C99127F6632DB717CF","019cf4da-434c-71a4-8e1b-c97962bd7389","019cf4c8-1de8-79ec-b3bd-d98520647593","","null","
                <div class=""stimulus-container"">
                    <img src=""images/instructions/movie_3.png"" class=""exp-image"">
                    <div class=""question-area""></div> 
                </div>","null","","","","","","","","",""
"","","","","","html-button-response","11","196941","0.0-11.0","5C6D437C650449C99127F6632DB717CF","019cf4da-434c-71a4-8e1b-c97962bd7389","019cf4c8-1de8-79ec-b3bd-d98520647593","","671","
                <div class=""stimulus-container"">
                    <img src=""images/instructions/movie_3.png"" class=""exp-image"">
                    <div class=""question-area"">
                        <p style=""font-size: 20px; font-weight: bold; margin: 0;"">Was there a person in this image?</p>
                    </div>
                </div>","0","example_question","3","","","","","","",""
"","","","","","html-keyboard-response","12","200944","0.0-12.0","5C6D437C650449C99127F6632DB717CF","019cf4da-434c-71a4-8e1b-c97962bd7389","019cf4c8-1de8-79ec-b3bd-d98520647593","","null","
                <div class=""stimulus-container"">
                    <img src=""images/instructions/movie_4.png"" class=""exp-image"">
                    <div class=""question-area""></div> 
                </div>","null","","","","","","","","",""
"","","","","","html-button-response","13","202019","0.0-13.0","5C6D437C650449C99127F6632DB717CF","019cf4da-434c-71a4-8e1b-c97962bd7389","019cf4c8-1de8-79ec-b3bd-d98520647593","","1074","
                <div class=""stimulus-container"">
                    <img src=""images/instructions/movie_4.png"" class=""exp-image"">
                    <div class=""question-area"">
                        <p style=""font-size: 20px; font-weight: bold; margin: 0;"">Was there a person in this image?</p>
                    </div>
                </div>","0","example_question","4","","","","","","",""
"","","","","","instructions","14","277161","0.0-14.0","5C6D437C650449C99127F6632DB717CF","019cf4da-434c-71a4-8e1b-c97962bd7389","019cf4c8-1de8-79ec-b3bd-d98520647593","[{""page_index"":0,""viewing_time"":75141}]","75141","","","","","","","","","","",""
"","","","","","instructions","15","417797","0.0-15.0","5C6D437C650449C99127F6632DB717CF","019cf4da-434c-71a4-8e1b-c97962bd7389","019cf4c8-1de8-79ec-b3bd-d98520647593","[{""page_index"":0,""viewing_time"":140635}]","140636","","","","","","","","","","",""
"","","","","","html-keyboard-response","16","418798","0.0-16.0","5C6D437C650449C99127F6632DB717CF","019cf4da-434c-71a4-8e1b-c97962bd7389","019cf4c8-1de8-79ec-b3bd-d98520647593","","null","<div style=""background-color: white; width: 100vw; height: 100vh;""></div>","null","","","","","","","","",""
"","","","","","html-keyboard-response","17","423806","0.0-17.0","5C6D437C650449C99127F6632DB717CF","019cf4da-434c-71a4-8e1b-c97962bd7389","019cf4c8-1de8-79ec-b3bd-d98520647593","","null","
                <div class=""stimulus-container"">
                    <img src=""images/causal_sequence/the_performance_causal/the_performance_causal_1.png"" class=""exp-image"">
                    <div class=""question-area""></div> 
                </div>","null","","","","","","","","",""
"","","","","","html-button-response","18","425001","0.0-18.0","5C6D437C650449C99127F6632DB717CF","019cf4da-434c-71a4-8e1b-c97962bd7389","019cf4c8-1de8-79ec-b3bd-d98520647593","","1193","
                <div class=""stimulus-container"">
                    <img src=""images/causal_sequence/the_performance_causal/the_performance_causal_1.png"" class=""exp-image"">
                    <div class=""question-area"">
                        <p style=""font-size: 20px; font-weight: bold; margin: 0;"">Is there a person in this image?</p>
                    </div>
                </div>","0","main_experiment_trial","1","the_performance_causal","causal_sequence","","","","",""
"","","","","","html-keyboard-response","19","430009","0.0-19.0","5C6D437C650449C99127F6632DB717CF","019cf4da-434c-71a4-8e1b-c97962bd7389","019cf4c8-1de8-79ec-b3bd-d98520647593","","null","
                <div class=""stimulus-container"">
                    <img src=""images/causal_sequence/the_performance_causal/the_performance_causal_2.png"" class=""exp-image"">
                    <div class=""question-area""></div> 
                </div>","null","","","","","","","","",""
"","","","","","html-button-response","20","430435","0.0-20.0","5C6D437C650449C99127F6632DB717CF","019cf4da-434c-71a4-8e1b-c97962bd7389","019cf4c8-1de8-79ec-b3bd-d98520647593","","424","
                <div class=""stimulus-container"">
                    <img src=""images/causal_sequence/the_performance_causal/the_performance_causal_2.png"" class=""exp-image"">
                    <div class=""question-area"">
                        <p style=""font-size: 20px; font-weight: bold; margin: 0;"">Is there a person in this image?</p>
                    </div>
                </div>","0","main_experiment_trial","2","the_performance_causal","causal_sequence","","","","",""
"","","","","","html-keyboard-response","21","435446","0.0-21.0","5C6D437C650449C99127F6632DB717CF","019cf4da-434c-71a4-8e1b-c97962bd7389","019cf4c8-1de8-79ec-b3bd-d98520647593","","null","
                <div class=""stimulus-container"">
                    <img src=""images/causal_sequence/the_performance_causal/the_performance_causal_3.png"" class=""exp-image"">
                    <div class=""question-area""></div> 
                </div>","null","","","","","","","","",""
"","","","","","html-button-response","22","435823","0.0-22.0","5C6D437C650449C99127F6632DB717CF","019cf4da-434c-71a4-8e1b-c97962bd7389","019cf4c8-1de8-79ec-b3bd-d98520647593","","376","
                <div class=""stimulus-container"">
                    <img src=""images/causal_sequence/the_performance_causal/the_performance_causal_3.png"" class=""exp-image"">
                    <div class=""question-area"">
                        <p style=""font-size: 20px; font-weight: bold; margin: 0;"">Is there a person in this image?</p>
                    </div>
                </div>","0","main_experiment_trial","3","the_performance_causal","causal_sequence","","","","",""
"","","","","","html-keyboard-response","23","440829","0.0-23.0","5C6D437C650449C99127F6632DB717CF","019cf4da-434c-71a4-8e1b-c97962bd7389","019cf4c8-1de8-79ec-b3bd-d98520647593","","null","
                <div class=""stimulus-container"">
                    <img src=""images/causal_sequence/the_performance_causal/the_performance_causal_4.png"" class=""exp-image"">
                    <div class=""question-area""></div> 
                </div>","null","","","","","","","","",""
"","","","","","html-button-response","24","441331","0.0-24.0","5C6D437C650449C99127F6632DB717CF","019cf4da-434c-71a4-8e1b-c97962bd7389","019cf4c8-1de8-79ec-b3bd-d98520647593","","501","
                <div class=""stimulus-container"">
                    <img src=""images/causal_sequence/the_performance_causal/the_performance_causal_4.png"" class=""exp-image"">
                    <div class=""question-area"">
                        <p style=""font-size: 20px; font-weight: bold; margin: 0;"">Is there a person in this image?</p>
                    </div>
                </div>","0","main_experiment_trial","4","the_performance_causal","causal_sequence","","","","",""
"","","","","","html-keyboard-response","25","446338","0.0-25.0","5C6D437C650449C99127F6632DB717CF","019cf4da-434c-71a4-8e1b-c97962bd7389","019cf4c8-1de8-79ec-b3bd-d98520647593","","null","
                <div class=""stimulus-container"">
                    <img src=""images/causal_sequence/the_performance_causal/the_performance_causal_5.png"" class=""exp-image"">
                    <div class=""question-area""></div> 
                </div>","null","","","","","","","","",""
"","","","","","html-button-response","26","446873","0.0-26.0","5C6D437C650449C99127F6632DB717CF","019cf4da-434c-71a4-8e1b-c97962bd7389","019cf4c8-1de8-79ec-b3bd-d98520647593","","534","
                <div class=""stimulus-container"">
                    <img src=""images/causal_sequence/the_performance_causal/the_performance_causal_5.png"" class=""exp-image"">
                    <div class=""question-area"">
                        <p style=""font-size: 20px; font-weight: bold; margin: 0;"">Is there a person in this image?</p>
                    </div>
                </div>","0","main_experiment_trial","5","the_performance_causal","causal_sequence","","","","",""
"","","","","","html-keyboard-response","27","451884","0.0-27.0","5C6D437C650449C99127F6632DB717CF","019cf4da-434c-71a4-8e1b-c97962bd7389","019cf4c8-1de8-79ec-b3bd-d98520647593","","null","
                <div class=""stimulus-container"">
                    <img src=""images/causal_sequence/the_performance_causal/the_performance_causal_6.png"" class=""exp-image"">
                    <div class=""question-area""></div> 
                </div>","null","","","","","","","","",""
"","","","","","html-button-response","28","452453","0.0-28.0","5C6D437C650449C99127F6632DB717CF","019cf4da-434c-71a4-8e1b-c97962bd7389","019cf4c8-1de8-79ec-b3bd-d98520647593","","568","
                <div class=""stimulus-container"">
                    <img src=""images/causal_sequence/the_performance_causal/the_performance_causal_6.png"" class=""exp-image"">
                    <div class=""question-area"">
                        <p style=""font-size: 20px; font-weight: bold; margin: 0;"">Is there a person in this image?</p>
                    </div>
                </div>","0","main_experiment_trial","6","the_performance_causal","causal_sequence","","","","",""
"","","","","","html-keyboard-response","29","457469","0.0-29.0","5C6D437C650449C99127F6632DB717CF","019cf4da-434c-71a4-8e1b-c97962bd7389","019cf4c8-1de8-79ec-b3bd-d98520647593","","null","
                <div class=""stimulus-container"">
                    <img src=""images/causal_sequence/the_performance_causal/the_performance_causal_7.png"" class=""exp-image"">
                    <div class=""question-area""></div> 
                </div>","null","","","","","","","","",""
"","","","","","html-button-response","30","458683","0.0-30.0","5C6D437C650449C99127F6632DB717CF","019cf4da-434c-71a4-8e1b-c97962bd7389","019cf4c8-1de8-79ec-b3bd-d98520647593","","1213","
                <div class=""stimulus-container"">
                    <img src=""images/causal_sequence/the_performance_causal/the_performance_causal_7.png"" class=""exp-image"">
                    <div class=""question-area"">
                        <p style=""font-size: 20px; font-weight: bold; margin: 0;"">Is there a person in this image?</p>
                    </div>
                </div>","0","main_experiment_trial","7","the_performance_causal","causal_sequence","","","","",""
"","","","","","html-keyboard-response","31","463689","0.0-31.0","5C6D437C650449C99127F6632DB717CF","019cf4da-434c-71a4-8e1b-c97962bd7389","019cf4c8-1de8-79ec-b3bd-d98520647593","","null","
                <div class=""stimulus-container"">
                    <img src=""images/causal_sequence/the_performance_causal/the_performance_causal_8.png"" class=""exp-image"">
                    <div class=""question-area""></div> 
                </div>","null","","","","","","","","",""
"","","","","","html-button-response","32","465507","0.0-32.0","5C6D437C650449C99127F6632DB717CF","019cf4da-434c-71a4-8e1b-c97962bd7389","019cf4c8-1de8-79ec-b3bd-d98520647593","","1817","
                <div class=""stimulus-container"">
                    <img src=""images/causal_sequence/the_performance_causal/the_performance_causal_8.png"" class=""exp-image"">
                    <div class=""question-area"">
                        <p style=""font-size: 20px; font-weight: bold; margin: 0;"">Is there a person in this image?</p>
                    </div>
                </div>","0","main_experiment_trial","8","the_performance_causal","causal_sequence","","","","",""
"","","","","","html-keyboard-response","33","470516","0.0-33.0","5C6D437C650449C99127F6632DB717CF","019cf4da-434c-71a4-8e1b-c97962bd7389","019cf4c8-1de8-79ec-b3bd-d98520647593","","null","
                <div class=""stimulus-container"">
                    <img src=""images/causal_sequence/the_performance_causal/the_performance_causal_9.png"" class=""exp-image"">
                    <div class=""question-area""></div> 
                </div>","null","","","","","","","","",""
"","","","","","html-button-response","34","471271","0.0-34.0","5C6D437C650449C99127F6632DB717CF","019cf4da-434c-71a4-8e1b-c97962bd7389","019cf4c8-1de8-79ec-b3bd-d98520647593","","754","
                <div class=""stimulus-container"">
                    <img src=""images/causal_sequence/the_performance_causal/the_performance_causal_9.png"" class=""exp-image"">
                    <div class=""question-area"">
                        <p style=""font-size: 20px; font-weight: bold; margin: 0;"">Is there a person in this image?</p>
                    </div>
                </div>","0","main_experiment_trial","9","the_performance_causal","causal_sequence","","","","",""
"","","","","","html-keyboard-response","35","476282","0.0-35.0","5C6D437C650449C99127F6632DB717CF","019cf4da-434c-71a4-8e1b-c97962bd7389","019cf4c8-1de8-79ec-b3bd-d98520647593","","null","
                <div class=""stimulus-container"">
                    <img src=""images/causal_sequence/the_performance_causal/the_performance_causal_ten.png"" class=""exp-image"">
                    <div class=""question-area""></div> 
                </div>","null","","","","","","","","",""
"","","","","","html-button-response","36","476835","0.0-36.0","5C6D437C650449C99127F6632DB717CF","019cf4da-434c-71a4-8e1b-c97962bd7389","019cf4c8-1de8-79ec-b3bd-d98520647593","","551","
                <div class=""stimulus-container"">
                    <img src=""images/causal_sequence/the_performance_causal/the_performance_causal_ten.png"" class=""exp-image"">
                    <div class=""question-area"">
                        <p style=""font-size: 20px; font-weight: bold; margin: 0;"">Is there a person in this image?</p>
                    </div>
                </div>","0","main_experiment_trial","ten","the_performance_causal","causal_sequence","","","","",""
"","","","","","html-keyboard-response","37","477837","0.0-37.0","5C6D437C650449C99127F6632DB717CF","019cf4da-434c-71a4-8e1b-c97962bd7389","019cf4c8-1de8-79ec-b3bd-d98520647593","","null","<div style=""background-color: white; width: 100vw; height: 100vh;""></div>","null","","","","","","","","",""
"","","","","","html-keyboard-response","38","482849","0.0-38.0","5C6D437C650449C99127F6632DB717CF","019cf4da-434c-71a4-8e1b-c97962bd7389","019cf4c8-1de8-79ec-b3bd-d98520647593","","null","
                <div class=""stimulus-container"">
                    <img src=""images/schematic_sequence/interview_scheme/interview_scheme_1.png"" class=""exp-image"">
                    <div class=""question-area""></div> 
                </div>","null","","","","","","","","",""
"","","","","","html-button-response","39","483393","0.0-39.0","5C6D437C650449C99127F6632DB717CF","019cf4da-434c-71a4-8e1b-c97962bd7389","019cf4c8-1de8-79ec-b3bd-d98520647593","","543","
                <div class=""stimulus-container"">
                    <img src=""images/schematic_sequence/interview_scheme/interview_scheme_1.png"" class=""exp-image"">
                    <div class=""question-area"">
                        <p style=""font-size: 20px; font-weight: bold; margin: 0;"">Is there a person in this image?</p>
                    </div>
                </div>","1","main_experiment_trial","1","interview_scheme","schematic_sequence","","","","",""
"","","","","","html-keyboard-response","40","488406","0.0-40.0","5C6D437C650449C99127F6632DB717CF","019cf4da-434c-71a4-8e1b-c97962bd7389","019cf4c8-1de8-79ec-b3bd-d98520647593","","null","
                <div class=""stimulus-container"">
                    <img src=""images/schematic_sequence/interview_scheme/interview_scheme_2.png"" class=""exp-image"">
                    <div class=""question-area""></div> 
                </div>","null","","","","","","","","",""
"","","","","","html-button-response","41","489343","0.0-41.0","5C6D437C650449C99127F6632DB717CF","019cf4da-434c-71a4-8e1b-c97962bd7389","019cf4c8-1de8-79ec-b3bd-d98520647593","","936","
                <div class=""stimulus-container"">
                    <img src=""images/schematic_sequence/interview_scheme/interview_scheme_2.png"" class=""exp-image"">
                    <div class=""question-area"">
                        <p style=""font-size: 20px; font-weight: bold; margin: 0;"">Is there a person in this image?</p>
                    </div>
                </div>","1","main_experiment_trial","2","interview_scheme","schematic_sequence","","","","",""
"","","","","","html-keyboard-response","42","494358","0.0-42.0","5C6D437C650449C99127F6632DB717CF","019cf4da-434c-71a4-8e1b-c97962bd7389","019cf4c8-1de8-79ec-b3bd-d98520647593","","null","
                <div class=""stimulus-container"">
                    <img src=""images/schematic_sequence/interview_scheme/interview_scheme_3.png"" class=""exp-image"">
                    <div class=""question-area""></div> 
                </div>","null","","","","","","","","",""
"","","","","","html-button-response","43","495573","0.0-43.0","5C6D437C650449C99127F6632DB717CF","019cf4da-434c-71a4-8e1b-c97962bd7389","019cf4c8-1de8-79ec-b3bd-d98520647593","","1214","
                <div class=""stimulus-container"">
                    <img src=""images/schematic_sequence/interview_scheme/interview_scheme_3.png"" class=""exp-image"">
                    <div class=""question-area"">
                        <p style=""font-size: 20px; font-weight: bold; margin: 0;"">Is there a person in this image?</p>
                    </div>
                </div>","1","main_experiment_trial","3","interview_scheme","schematic_sequence","","","","",""
"","","","","","html-keyboard-response","44","500585","0.0-44.0","5C6D437C650449C99127F6632DB717CF","019cf4da-434c-71a4-8e1b-c97962bd7389","019cf4c8-1de8-79ec-b3bd-d98520647593","","null","
                <div class=""stimulus-container"">
                    <img src=""images/schematic_sequence/interview_scheme/interview_scheme_4.png"" class=""exp-image"">
                    <div class=""question-area""></div> 
                </div>","null","","","","","","","","",""
"","","","","","html-button-response","45","501313","0.0-45.0","5C6D437C650449C99127F6632DB717CF","019cf4da-434c-71a4-8e1b-c97962bd7389","019cf4c8-1de8-79ec-b3bd-d98520647593","","727","
                <div class=""stimulus-container"">
                    <img src=""images/schematic_sequence/interview_scheme/interview_scheme_4.png"" class=""exp-image"">
                    <div class=""question-area"">
                        <p style=""font-size: 20px; font-weight: bold; margin: 0;"">Is there a person in this image?</p>
                    </div>
                </div>","1","main_experiment_trial","4","interview_scheme","schematic_sequence","","","","",""
"","","","","","html-keyboard-response","46","506326","0.0-46.0","5C6D437C650449C99127F6632DB717CF","019cf4da-434c-71a4-8e1b-c97962bd7389","019cf4c8-1de8-79ec-b3bd-d98520647593","","null","
                <div class=""stimulus-container"">
                    <img src=""images/schematic_sequence/interview_scheme/interview_scheme_5.png"" class=""exp-image"">
                    <div class=""question-area""></div> 
                </div>","null","","","","","","","","",""
"","","","","","html-button-response","47","507935","0.0-47.0","5C6D437C650449C99127F6632DB717CF","019cf4da-434c-71a4-8e1b-c97962bd7389","019cf4c8-1de8-79ec-b3bd-d98520647593","","1608","
                <div class=""stimulus-container"">
                    <img src=""images/schematic_sequence/interview_scheme/interview_scheme_5.png"" class=""exp-image"">
                    <div class=""question-area"">
                        <p style=""font-size: 20px; font-weight: bold; margin: 0;"">Is there a person in this image?</p>
                    </div>
                </div>","0","main_experiment_trial","5","interview_scheme","schematic_sequence","","","","",""
"","","","","","html-keyboard-response","48","512938","0.0-48.0","5C6D437C650449C99127F6632DB717CF","019cf4da-434c-71a4-8e1b-c97962bd7389","019cf4c8-1de8-79ec-b3bd-d98520647593","","null","
                <div class=""stimulus-container"">
                    <img src=""images/schematic_sequence/interview_scheme/interview_scheme_6.png"" class=""exp-image"">
                    <div class=""question-area""></div> 
                </div>","null","","","","","","","","",""
"","","","","","html-button-response","49","513577","0.0-49.0","5C6D437C650449C99127F6632DB717CF","019cf4da-434c-71a4-8e1b-c97962bd7389","019cf4c8-1de8-79ec-b3bd-d98520647593","","638","
                <div class=""stimulus-container"">
                    <img src=""images/schematic_sequence/interview_scheme/interview_scheme_6.png"" class=""exp-image"">
                    <div class=""question-area"">
                        <p style=""font-size: 20px; font-weight: bold; margin: 0;"">Is there a person in this image?</p>
                    </div>
                </div>","0","main_experiment_trial","6","interview_scheme","schematic_sequence","","","","",""
"","","","","","html-keyboard-response","50","518579","0.0-50.0","5C6D437C650449C99127F6632DB717CF","019cf4da-434c-71a4-8e1b-c97962bd7389","019cf4c8-1de8-79ec-b3bd-d98520647593","","null","
                <div class=""stimulus-container"">
                    <img src=""images/schematic_sequence/interview_scheme/interview_scheme_7.png"" class=""exp-image"">
                    <div class=""question-area""></div> 
                </div>","null","","","","","","","","",""
"","","","","","html-button-response","51","519991","0.0-51.0","5C6D437C650449C99127F6632DB717CF","019cf4da-434c-71a4-8e1b-c97962bd7389","019cf4c8-1de8-79ec-b3bd-d98520647593","","1411","
                <div class=""stimulus-container"">
                    <img src=""images/schematic_sequence/interview_scheme/interview_scheme_7.png"" class=""exp-image"">
                    <div class=""question-area"">
                        <p style=""font-size: 20px; font-weight: bold; margin: 0;"">Is there a person in this image?</p>
                    </div>
                </div>","0","main_experiment_trial","7","interview_scheme","schematic_sequence","","","","",""
"","","","","","html-keyboard-response","52","525001","0.0-52.0","5C6D437C650449C99127F6632DB717CF","019cf4da-434c-71a4-8e1b-c97962bd7389","019cf4c8-1de8-79ec-b3bd-d98520647593","","null","
                <div class=""stimulus-container"">
                    <img src=""images/schematic_sequence/interview_scheme/interview_scheme_8.png"" class=""exp-image"">
                    <div class=""question-area""></div> 
                </div>","null","","","","","","","","",""
"","","","","","html-button-response","53","527819","0.0-53.0","5C6D437C650449C99127F6632DB717CF","019cf4da-434c-71a4-8e1b-c97962bd7389","019cf4c8-1de8-79ec-b3bd-d98520647593","","2816","
                <div class=""stimulus-container"">
                    <img src=""images/schematic_sequence/interview_scheme/interview_scheme_8.png"" class=""exp-image"">
                    <div class=""question-area"">
                        <p style=""font-size: 20px; font-weight: bold; margin: 0;"">Is there a person in this image?</p>
                    </div>
                </div>","0","main_experiment_trial","8","interview_scheme","schematic_sequence","","","","",""
"","","","","","html-keyboard-response","54","532831","0.0-54.0","5C6D437C650449C99127F6632DB717CF","019cf4da-434c-71a4-8e1b-c97962bd7389","019cf4c8-1de8-79ec-b3bd-d98520647593","","null","
                <div class=""stimulus-container"">
                    <img src=""images/schematic_sequence/interview_scheme/interview_scheme_9.png"" class=""exp-image"">
                    <div class=""question-area""></div> 
                </div>","null","","","","","","","","",""
"","","","","","html-button-response","55","534089","0.0-55.0","5C6D437C650449C99127F6632DB717CF","019cf4da-434c-71a4-8e1b-c97962bd7389","019cf4c8-1de8-79ec-b3bd-d98520647593","","1257","
                <div class=""stimulus-container"">
                    <img src=""images/schematic_sequence/interview_scheme/interview_scheme_9.png"" class=""exp-image"">
                    <div class=""question-area"">
                        <p style=""font-size: 20px; font-weight: bold; margin: 0;"">Is there a person in this image?</p>
                    </div>
                </div>","0","main_experiment_trial","9","interview_scheme","schematic_sequence","","","","",""
"","","","","","html-keyboard-response","56","539100","0.0-56.0","5C6D437C650449C99127F6632DB717CF","019cf4da-434c-71a4-8e1b-c97962bd7389","019cf4c8-1de8-79ec-b3bd-d98520647593","","null","
                <div class=""stimulus-container"">
                    <img src=""images/schematic_sequence/interview_scheme/interview_scheme_ten.png"" class=""exp-image"">
                    <div class=""question-area""></div> 
                </div>","null","","","","","","","","",""
"","","","","","html-button-response","57","540863","0.0-57.0","5C6D437C650449C99127F6632DB717CF","019cf4da-434c-71a4-8e1b-c97962bd7389","019cf4c8-1de8-79ec-b3bd-d98520647593","","1761","
                <div class=""stimulus-container"">
                    <img src=""images/schematic_sequence/interview_scheme/interview_scheme_ten.png"" class=""exp-image"">
                    <div class=""question-area"">
                        <p style=""font-size: 20px; font-weight: bold; margin: 0;"">Is there a person in this image?</p>
                    </div>
                </div>","0","main_experiment_trial","ten","interview_scheme","schematic_sequence","","","","",""
"","","","","","html-keyboard-response","58","541871","0.0-58.0","5C6D437C650449C99127F6632DB717CF","019cf4da-434c-71a4-8e1b-c97962bd7389","019cf4c8-1de8-79ec-b3bd-d98520647593","","null","<div style=""background-color: white; width: 100vw; height: 100vh;""></div>","null","","","","","","","","",""
"","","","","","html-keyboard-response","59","546874","0.0-59.0","5C6D437C650449C99127F6632DB717CF","019cf4da-434c-71a4-8e1b-c97962bd7389","019cf4c8-1de8-79ec-b3bd-d98520647593","","null","
                <div class=""stimulus-container"">
                    <img src=""images/causal_sequence/museum_causal/museum_causal_1.png"" class=""exp-image"">
                    <div class=""question-area""></div> 
                </div>","null","","","","","","","","",""
"","","","","","html-button-response","60","549888","0.0-60.0","5C6D437C650449C99127F6632DB717CF","019cf4da-434c-71a4-8e1b-c97962bd7389","019cf4c8-1de8-79ec-b3bd-d98520647593","","null","
                <div class=""stimulus-container"">
                    <img src=""images/causal_sequence/museum_causal/museum_causal_1.png"" class=""exp-image"">
                    <div class=""question-area"">
                        <p style=""font-size: 20px; font-weight: bold; margin: 0;"">Is there a person in this image?</p>
                    </div>
                </div>","null","main_experiment_trial","1","museum_causal","causal_sequence","","","","",""
"","","","","","html-keyboard-response","61","554899","0.0-61.0","5C6D437C650449C99127F6632DB717CF","019cf4da-434c-71a4-8e1b-c97962bd7389","019cf4c8-1de8-79ec-b3bd-d98520647593","","null","
                <div class=""stimulus-container"">
                    <img src=""images/causal_sequence/museum_causal/museum_causal_2.png"" class=""exp-image"">
                    <div class=""question-area""></div> 
                </div>","null","","","","","","","","",""
"","","","","","html-button-response","62","555801","0.0-62.0","5C6D437C650449C99127F6632DB717CF","019cf4da-434c-71a4-8e1b-c97962bd7389","019cf4c8-1de8-79ec-b3bd-d98520647593","","901","
                <div class=""stimulus-container"">
                    <img src=""images/causal_sequence/museum_causal/museum_causal_2.png"" class=""exp-image"">
                    <div class=""question-area"">
                        <p style=""font-size: 20px; font-weight: bold; margin: 0;"">Is there a person in this image?</p>
                    </div>
                </div>","0","main_experiment_trial","2","museum_causal","causal_sequence","","","","",""
"","","","","","html-keyboard-response","63","560813","0.0-63.0","5C6D437C650449C99127F6632DB717CF","019cf4da-434c-71a4-8e1b-c97962bd7389","019cf4c8-1de8-79ec-b3bd-d98520647593","","null","
                <div class=""stimulus-container"">
                    <img src=""images/causal_sequence/museum_causal/museum_causal_3.png"" class=""exp-image"">
                    <div class=""question-area""></div> 
                </div>","null","","","","","","","","",""
"","","","","","html-button-response","64","561507","0.0-64.0","5C6D437C650449C99127F6632DB717CF","019cf4da-434c-71a4-8e1b-c97962bd7389","019cf4c8-1de8-79ec-b3bd-d98520647593","","693","
                <div class=""stimulus-container"">
                    <img src=""images/causal_sequence/museum_causal/museum_causal_3.png"" class=""exp-image"">
                    <div class=""question-area"">
                        <p style=""font-size: 20px; font-weight: bold; margin: 0;"">Is there a person in this image?</p>
                    </div>
                </div>","0","main_experiment_trial","3","museum_causal","causal_sequence","","","","",""
"","","","","","html-keyboard-response","65","566509","0.0-65.0","5C6D437C650449C99127F6632DB717CF","019cf4da-434c-71a4-8e1b-c97962bd7389","019cf4c8-1de8-79ec-b3bd-d98520647593","","null","
                <div class=""stimulus-container"">
                    <img src=""images/causal_sequence/museum_causal/museum_causal_4.png"" class=""exp-image"">
                    <div class=""question-area""></div> 
                </div>","null","","","","","","","","",""
"","","","","","html-button-response","66","567535","0.0-66.0","5C6D437C650449C99127F6632DB717CF","019cf4da-434c-71a4-8e1b-c97962bd7389","019cf4c8-1de8-79ec-b3bd-d98520647593","","1025","
                <div class=""stimulus-container"">
                    <img src=""images/causal_sequence/museum_causal/museum_causal_4.png"" class=""exp-image"">
                    <div class=""question-area"">
                        <p style=""font-size: 20px; font-weight: bold; margin: 0;"">Is there a person in this image?</p>
                    </div>
                </div>","0","main_experiment_trial","4","museum_causal","causal_sequence","","","","",""
"","","","","","html-keyboard-response","67","572551","0.0-67.0","5C6D437C650449C99127F6632DB717CF","019cf4da-434c-71a4-8e1b-c97962bd7389","019cf4c8-1de8-79ec-b3bd-d98520647593","","null","
                <div class=""stimulus-container"">
                    <img src=""images/causal_sequence/museum_causal/museum_causal_5.png"" class=""exp-image"">
                    <div class=""question-area""></div> 
                </div>","null","","","","","","","","",""
"","","","","","html-button-response","68","573007","0.0-68.0","5C6D437C650449C99127F6632DB717CF","019cf4da-434c-71a4-8e1b-c97962bd7389","019cf4c8-1de8-79ec-b3bd-d98520647593","","455","
                <div class=""stimulus-container"">
                    <img src=""images/causal_sequence/museum_causal/museum_causal_5.png"" class=""exp-image"">
                    <div class=""question-area"">
                        <p style=""font-size: 20px; font-weight: bold; margin: 0;"">Is there a person in this image?</p>
                    </div>
                </div>","0","main_experiment_trial","5","museum_causal","causal_sequence","","","","",""
"","","","","","html-keyboard-response","69","578010","0.0-69.0","5C6D437C650449C99127F6632DB717CF","019cf4da-434c-71a4-8e1b-c97962bd7389","019cf4c8-1de8-79ec-b3bd-d98520647593","","null","
                <div class=""stimulus-container"">
                    <img src=""images/causal_sequence/museum_causal/museum_causal_6.png"" class=""exp-image"">
                    <div class=""question-area""></div> 
                </div>","null","","","","","","","","",""
"","","","","","html-button-response","70","578619","0.0-70.0","5C6D437C650449C99127F6632DB717CF","019cf4da-434c-71a4-8e1b-c97962bd7389","019cf4c8-1de8-79ec-b3bd-d98520647593","","608","
                <div class=""stimulus-container"">
                    <img src=""images/causal_sequence/museum_causal/museum_causal_6.png"" class=""exp-image"">
                    <div class=""question-area"">
                        <p style=""font-size: 20px; font-weight: bold; margin: 0;"">Is there a person in this image?</p>
                    </div>
                </div>","0","main_experiment_trial","6","museum_causal","causal_sequence","","","","",""
"","","","","","html-keyboard-response","71","583634","0.0-71.0","5C6D437C650449C99127F6632DB717CF","019cf4da-434c-71a4-8e1b-c97962bd7389","019cf4c8-1de8-79ec-b3bd-d98520647593","","null","
                <div class=""stimulus-container"">
                    <img src=""images/causal_sequence/museum_causal/museum_causal_7.png"" class=""exp-image"">
                    <div class=""question-area""></div> 
                </div>","null","","","","","","","","",""
"","","","","","html-button-response","72","584223","0.0-72.0","5C6D437C650449C99127F6632DB717CF","019cf4da-434c-71a4-8e1b-c97962bd7389","019cf4c8-1de8-79ec-b3bd-d98520647593","","588","
                <div class=""stimulus-container"">
                    <img src=""images/causal_sequence/museum_causal/museum_causal_7.png"" class=""exp-image"">
                    <div class=""question-area"">
                        <p style=""font-size: 20px; font-weight: bold; margin: 0;"">Is there a person in this image?</p>
                    </div>
                </div>","1","main_experiment_trial","7","museum_causal","causal_sequence","","","","",""
"","","","","","html-keyboard-response","73","589233","0.0-73.0","5C6D437C650449C99127F6632DB717CF","019cf4da-434c-71a4-8e1b-c97962bd7389","019cf4c8-1de8-79ec-b3bd-d98520647593","","null","
                <div class=""stimulus-container"">
                    <img src=""images/causal_sequence/museum_causal/museum_causal_8.png"" class=""exp-image"">
                    <div class=""question-area""></div> 
                </div>","null","","","","","","","","",""
"","","","","","html-button-response","74","589929","0.0-74.0","5C6D437C650449C99127F6632DB717CF","019cf4da-434c-71a4-8e1b-c97962bd7389","019cf4c8-1de8-79ec-b3bd-d98520647593","","695","
                <div class=""stimulus-container"">
                    <img src=""images/causal_sequence/museum_causal/museum_causal_8.png"" class=""exp-image"">
                    <div class=""question-area"">
                        <p style=""font-size: 20px; font-weight: bold; margin: 0;"">Is there a person in this image?</p>
                    </div>
                </div>","0","main_experiment_trial","8","museum_causal","causal_sequence","","","","",""
"","","","","","html-keyboard-response","75","594945","0.0-75.0","5C6D437C650449C99127F6632DB717CF","019cf4da-434c-71a4-8e1b-c97962bd7389","019cf4c8-1de8-79ec-b3bd-d98520647593","","null","
                <div class=""stimulus-container"">
                    <img src=""images/causal_sequence/museum_causal/museum_causal_9.png"" class=""exp-image"">
                    <div class=""question-area""></div> 
                </div>","null","","","","","","","","",""
"","","","","","html-button-response","76","596171","0.0-76.0","5C6D437C650449C99127F6632DB717CF","019cf4da-434c-71a4-8e1b-c97962bd7389","019cf4c8-1de8-79ec-b3bd-d98520647593","","1225","
                <div class=""stimulus-container"">
                    <img src=""images/causal_sequence/museum_causal/museum_causal_9.png"" class=""exp-image"">
                    <div class=""question-area"">
                        <p style=""font-size: 20px; font-weight: bold; margin: 0;"">Is there a person in this image?</p>
                    </div>
                </div>","1","main_experiment_trial","9","museum_causal","causal_sequence","","","","",""
"","","","","","html-keyboard-response","77","601183","0.0-77.0","5C6D437C650449C99127F6632DB717CF","019cf4da-434c-71a4-8e1b-c97962bd7389","019cf4c8-1de8-79ec-b3bd-d98520647593","","null","
                <div class=""stimulus-container"">
                    <img src=""images/causal_sequence/museum_causal/museum_causal_ten.png"" class=""exp-image"">
                    <div class=""question-area""></div> 
                </div>","null","","","","","","","","",""
"","","","","","html-button-response","78","602141","0.0-78.0","5C6D437C650449C99127F6632DB717CF","019cf4da-434c-71a4-8e1b-c97962bd7389","019cf4c8-1de8-79ec-b3bd-d98520647593","","957","
                <div class=""stimulus-container"">
                    <img src=""images/causal_sequence/museum_causal/museum_causal_ten.png"" class=""exp-image"">
                    <div class=""question-area"">
                        <p style=""font-size: 20px; font-weight: bold; margin: 0;"">Is there a person in this image?</p>
                    </div>
                </div>","0","main_experiment_trial","ten","museum_causal","causal_sequence","","","","",""
"","","","","","html-keyboard-response","79","603146","0.0-79.0","5C6D437C650449C99127F6632DB717CF","019cf4da-434c-71a4-8e1b-c97962bd7389","019cf4c8-1de8-79ec-b3bd-d98520647593","","null","<div style=""background-color: white; width: 100vw; height: 100vh;""></div>","null","","","","","","","","",""
"","","","","","html-keyboard-response","80","608161","0.0-80.0","5C6D437C650449C99127F6632DB717CF","019cf4da-434c-71a4-8e1b-c97962bd7389","019cf4c8-1de8-79ec-b3bd-d98520647593","","null","
                <div class=""stimulus-container"">
                    <img src=""images/schematic_sequence/supermarket_scheme/supermarket_scheme_1.png"" class=""exp-image"">
                    <div class=""question-area""></div> 
                </div>","null","","","","","","","","",""
"","","","","","html-button-response","81","609193","0.0-81.0","5C6D437C650449C99127F6632DB717CF","019cf4da-434c-71a4-8e1b-c97962bd7389","019cf4c8-1de8-79ec-b3bd-d98520647593","","1030","
                <div class=""stimulus-container"">
                    <img src=""images/schematic_sequence/supermarket_scheme/supermarket_scheme_1.png"" class=""exp-image"">
                    <div class=""question-area"">
                        <p style=""font-size: 20px; font-weight: bold; margin: 0;"">Is there a person in this image?</p>
                    </div>
                </div>","1","main_experiment_trial","1","supermarket_scheme","schematic_sequence","","","","",""
"","","","","","html-keyboard-response","82","614194","0.0-82.0","5C6D437C650449C99127F6632DB717CF","019cf4da-434c-71a4-8e1b-c97962bd7389","019cf4c8-1de8-79ec-b3bd-d98520647593","","null","
                <div class=""stimulus-container"">
                    <img src=""images/schematic_sequence/supermarket_scheme/supermarket_scheme_2.png"" class=""exp-image"">
                    <div class=""question-area""></div> 
                </div>","null","","","","","","","","",""
"","","","","","html-button-response","83","616527","0.0-83.0","5C6D437C650449C99127F6632DB717CF","019cf4da-434c-71a4-8e1b-c97962bd7389","019cf4c8-1de8-79ec-b3bd-d98520647593","","2331","
                <div class=""stimulus-container"">
                    <img src=""images/schematic_sequence/supermarket_scheme/supermarket_scheme_2.png"" class=""exp-image"">
                    <div class=""question-area"">
                        <p style=""font-size: 20px; font-weight: bold; margin: 0;"">Is there a person in this image?</p>
                    </div>
                </div>","1","main_experiment_trial","2","supermarket_scheme","schematic_sequence","","","","",""
"","","","","","html-keyboard-response","84","621535","0.0-84.0","5C6D437C650449C99127F6632DB717CF","019cf4da-434c-71a4-8e1b-c97962bd7389","019cf4c8-1de8-79ec-b3bd-d98520647593","","null","
                <div class=""stimulus-container"">
                    <img src=""images/schematic_sequence/supermarket_scheme/supermarket_scheme_3.png"" class=""exp-image"">
                    <div class=""question-area""></div> 
                </div>","null","","","","","","","","",""
"","","","","","html-button-response","85","622145","0.0-85.0","5C6D437C650449C99127F6632DB717CF","019cf4da-434c-71a4-8e1b-c97962bd7389","019cf4c8-1de8-79ec-b3bd-d98520647593","","609","
                <div class=""stimulus-container"">
                    <img src=""images/schematic_sequence/supermarket_scheme/supermarket_scheme_3.png"" class=""exp-image"">
                    <div class=""question-area"">
                        <p style=""font-size: 20px; font-weight: bold; margin: 0;"">Is there a person in this image?</p>
                    </div>
                </div>","1","main_experiment_trial","3","supermarket_scheme","schematic_sequence","","","","",""
"","","","","","html-keyboard-response","86","627156","0.0-86.0","5C6D437C650449C99127F6632DB717CF","019cf4da-434c-71a4-8e1b-c97962bd7389","019cf4c8-1de8-79ec-b3bd-d98520647593","","null","
                <div class=""stimulus-container"">
                    <img src=""images/schematic_sequence/supermarket_scheme/supermarket_scheme_4.png"" class=""exp-image"">
                    <div class=""question-area""></div> 
                </div>","null","","","","","","","","",""
"","","","","","html-button-response","87","627819","0.0-87.0","5C6D437C650449C99127F6632DB717CF","019cf4da-434c-71a4-8e1b-c97962bd7389","019cf4c8-1de8-79ec-b3bd-d98520647593","","661","
                <div class=""stimulus-container"">
                    <img src=""images/schematic_sequence/supermarket_scheme/supermarket_scheme_4.png"" class=""exp-image"">
                    <div class=""question-area"">
                        <p style=""font-size: 20px; font-weight: bold; margin: 0;"">Is there a person in this image?</p>
                    </div>
                </div>","0","main_experiment_trial","4","supermarket_scheme","schematic_sequence","","","","",""
"","","","","","html-keyboard-response","88","632821","0.0-88.0","5C6D437C650449C99127F6632DB717CF","019cf4da-434c-71a4-8e1b-c97962bd7389","019cf4c8-1de8-79ec-b3bd-d98520647593","","null","
                <div class=""stimulus-container"">
                    <img src=""images/schematic_sequence/supermarket_scheme/supermarket_scheme_5.png"" class=""exp-image"">
                    <div class=""question-area""></div> 
                </div>","null","","","","","","","","",""
"","","","","","html-button-response","89","633927","0.0-89.0","5C6D437C650449C99127F6632DB717CF","019cf4da-434c-71a4-8e1b-c97962bd7389","019cf4c8-1de8-79ec-b3bd-d98520647593","","1104","
                <div class=""stimulus-container"">
                    <img src=""images/schematic_sequence/supermarket_scheme/supermarket_scheme_5.png"" class=""exp-image"">
                    <div class=""question-area"">
                        <p style=""font-size: 20px; font-weight: bold; margin: 0;"">Is there a person in this image?</p>
                    </div>
                </div>","1","main_experiment_trial","5","supermarket_scheme","schematic_sequence","","","","",""
"","","","","","html-keyboard-response","90","638941","0.0-90.0","5C6D437C650449C99127F6632DB717CF","019cf4da-434c-71a4-8e1b-c97962bd7389","019cf4c8-1de8-79ec-b3bd-d98520647593","","null","
                <div class=""stimulus-container"">
                    <img src=""images/schematic_sequence/supermarket_scheme/supermarket_scheme_6.png"" class=""exp-image"">
                    <div class=""question-area""></div> 
                </div>","null","","","","","","","","",""
"","","","","","html-button-response","91","639628","0.0-91.0","5C6D437C650449C99127F6632DB717CF","019cf4da-434c-71a4-8e1b-c97962bd7389","019cf4c8-1de8-79ec-b3bd-d98520647593","","686","
                <div class=""stimulus-container"">
                    <img src=""images/schematic_sequence/supermarket_scheme/supermarket_scheme_6.png"" class=""exp-image"">
                    <div class=""question-area"">
                        <p style=""font-size: 20px; font-weight: bold; margin: 0;"">Is there a person in this image?</p>
                    </div>
                </div>","0","main_experiment_trial","6","supermarket_scheme","schematic_sequence","","","","",""
"","","","","","html-keyboard-response","92","644630","0.0-92.0","5C6D437C650449C99127F6632DB717CF","019cf4da-434c-71a4-8e1b-c97962bd7389","019cf4c8-1de8-79ec-b3bd-d98520647593","","null","
                <div class=""stimulus-container"">
                    <img src=""images/schematic_sequence/supermarket_scheme/supermarket_scheme_7.png"" class=""exp-image"">
                    <div class=""question-area""></div> 
                </div>","null","","","","","","","","",""
"","","","","","html-button-response","93","645565","0.0-93.0","5C6D437C650449C99127F6632DB717CF","019cf4da-434c-71a4-8e1b-c97962bd7389","019cf4c8-1de8-79ec-b3bd-d98520647593","","933","
                <div class=""stimulus-container"">
                    <img src=""images/schematic_sequence/supermarket_scheme/supermarket_scheme_7.png"" class=""exp-image"">
                    <div class=""question-area"">
                        <p style=""font-size: 20px; font-weight: bold; margin: 0;"">Is there a person in this image?</p>
                    </div>
                </div>","0","main_experiment_trial","7","supermarket_scheme","schematic_sequence","","","","",""
"","","","","","html-keyboard-response","94","650571","0.0-94.0","5C6D437C650449C99127F6632DB717CF","019cf4da-434c-71a4-8e1b-c97962bd7389","019cf4c8-1de8-79ec-b3bd-d98520647593","","null","
                <div class=""stimulus-container"">
                    <img src=""images/schematic_sequence/supermarket_scheme/supermarket_scheme_8.png"" class=""exp-image"">
                    <div class=""question-area""></div> 
                </div>","null","","","","","","","","",""
"","","","","","html-button-response","95","651448","0.0-95.0","5C6D437C650449C99127F6632DB717CF","019cf4da-434c-71a4-8e1b-c97962bd7389","019cf4c8-1de8-79ec-b3bd-d98520647593","","877","
                <div class=""stimulus-container"">
                    <img src=""images/schematic_sequence/supermarket_scheme/supermarket_scheme_8.png"" class=""exp-image"">
                    <div class=""question-area"">
                        <p style=""font-size: 20px; font-weight: bold; margin: 0;"">Is there a person in this image?</p>
                    </div>
                </div>","0","main_experiment_trial","8","supermarket_scheme","schematic_sequence","","","","",""
"","","","","","html-keyboard-response","96","656454","0.0-96.0","5C6D437C650449C99127F6632DB717CF","019cf4da-434c-71a4-8e1b-c97962bd7389","019cf4c8-1de8-79ec-b3bd-d98520647593","","null","
                <div class=""stimulus-container"">
                    <img src=""images/schematic_sequence/supermarket_scheme/supermarket_scheme_9.png"" class=""exp-image"">
                    <div class=""question-area""></div> 
                </div>","null","","","","","","","","",""
"","","","","","html-button-response","97","657366","0.0-97.0","5C6D437C650449C99127F6632DB717CF","019cf4da-434c-71a4-8e1b-c97962bd7389","019cf4c8-1de8-79ec-b3bd-d98520647593","","912","
                <div class=""stimulus-container"">
                    <img src=""images/schematic_sequence/supermarket_scheme/supermarket_scheme_9.png"" class=""exp-image"">
                    <div class=""question-area"">
                        <p style=""font-size: 20px; font-weight: bold; margin: 0;"">Is there a person in this image?</p>
                    </div>
                </div>","0","main_experiment_trial","9","supermarket_scheme","schematic_sequence","","","","",""
"","","","","","html-keyboard-response","98","662370","0.0-98.0","5C6D437C650449C99127F6632DB717CF","019cf4da-434c-71a4-8e1b-c97962bd7389","019cf4c8-1de8-79ec-b3bd-d98520647593","","null","
                <div class=""stimulus-container"">
                    <img src=""images/schematic_sequence/supermarket_scheme/supermarket_scheme_ten.png"" class=""exp-image"">
                    <div class=""question-area""></div> 
                </div>","null","","","","","","","","",""
"","","","","","html-button-response","99","663853","0.0-99.0","5C6D437C650449C99127F6632DB717CF","019cf4da-434c-71a4-8e1b-c97962bd7389","019cf4c8-1de8-79ec-b3bd-d98520647593","","1482","
                <div class=""stimulus-container"">
                    <img src=""images/schematic_sequence/supermarket_scheme/supermarket_scheme_ten.png"" class=""exp-image"">
                    <div class=""question-area"">
                        <p style=""font-size: 20px; font-weight: bold; margin: 0;"">Is there a person in this image?</p>
                    </div>
                </div>","1","main_experiment_trial","ten","supermarket_scheme","schematic_sequence","","","","",""
"","","","","","html-keyboard-response","100","664857","0.0-100.0","5C6D437C650449C99127F6632DB717CF","019cf4da-434c-71a4-8e1b-c97962bd7389","019cf4c8-1de8-79ec-b3bd-d98520647593","","null","<div style=""background-color: white; width: 100vw; height: 100vh;""></div>","null","","","","","","","","",""
"","","","","","html-keyboard-response","101","669870","0.0-101.0","5C6D437C650449C99127F6632DB717CF","019cf4da-434c-71a4-8e1b-c97962bd7389","019cf4c8-1de8-79ec-b3bd-d98520647593","","null","
                <div class=""stimulus-container"">
                    <img src=""images/schematic_sequence/hotel_scheme/hotel_scheme_1.png"" class=""exp-image"">
                    <div class=""question-area""></div> 
                </div>","null","","","","","","","","",""
"","","","","","html-button-response","102","671526","0.0-102.0","5C6D437C650449C99127F6632DB717CF","019cf4da-434c-71a4-8e1b-c97962bd7389","019cf4c8-1de8-79ec-b3bd-d98520647593","","1656","
                <div class=""stimulus-container"">
                    <img src=""images/schematic_sequence/hotel_scheme/hotel_scheme_1.png"" class=""exp-image"">
                    <div class=""question-area"">
                        <p style=""font-size: 20px; font-weight: bold; margin: 0;"">Is there a person in this image?</p>
                    </div>
                </div>","1","main_experiment_trial","1","hotel_scheme","schematic_sequence","","","","",""
"","","","","","html-keyboard-response","103","676532","0.0-103.0","5C6D437C650449C99127F6632DB717CF","019cf4da-434c-71a4-8e1b-c97962bd7389","019cf4c8-1de8-79ec-b3bd-d98520647593","","null","
                <div class=""stimulus-container"">
                    <img src=""images/schematic_sequence/hotel_scheme/hotel_scheme_2.png"" class=""exp-image"">
                    <div class=""question-area""></div> 
                </div>","null","","","","","","","","",""
"","","","","","html-button-response","104","677143","0.0-104.0","5C6D437C650449C99127F6632DB717CF","019cf4da-434c-71a4-8e1b-c97962bd7389","019cf4c8-1de8-79ec-b3bd-d98520647593","","609","
                <div class=""stimulus-container"">
                    <img src=""images/schematic_sequence/hotel_scheme/hotel_scheme_2.png"" class=""exp-image"">
                    <div class=""question-area"">
                        <p style=""font-size: 20px; font-weight: bold; margin: 0;"">Is there a person in this image?</p>
                    </div>
                </div>","0","main_experiment_trial","2","hotel_scheme","schematic_sequence","","","","",""
"","","","","","html-keyboard-response","105","682158","0.0-105.0","5C6D437C650449C99127F6632DB717CF","019cf4da-434c-71a4-8e1b-c97962bd7389","019cf4c8-1de8-79ec-b3bd-d98520647593","","null","
                <div class=""stimulus-container"">
                    <img src=""images/schematic_sequence/hotel_scheme/hotel_scheme_3.png"" class=""exp-image"">
                    <div class=""question-area""></div> 
                </div>","null","","","","","","","","",""
"","","","","","html-button-response","106","683305","0.0-106.0","5C6D437C650449C99127F6632DB717CF","019cf4da-434c-71a4-8e1b-c97962bd7389","019cf4c8-1de8-79ec-b3bd-d98520647593","","1145","
                <div class=""stimulus-container"">
                    <img src=""images/schematic_sequence/hotel_scheme/hotel_scheme_3.png"" class=""exp-image"">
                    <div class=""question-area"">
                        <p style=""font-size: 20px; font-weight: bold; margin: 0;"">Is there a person in this image?</p>
                    </div>
                </div>","0","main_experiment_trial","3","hotel_scheme","schematic_sequence","","","","",""
"","","","","","html-keyboard-response","107","688308","0.0-107.0","5C6D437C650449C99127F6632DB717CF","019cf4da-434c-71a4-8e1b-c97962bd7389","019cf4c8-1de8-79ec-b3bd-d98520647593","","null","
                <div class=""stimulus-container"">
                    <img src=""images/schematic_sequence/hotel_scheme/hotel_scheme_4.png"" class=""exp-image"">
                    <div class=""question-area""></div> 
                </div>","null","","","","","","","","",""
"","","","","","html-button-response","108","689029","0.0-108.0","5C6D437C650449C99127F6632DB717CF","019cf4da-434c-71a4-8e1b-c97962bd7389","019cf4c8-1de8-79ec-b3bd-d98520647593","","720","
                <div class=""stimulus-container"">
                    <img src=""images/schematic_sequence/hotel_scheme/hotel_scheme_4.png"" class=""exp-image"">
                    <div class=""question-area"">
                        <p style=""font-size: 20px; font-weight: bold; margin: 0;"">Is there a person in this image?</p>
                    </div>
                </div>","1","main_experiment_trial","4","hotel_scheme","schematic_sequence","","","","",""
"","","","","","html-keyboard-response","109","694029","0.0-109.0","5C6D437C650449C99127F6632DB717CF","019cf4da-434c-71a4-8e1b-c97962bd7389","019cf4c8-1de8-79ec-b3bd-d98520647593","","null","
                <div class=""stimulus-container"">
                    <img src=""images/schematic_sequence/hotel_scheme/hotel_scheme_5.png"" class=""exp-image"">
                    <div class=""question-area""></div> 
                </div>","null","","","","","","","","",""
"","","","","","html-button-response","110","695294","0.0-110.0","5C6D437C650449C99127F6632DB717CF","019cf4da-434c-71a4-8e1b-c97962bd7389","019cf4c8-1de8-79ec-b3bd-d98520647593","","1264","
                <div class=""stimulus-container"">
                    <img src=""images/schematic_sequence/hotel_scheme/hotel_scheme_5.png"" class=""exp-image"">
                    <div class=""question-area"">
                        <p style=""font-size: 20px; font-weight: bold; margin: 0;"">Is there a person in this image?</p>
                    </div>
                </div>","0","main_experiment_trial","5","hotel_scheme","schematic_sequence","","","","",""
"","","","","","html-keyboard-response","111","700296","0.0-111.0","5C6D437C650449C99127F6632DB717CF","019cf4da-434c-71a4-8e1b-c97962bd7389","019cf4c8-1de8-79ec-b3bd-d98520647593","","null","
                <div class=""stimulus-container"">
                    <img src=""images/schematic_sequence/hotel_scheme/hotel_scheme_6.png"" class=""exp-image"">
                    <div class=""question-area""></div> 
                </div>","null","","","","","","","","",""
"","","","","","html-button-response","112","702096","0.0-112.0","5C6D437C650449C99127F6632DB717CF","019cf4da-434c-71a4-8e1b-c97962bd7389","019cf4c8-1de8-79ec-b3bd-d98520647593","","1799","
                <div class=""stimulus-container"">
                    <img src=""images/schematic_sequence/hotel_scheme/hotel_scheme_6.png"" class=""exp-image"">
                    <div class=""question-area"">
                        <p style=""font-size: 20px; font-weight: bold; margin: 0;"">Is there a person in this image?</p>
                    </div>
                </div>","0","main_experiment_trial","6","hotel_scheme","schematic_sequence","","","","",""
"","","","","","html-keyboard-response","113","707104","0.0-113.0","5C6D437C650449C99127F6632DB717CF","019cf4da-434c-71a4-8e1b-c97962bd7389","019cf4c8-1de8-79ec-b3bd-d98520647593","","null","
                <div class=""stimulus-container"">
                    <img src=""images/schematic_sequence/hotel_scheme/hotel_scheme_7.png"" class=""exp-image"">
                    <div class=""question-area""></div> 
                </div>","null","","","","","","","","",""
"","","","","","html-button-response","114","709859","0.0-114.0","5C6D437C650449C99127F6632DB717CF","019cf4da-434c-71a4-8e1b-c97962bd7389","019cf4c8-1de8-79ec-b3bd-d98520647593","","2753","
                <div class=""stimulus-container"">
                    <img src=""images/schematic_sequence/hotel_scheme/hotel_scheme_7.png"" class=""exp-image"">
                    <div class=""question-area"">
                        <p style=""font-size: 20px; font-weight: bold; margin: 0;"">Is there a person in this image?</p>
                    </div>
                </div>","0","main_experiment_trial","7","hotel_scheme","schematic_sequence","","","","",""
"","","","","","html-keyboard-response","115","714867","0.0-115.0","5C6D437C650449C99127F6632DB717CF","019cf4da-434c-71a4-8e1b-c97962bd7389","019cf4c8-1de8-79ec-b3bd-d98520647593","","null","
                <div class=""stimulus-container"">
                    <img src=""images/schematic_sequence/hotel_scheme/hotel_scheme_8.png"" class=""exp-image"">
                    <div class=""question-area""></div> 
                </div>","null","","","","","","","","",""
"","","","","","html-button-response","116","716194","0.0-116.0","5C6D437C650449C99127F6632DB717CF","019cf4da-434c-71a4-8e1b-c97962bd7389","019cf4c8-1de8-79ec-b3bd-d98520647593","","1327","
                <div class=""stimulus-container"">
                    <img src=""images/schematic_sequence/hotel_scheme/hotel_scheme_8.png"" class=""exp-image"">
                    <div class=""question-area"">
                        <p style=""font-size: 20px; font-weight: bold; margin: 0;"">Is there a person in this image?</p>
                    </div>
                </div>","0","main_experiment_trial","8","hotel_scheme","schematic_sequence","","","","",""
"","","","","","html-keyboard-response","117","721205","0.0-117.0","5C6D437C650449C99127F6632DB717CF","019cf4da-434c-71a4-8e1b-c97962bd7389","019cf4c8-1de8-79ec-b3bd-d98520647593","","null","
                <div class=""stimulus-container"">
                    <img src=""images/schematic_sequence/hotel_scheme/hotel_scheme_9.png"" class=""exp-image"">
                    <div class=""question-area""></div> 
                </div>","null","","","","","","","","",""
"","","","","","html-button-response","118","723192","0.0-118.0","5C6D437C650449C99127F6632DB717CF","019cf4da-434c-71a4-8e1b-c97962bd7389","019cf4c8-1de8-79ec-b3bd-d98520647593","","1986","
                <div class=""stimulus-container"">
                    <img src=""images/schematic_sequence/hotel_scheme/hotel_scheme_9.png"" class=""exp-image"">
                    <div class=""question-area"">
                        <p style=""font-size: 20px; font-weight: bold; margin: 0;"">Is there a person in this image?</p>
                    </div>
                </div>","0","main_experiment_trial","9","hotel_scheme","schematic_sequence","","","","",""
"","","","","","html-keyboard-response","119","728202","0.0-119.0","5C6D437C650449C99127F6632DB717CF","019cf4da-434c-71a4-8e1b-c97962bd7389","019cf4c8-1de8-79ec-b3bd-d98520647593","","null","
                <div class=""stimulus-container"">
                    <img src=""images/schematic_sequence/hotel_scheme/hotel_scheme_ten.png"" class=""exp-image"">
                    <div class=""question-area""></div> 
                </div>","null","","","","","","","","",""
"","","","","","html-button-response","120","729118","0.0-120.0","5C6D437C650449C99127F6632DB717CF","019cf4da-434c-71a4-8e1b-c97962bd7389","019cf4c8-1de8-79ec-b3bd-d98520647593","","916","
                <div class=""stimulus-container"">
                    <img src=""images/schematic_sequence/hotel_scheme/hotel_scheme_ten.png"" class=""exp-image"">
                    <div class=""question-area"">
                        <p style=""font-size: 20px; font-weight: bold; margin: 0;"">Is there a person in this image?</p>
                    </div>
                </div>","0","main_experiment_trial","ten","hotel_scheme","schematic_sequence","","","","",""
"","","","","","html-keyboard-response","121","730120","0.0-121.0","5C6D437C650449C99127F6632DB717CF","019cf4da-434c-71a4-8e1b-c97962bd7389","019cf4c8-1de8-79ec-b3bd-d98520647593","","null","<div style=""background-color: white; width: 100vw; height: 100vh;""></div>","null","","","","","","","","",""
"","","","","","html-keyboard-response","122","735131","0.0-122.0","5C6D437C650449C99127F6632DB717CF","019cf4da-434c-71a4-8e1b-c97962bd7389","019cf4c8-1de8-79ec-b3bd-d98520647593","","null","
                <div class=""stimulus-container"">
                    <img src=""images/causal_sequence/coin_causal/coin_causal_1.png"" class=""exp-image"">
                    <div class=""question-area""></div> 
                </div>","null","","","","","","","","",""
"","","","","","html-button-response","123","735799","0.0-123.0","5C6D437C650449C99127F6632DB717CF","019cf4da-434c-71a4-8e1b-c97962bd7389","019cf4c8-1de8-79ec-b3bd-d98520647593","","667","
                <div class=""stimulus-container"">
                    <img src=""images/causal_sequence/coin_causal/coin_causal_1.png"" class=""exp-image"">
                    <div class=""question-area"">
                        <p style=""font-size: 20px; font-weight: bold; margin: 0;"">Is there a person in this image?</p>
                    </div>
                </div>","0","main_experiment_trial","1","coin_causal","causal_sequence","","","","",""
"","","","","","html-keyboard-response","124","740811","0.0-124.0","5C6D437C650449C99127F6632DB717CF","019cf4da-434c-71a4-8e1b-c97962bd7389","019cf4c8-1de8-79ec-b3bd-d98520647593","","null","
                <div class=""stimulus-container"">
                    <img src=""images/causal_sequence/coin_causal/coin_causal_2.png"" class=""exp-image"">
                    <div class=""question-area""></div> 
                </div>","null","","","","","","","","",""
"","","","","","html-button-response","125","741234","0.0-125.0","5C6D437C650449C99127F6632DB717CF","019cf4da-434c-71a4-8e1b-c97962bd7389","019cf4c8-1de8-79ec-b3bd-d98520647593","","423","
                <div class=""stimulus-container"">
                    <img src=""images/causal_sequence/coin_causal/coin_causal_2.png"" class=""exp-image"">
                    <div class=""question-area"">
                        <p style=""font-size: 20px; font-weight: bold; margin: 0;"">Is there a person in this image?</p>
                    </div>
                </div>","0","main_experiment_trial","2","coin_causal","causal_sequence","","","","",""
"","","","","","html-keyboard-response","126","746242","0.0-126.0","5C6D437C650449C99127F6632DB717CF","019cf4da-434c-71a4-8e1b-c97962bd7389","019cf4c8-1de8-79ec-b3bd-d98520647593","","null","
                <div class=""stimulus-container"">
                    <img src=""images/causal_sequence/coin_causal/coin_causal_3.png"" class=""exp-image"">
                    <div class=""question-area""></div> 
                </div>","null","","","","","","","","",""
"","","","","","html-button-response","127","746680","0.0-127.0","5C6D437C650449C99127F6632DB717CF","019cf4da-434c-71a4-8e1b-c97962bd7389","019cf4c8-1de8-79ec-b3bd-d98520647593","","437","
                <div class=""stimulus-container"">
                    <img src=""images/causal_sequence/coin_causal/coin_causal_3.png"" class=""exp-image"">
                    <div class=""question-area"">
                        <p style=""font-size: 20px; font-weight: bold; margin: 0;"">Is there a person in this image?</p>
                    </div>
                </div>","0","main_experiment_trial","3","coin_causal","causal_sequence","","","","",""
"","","","","","html-keyboard-response","128","751689","0.0-128.0","5C6D437C650449C99127F6632DB717CF","019cf4da-434c-71a4-8e1b-c97962bd7389","019cf4c8-1de8-79ec-b3bd-d98520647593","","null","
                <div class=""stimulus-container"">
                    <img src=""images/causal_sequence/coin_causal/coin_causal_4.png"" class=""exp-image"">
                    <div class=""question-area""></div> 
                </div>","null","","","","","","","","",""
"","","","","","html-button-response","129","753164","0.0-129.0","5C6D437C650449C99127F6632DB717CF","019cf4da-434c-71a4-8e1b-c97962bd7389","019cf4c8-1de8-79ec-b3bd-d98520647593","","1475","
                <div class=""stimulus-container"">
                    <img src=""images/causal_sequence/coin_causal/coin_causal_4.png"" class=""exp-image"">
                    <div class=""question-area"">
                        <p style=""font-size: 20px; font-weight: bold; margin: 0;"">Is there a person in this image?</p>
                    </div>
                </div>","0","main_experiment_trial","4","coin_causal","causal_sequence","","","","",""
"","","","","","html-keyboard-response","130","758181","0.0-130.0","5C6D437C650449C99127F6632DB717CF","019cf4da-434c-71a4-8e1b-c97962bd7389","019cf4c8-1de8-79ec-b3bd-d98520647593","","null","
                <div class=""stimulus-container"">
                    <img src=""images/causal_sequence/coin_causal/coin_causal_5.png"" class=""exp-image"">
                    <div class=""question-area""></div> 
                </div>","null","","","","","","","","",""
"","","","","","html-button-response","131","759130","0.0-131.0","5C6D437C650449C99127F6632DB717CF","019cf4da-434c-71a4-8e1b-c97962bd7389","019cf4c8-1de8-79ec-b3bd-d98520647593","","949","
                <div class=""stimulus-container"">
                    <img src=""images/causal_sequence/coin_causal/coin_causal_5.png"" class=""exp-image"">
                    <div class=""question-area"">
                        <p style=""font-size: 20px; font-weight: bold; margin: 0;"">Is there a person in this image?</p>
                    </div>
                </div>","0","main_experiment_trial","5","coin_causal","causal_sequence","","","","",""
"","","","","","html-keyboard-response","132","764137","0.0-132.0","5C6D437C650449C99127F6632DB717CF","019cf4da-434c-71a4-8e1b-c97962bd7389","019cf4c8-1de8-79ec-b3bd-d98520647593","","null","
                <div class=""stimulus-container"">
                    <img src=""images/causal_sequence/coin_causal/coin_causal_6.png"" class=""exp-image"">
                    <div class=""question-area""></div> 
                </div>","null","","","","","","","","",""
"","","","","","html-button-response","133","765232","0.0-133.0","5C6D437C650449C99127F6632DB717CF","019cf4da-434c-71a4-8e1b-c97962bd7389","019cf4c8-1de8-79ec-b3bd-d98520647593","","1094","
                <div class=""stimulus-container"">
                    <img src=""images/causal_sequence/coin_causal/coin_causal_6.png"" class=""exp-image"">
                    <div class=""question-area"">
                        <p style=""font-size: 20px; font-weight: bold; margin: 0;"">Is there a person in this image?</p>
                    </div>
                </div>","0","main_experiment_trial","6","coin_causal","causal_sequence","","","","",""
"","","","","","html-keyboard-response","134","770240","0.0-134.0","5C6D437C650449C99127F6632DB717CF","019cf4da-434c-71a4-8e1b-c97962bd7389","019cf4c8-1de8-79ec-b3bd-d98520647593","","null","
                <div class=""stimulus-container"">
                    <img src=""images/causal_sequence/coin_causal/coin_causal_7.png"" class=""exp-image"">
                    <div class=""question-area""></div> 
                </div>","null","","","","","","","","",""
"","","","","","html-button-response","135","773250","0.0-135.0","5C6D437C650449C99127F6632DB717CF","019cf4da-434c-71a4-8e1b-c97962bd7389","019cf4c8-1de8-79ec-b3bd-d98520647593","","null","
                <div class=""stimulus-container"">
                    <img src=""images/causal_sequence/coin_causal/coin_causal_7.png"" class=""exp-image"">
                    <div class=""question-area"">
                        <p style=""font-size: 20px; font-weight: bold; margin: 0;"">Is there a person in this image?</p>
                    </div>
                </div>","null","main_experiment_trial","7","coin_causal","causal_sequence","","","","",""
"","","","","","html-keyboard-response","136","778262","0.0-136.0","5C6D437C650449C99127F6632DB717CF","019cf4da-434c-71a4-8e1b-c97962bd7389","019cf4c8-1de8-79ec-b3bd-d98520647593","","null","
                <div class=""stimulus-container"">
                    <img src=""images/causal_sequence/coin_causal/coin_causal_8.png"" class=""exp-image"">
                    <div class=""question-area""></div> 
                </div>","null","","","","","","","","",""
"","","","","","html-button-response","137","778876","0.0-137.0","5C6D437C650449C99127F6632DB717CF","019cf4da-434c-71a4-8e1b-c97962bd7389","019cf4c8-1de8-79ec-b3bd-d98520647593","","613","
                <div class=""stimulus-container"">
                    <img src=""images/causal_sequence/coin_causal/coin_causal_8.png"" class=""exp-image"">
                    <div class=""question-area"">
                        <p style=""font-size: 20px; font-weight: bold; margin: 0;"">Is there a person in this image?</p>
                    </div>
                </div>","0","main_experiment_trial","8","coin_causal","causal_sequence","","","","",""
"","","","","","html-keyboard-response","138","783891","0.0-138.0","5C6D437C650449C99127F6632DB717CF","019cf4da-434c-71a4-8e1b-c97962bd7389","019cf4c8-1de8-79ec-b3bd-d98520647593","","null","
                <div class=""stimulus-container"">
                    <img src=""images/causal_sequence/coin_causal/coin_causal_9.png"" class=""exp-image"">
                    <div class=""question-area""></div> 
                </div>","null","","","","","","","","",""
"","","","","","html-button-response","139","786310","0.0-139.0","5C6D437C650449C99127F6632DB717CF","019cf4da-434c-71a4-8e1b-c97962bd7389","019cf4c8-1de8-79ec-b3bd-d98520647593","","2418","
                <div class=""stimulus-container"">
                    <img src=""images/causal_sequence/coin_causal/coin_causal_9.png"" class=""exp-image"">
                    <div class=""question-area"">
                        <p style=""font-size: 20px; font-weight: bold; margin: 0;"">Is there a person in this image?</p>
                    </div>
                </div>","0","main_experiment_trial","9","coin_causal","causal_sequence","","","","",""
"","","","","","html-keyboard-response","140","791326","0.0-140.0","5C6D437C650449C99127F6632DB717CF","019cf4da-434c-71a4-8e1b-c97962bd7389","019cf4c8-1de8-79ec-b3bd-d98520647593","","null","
                <div class=""stimulus-container"">
                    <img src=""images/causal_sequence/coin_causal/coin_causal_ten.png"" class=""exp-image"">
                    <div class=""question-area""></div> 
                </div>","null","","","","","","","","",""
"","","","","","html-button-response","141","792900","0.0-141.0","5C6D437C650449C99127F6632DB717CF","019cf4da-434c-71a4-8e1b-c97962bd7389","019cf4c8-1de8-79ec-b3bd-d98520647593","","1573","
                <div class=""stimulus-container"">
                    <img src=""images/causal_sequence/coin_causal/coin_causal_ten.png"" class=""exp-image"">
                    <div class=""question-area"">
                        <p style=""font-size: 20px; font-weight: bold; margin: 0;"">Is there a person in this image?</p>
                    </div>
                </div>","0","main_experiment_trial","ten","coin_causal","causal_sequence","","","","",""
"","","","","","html-keyboard-response","142","793907","0.0-142.0","5C6D437C650449C99127F6632DB717CF","019cf4da-434c-71a4-8e1b-c97962bd7389","019cf4c8-1de8-79ec-b3bd-d98520647593","","null","<div style=""background-color: white; width: 100vw; height: 100vh;""></div>","null","","","","","","","","",""
"","","","","","html-keyboard-response","143","798913","0.0-143.0","5C6D437C650449C99127F6632DB717CF","019cf4da-434c-71a4-8e1b-c97962bd7389","019cf4c8-1de8-79ec-b3bd-d98520647593","","null","
                <div class=""stimulus-container"">
                    <img src=""images/schematic_sequence/dinner_party_scheme/dinner_party_scheme_1.png"" class=""exp-image"">
                    <div class=""question-area""></div> 
                </div>","null","","","","","","","","",""
"","","","","","html-button-response","144","801080","0.0-144.0","5C6D437C650449C99127F6632DB717CF","019cf4da-434c-71a4-8e1b-c97962bd7389","019cf4c8-1de8-79ec-b3bd-d98520647593","","2167","
                <div class=""stimulus-container"">
                    <img src=""images/schematic_sequence/dinner_party_scheme/dinner_party_scheme_1.png"" class=""exp-image"">
                    <div class=""question-area"">
                        <p style=""font-size: 20px; font-weight: bold; margin: 0;"">Is there a person in this image?</p>
                    </div>
                </div>","0","main_experiment_trial","1","dinner_party_scheme","schematic_sequence","","","","",""
"","","","","","html-keyboard-response","145","806093","0.0-145.0","5C6D437C650449C99127F6632DB717CF","019cf4da-434c-71a4-8e1b-c97962bd7389","019cf4c8-1de8-79ec-b3bd-d98520647593","","null","
                <div class=""stimulus-container"">
                    <img src=""images/schematic_sequence/dinner_party_scheme/dinner_party_scheme_2.png"" class=""exp-image"">
                    <div class=""question-area""></div> 
                </div>","null","","","","","","","","",""
"","","","","","html-button-response","146","806528","0.0-146.0","5C6D437C650449C99127F6632DB717CF","019cf4da-434c-71a4-8e1b-c97962bd7389","019cf4c8-1de8-79ec-b3bd-d98520647593","","434","
                <div class=""stimulus-container"">
                    <img src=""images/schematic_sequence/dinner_party_scheme/dinner_party_scheme_2.png"" class=""exp-image"">
                    <div class=""question-area"">
                        <p style=""font-size: 20px; font-weight: bold; margin: 0;"">Is there a person in this image?</p>
                    </div>
                </div>","1","main_experiment_trial","2","dinner_party_scheme","schematic_sequence","","","","",""
"","","","","","html-keyboard-response","147","811544","0.0-147.0","5C6D437C650449C99127F6632DB717CF","019cf4da-434c-71a4-8e1b-c97962bd7389","019cf4c8-1de8-79ec-b3bd-d98520647593","","null","
                <div class=""stimulus-container"">
                    <img src=""images/schematic_sequence/dinner_party_scheme/dinner_party_scheme_3.png"" class=""exp-image"">
                    <div class=""question-area""></div> 
                </div>","null","","","","","","","","",""
"","","","","","html-button-response","148","812608","0.0-148.0","5C6D437C650449C99127F6632DB717CF","019cf4da-434c-71a4-8e1b-c97962bd7389","019cf4c8-1de8-79ec-b3bd-d98520647593","","1063","
                <div class=""stimulus-container"">
                    <img src=""images/schematic_sequence/dinner_party_scheme/dinner_party_scheme_3.png"" class=""exp-image"">
                    <div class=""question-area"">
                        <p style=""font-size: 20px; font-weight: bold; margin: 0;"">Is there a person in this image?</p>
                    </div>
                </div>","0","main_experiment_trial","3","dinner_party_scheme","schematic_sequence","","","","",""
"","","","","","html-keyboard-response","149","817617","0.0-149.0","5C6D437C650449C99127F6632DB717CF","019cf4da-434c-71a4-8e1b-c97962bd7389","019cf4c8-1de8-79ec-b3bd-d98520647593","","null","
                <div class=""stimulus-container"">
                    <img src=""images/schematic_sequence/dinner_party_scheme/dinner_party_scheme_4.png"" class=""exp-image"">
                    <div class=""question-area""></div> 
                </div>","null","","","","","","","","",""
"","","","","","html-button-response","150","818828","0.0-150.0","5C6D437C650449C99127F6632DB717CF","019cf4da-434c-71a4-8e1b-c97962bd7389","019cf4c8-1de8-79ec-b3bd-d98520647593","","1210","
                <div class=""stimulus-container"">
                    <img src=""images/schematic_sequence/dinner_party_scheme/dinner_party_scheme_4.png"" class=""exp-image"">
                    <div class=""question-area"">
                        <p style=""font-size: 20px; font-weight: bold; margin: 0;"">Is there a person in this image?</p>
                    </div>
                </div>","0","main_experiment_trial","4","dinner_party_scheme","schematic_sequence","","","","",""
"","","","","","html-keyboard-response","151","823834","0.0-151.0","5C6D437C650449C99127F6632DB717CF","019cf4da-434c-71a4-8e1b-c97962bd7389","019cf4c8-1de8-79ec-b3bd-d98520647593","","null","
                <div class=""stimulus-container"">
                    <img src=""images/schematic_sequence/dinner_party_scheme/dinner_party_scheme_5.png"" class=""exp-image"">
                    <div class=""question-area""></div> 
                </div>","null","","","","","","","","",""
"","","","","","html-button-response","152","826550","0.0-152.0","5C6D437C650449C99127F6632DB717CF","019cf4da-434c-71a4-8e1b-c97962bd7389","019cf4c8-1de8-79ec-b3bd-d98520647593","","2715","
                <div class=""stimulus-container"">
                    <img src=""images/schematic_sequence/dinner_party_scheme/dinner_party_scheme_5.png"" class=""exp-image"">
                    <div class=""question-area"">
                        <p style=""font-size: 20px; font-weight: bold; margin: 0;"">Is there a person in this image?</p>
                    </div>
                </div>","0","main_experiment_trial","5","dinner_party_scheme","schematic_sequence","","","","",""
"","","","","","html-keyboard-response","153","831561","0.0-153.0","5C6D437C650449C99127F6632DB717CF","019cf4da-434c-71a4-8e1b-c97962bd7389","019cf4c8-1de8-79ec-b3bd-d98520647593","","null","
                <div class=""stimulus-container"">
                    <img src=""images/schematic_sequence/dinner_party_scheme/dinner_party_scheme_6.png"" class=""exp-image"">
                    <div class=""question-area""></div> 
                </div>","null","","","","","","","","",""
"","","","","","html-button-response","154","833162","0.0-154.0","5C6D437C650449C99127F6632DB717CF","019cf4da-434c-71a4-8e1b-c97962bd7389","019cf4c8-1de8-79ec-b3bd-d98520647593","","1600","
                <div class=""stimulus-container"">
                    <img src=""images/schematic_sequence/dinner_party_scheme/dinner_party_scheme_6.png"" class=""exp-image"">
                    <div class=""question-area"">
                        <p style=""font-size: 20px; font-weight: bold; margin: 0;"">Is there a person in this image?</p>
                    </div>
                </div>","0","main_experiment_trial","6","dinner_party_scheme","schematic_sequence","","","","",""
"","","","","","html-keyboard-response","155","838173","0.0-155.0","5C6D437C650449C99127F6632DB717CF","019cf4da-434c-71a4-8e1b-c97962bd7389","019cf4c8-1de8-79ec-b3bd-d98520647593","","null","
                <div class=""stimulus-container"">
                    <img src=""images/schematic_sequence/dinner_party_scheme/dinner_party_scheme_7.png"" class=""exp-image"">
                    <div class=""question-area""></div> 
                </div>","null","","","","","","","","",""
"","","","","","html-button-response","156","839986","0.0-156.0","5C6D437C650449C99127F6632DB717CF","019cf4da-434c-71a4-8e1b-c97962bd7389","019cf4c8-1de8-79ec-b3bd-d98520647593","","1812","
                <div class=""stimulus-container"">
                    <img src=""images/schematic_sequence/dinner_party_scheme/dinner_party_scheme_7.png"" class=""exp-image"">
                    <div class=""question-area"">
                        <p style=""font-size: 20px; font-weight: bold; margin: 0;"">Is there a person in this image?</p>
                    </div>
                </div>","0","main_experiment_trial","7","dinner_party_scheme","schematic_sequence","","","","",""
"","","","","","html-keyboard-response","157","844989","0.0-157.0","5C6D437C650449C99127F6632DB717CF","019cf4da-434c-71a4-8e1b-c97962bd7389","019cf4c8-1de8-79ec-b3bd-d98520647593","","null","
                <div class=""stimulus-container"">
                    <img src=""images/schematic_sequence/dinner_party_scheme/dinner_party_scheme_8.png"" class=""exp-image"">
                    <div class=""question-area""></div> 
                </div>","null","","","","","","","","",""
"","","","","","html-button-response","158","848000","0.0-158.0","5C6D437C650449C99127F6632DB717CF","019cf4da-434c-71a4-8e1b-c97962bd7389","019cf4c8-1de8-79ec-b3bd-d98520647593","","null","
                <div class=""stimulus-container"">
                    <img src=""images/schematic_sequence/dinner_party_scheme/dinner_party_scheme_8.png"" class=""exp-image"">
                    <div class=""question-area"">
                        <p style=""font-size: 20px; font-weight: bold; margin: 0;"">Is there a person in this image?</p>
                    </div>
                </div>","null","main_experiment_trial","8","dinner_party_scheme","schematic_sequence","","","","",""
"","","","","","html-keyboard-response","159","853004","0.0-159.0","5C6D437C650449C99127F6632DB717CF","019cf4da-434c-71a4-8e1b-c97962bd7389","019cf4c8-1de8-79ec-b3bd-d98520647593","","null","
                <div class=""stimulus-container"">
                    <img src=""images/schematic_sequence/dinner_party_scheme/dinner_party_scheme_9.png"" class=""exp-image"">
                    <div class=""question-area""></div> 
                </div>","null","","","","","","","","",""
"","","","","","html-button-response","160","854490","0.0-160.0","5C6D437C650449C99127F6632DB717CF","019cf4da-434c-71a4-8e1b-c97962bd7389","019cf4c8-1de8-79ec-b3bd-d98520647593","","1486","
                <div class=""stimulus-container"">
                    <img src=""images/schematic_sequence/dinner_party_scheme/dinner_party_scheme_9.png"" class=""exp-image"">
                    <div class=""question-area"">
                        <p style=""font-size: 20px; font-weight: bold; margin: 0;"">Is there a person in this image?</p>
                    </div>
                </div>","0","main_experiment_trial","9","dinner_party_scheme","schematic_sequence","","","","",""
"","","","","","html-keyboard-response","161","859502","0.0-161.0","5C6D437C650449C99127F6632DB717CF","019cf4da-434c-71a4-8e1b-c97962bd7389","019cf4c8-1de8-79ec-b3bd-d98520647593","","null","
                <div class=""stimulus-container"">
                    <img src=""images/schematic_sequence/dinner_party_scheme/dinner_party_scheme_ten.png"" class=""exp-image"">
                    <div class=""question-area""></div> 
                </div>","null","","","","","","","","",""
"","","","","","html-button-response","162","862507","0.0-162.0","5C6D437C650449C99127F6632DB717CF","019cf4da-434c-71a4-8e1b-c97962bd7389","019cf4c8-1de8-79ec-b3bd-d98520647593","","null","
                <div class=""stimulus-container"">
                    <img src=""images/schematic_sequence/dinner_party_scheme/dinner_party_scheme_ten.png"" class=""exp-image"">
                    <div class=""question-area"">
                        <p style=""font-size: 20px; font-weight: bold; margin: 0;"">Is there a person in this image?</p>
                    </div>
                </div>","null","main_experiment_trial","ten","dinner_party_scheme","schematic_sequence","","","","",""
"","","","","","html-keyboard-response","163","863521","0.0-163.0","5C6D437C650449C99127F6632DB717CF","019cf4da-434c-71a4-8e1b-c97962bd7389","019cf4c8-1de8-79ec-b3bd-d98520647593","","null","<div style=""background-color: white; width: 100vw; height: 100vh;""></div>","null","","","","","","","","",""
"","","","","","html-keyboard-response","164","868527","0.0-164.0","5C6D437C650449C99127F6632DB717CF","019cf4da-434c-71a4-8e1b-c97962bd7389","019cf4c8-1de8-79ec-b3bd-d98520647593","","null","
                <div class=""stimulus-container"">
                    <img src=""images/causal_sequence/dog_causal/dog_causal_1.png"" class=""exp-image"">
                    <div class=""question-area""></div> 
                </div>","null","","","","","","","","",""
"","","","","","html-button-response","165","869354","0.0-165.0","5C6D437C650449C99127F6632DB717CF","019cf4da-434c-71a4-8e1b-c97962bd7389","019cf4c8-1de8-79ec-b3bd-d98520647593","","827","
                <div class=""stimulus-container"">
                    <img src=""images/causal_sequence/dog_causal/dog_causal_1.png"" class=""exp-image"">
                    <div class=""question-area"">
                        <p style=""font-size: 20px; font-weight: bold; margin: 0;"">Is there a person in this image?</p>
                    </div>
                </div>","0","main_experiment_trial","1","dog_causal","causal_sequence","","","","",""
"","","","","","html-keyboard-response","166","874366","0.0-166.0","5C6D437C650449C99127F6632DB717CF","019cf4da-434c-71a4-8e1b-c97962bd7389","019cf4c8-1de8-79ec-b3bd-d98520647593","","null","
                <div class=""stimulus-container"">
                    <img src=""images/causal_sequence/dog_causal/dog_causal_2.png"" class=""exp-image"">
                    <div class=""question-area""></div> 
                </div>","null","","","","","","","","",""
"","","","","","html-button-response","167","875592","0.0-167.0","5C6D437C650449C99127F6632DB717CF","019cf4da-434c-71a4-8e1b-c97962bd7389","019cf4c8-1de8-79ec-b3bd-d98520647593","","1226","
                <div class=""stimulus-container"">
                    <img src=""images/causal_sequence/dog_causal/dog_causal_2.png"" class=""exp-image"">
                    <div class=""question-area"">
                        <p style=""font-size: 20px; font-weight: bold; margin: 0;"">Is there a person in this image?</p>
                    </div>
                </div>","0","main_experiment_trial","2","dog_causal","causal_sequence","","","","",""
"","","","","","html-keyboard-response","168","880608","0.0-168.0","5C6D437C650449C99127F6632DB717CF","019cf4da-434c-71a4-8e1b-c97962bd7389","019cf4c8-1de8-79ec-b3bd-d98520647593","","null","
                <div class=""stimulus-container"">
                    <img src=""images/causal_sequence/dog_causal/dog_causal_3.png"" class=""exp-image"">
                    <div class=""question-area""></div> 
                </div>","null","","","","","","","","",""
"","","","","","html-button-response","169","881662","0.0-169.0","5C6D437C650449C99127F6632DB717CF","019cf4da-434c-71a4-8e1b-c97962bd7389","019cf4c8-1de8-79ec-b3bd-d98520647593","","1053","
                <div class=""stimulus-container"">
                    <img src=""images/causal_sequence/dog_causal/dog_causal_3.png"" class=""exp-image"">
                    <div class=""question-area"">
                        <p style=""font-size: 20px; font-weight: bold; margin: 0;"">Is there a person in this image?</p>
                    </div>
                </div>","0","main_experiment_trial","3","dog_causal","causal_sequence","","","","",""
"","","","","","html-keyboard-response","170","886671","0.0-170.0","5C6D437C650449C99127F6632DB717CF","019cf4da-434c-71a4-8e1b-c97962bd7389","019cf4c8-1de8-79ec-b3bd-d98520647593","","null","
                <div class=""stimulus-container"">
                    <img src=""images/causal_sequence/dog_causal/dog_causal_4.png"" class=""exp-image"">
                    <div class=""question-area""></div> 
                </div>","null","","","","","","","","",""
"","","","","","html-button-response","171","887700","0.0-171.0","5C6D437C650449C99127F6632DB717CF","019cf4da-434c-71a4-8e1b-c97962bd7389","019cf4c8-1de8-79ec-b3bd-d98520647593","","1028","
                <div class=""stimulus-container"">
                    <img src=""images/causal_sequence/dog_causal/dog_causal_4.png"" class=""exp-image"">
                    <div class=""question-area"">
                        <p style=""font-size: 20px; font-weight: bold; margin: 0;"">Is there a person in this image?</p>
                    </div>
                </div>","0","main_experiment_trial","4","dog_causal","causal_sequence","","","","",""
"","","","","","html-keyboard-response","172","892701","0.0-172.0","5C6D437C650449C99127F6632DB717CF","019cf4da-434c-71a4-8e1b-c97962bd7389","019cf4c8-1de8-79ec-b3bd-d98520647593","","null","
                <div class=""stimulus-container"">
                    <img src=""images/causal_sequence/dog_causal/dog_causal_5.png"" class=""exp-image"">
                    <div class=""question-area""></div> 
                </div>","null","","","","","","","","",""
"","","","","","html-button-response","173","893795","0.0-173.0","5C6D437C650449C99127F6632DB717CF","019cf4da-434c-71a4-8e1b-c97962bd7389","019cf4c8-1de8-79ec-b3bd-d98520647593","","1093","
                <div class=""stimulus-container"">
                    <img src=""images/causal_sequence/dog_causal/dog_causal_5.png"" class=""exp-image"">
                    <div class=""question-area"">
                        <p style=""font-size: 20px; font-weight: bold; margin: 0;"">Is there a person in this image?</p>
                    </div>
                </div>","0","main_experiment_trial","5","dog_causal","causal_sequence","","","","",""
"","","","","","html-keyboard-response","174","898799","0.0-174.0","5C6D437C650449C99127F6632DB717CF","019cf4da-434c-71a4-8e1b-c97962bd7389","019cf4c8-1de8-79ec-b3bd-d98520647593","","null","
                <div class=""stimulus-container"">
                    <img src=""images/causal_sequence/dog_causal/dog_causal_6.png"" class=""exp-image"">
                    <div class=""question-area""></div> 
                </div>","null","","","","","","","","",""
"","","","","","html-button-response","175","900048","0.0-175.0","5C6D437C650449C99127F6632DB717CF","019cf4da-434c-71a4-8e1b-c97962bd7389","019cf4c8-1de8-79ec-b3bd-d98520647593","","1248","
                <div class=""stimulus-container"">
                    <img src=""images/causal_sequence/dog_causal/dog_causal_6.png"" class=""exp-image"">
                    <div class=""question-area"">
                        <p style=""font-size: 20px; font-weight: bold; margin: 0;"">Is there a person in this image?</p>
                    </div>
                </div>","0","main_experiment_trial","6","dog_causal","causal_sequence","","","","",""
"","","","","","html-keyboard-response","176","905057","0.0-176.0","5C6D437C650449C99127F6632DB717CF","019cf4da-434c-71a4-8e1b-c97962bd7389","019cf4c8-1de8-79ec-b3bd-d98520647593","","null","
                <div class=""stimulus-container"">
                    <img src=""images/causal_sequence/dog_causal/dog_causal_7.png"" class=""exp-image"">
                    <div class=""question-area""></div> 
                </div>","null","","","","","","","","",""
"","","","","","html-button-response","177","906168","0.0-177.0","5C6D437C650449C99127F6632DB717CF","019cf4da-434c-71a4-8e1b-c97962bd7389","019cf4c8-1de8-79ec-b3bd-d98520647593","","1110","
                <div class=""stimulus-container"">
                    <img src=""images/causal_sequence/dog_causal/dog_causal_7.png"" class=""exp-image"">
                    <div class=""question-area"">
                        <p style=""font-size: 20px; font-weight: bold; margin: 0;"">Is there a person in this image?</p>
                    </div>
                </div>","0","main_experiment_trial","7","dog_causal","causal_sequence","","","","",""
"","","","","","html-keyboard-response","178","911182","0.0-178.0","5C6D437C650449C99127F6632DB717CF","019cf4da-434c-71a4-8e1b-c97962bd7389","019cf4c8-1de8-79ec-b3bd-d98520647593","","null","
                <div class=""stimulus-container"">
                    <img src=""images/causal_sequence/dog_causal/dog_causal_8.png"" class=""exp-image"">
                    <div class=""question-area""></div> 
                </div>","null","","","","","","","","",""
"","","","","","html-button-response","179","912052","0.0-179.0","5C6D437C650449C99127F6632DB717CF","019cf4da-434c-71a4-8e1b-c97962bd7389","019cf4c8-1de8-79ec-b3bd-d98520647593","","870","
                <div class=""stimulus-container"">
                    <img src=""images/causal_sequence/dog_causal/dog_causal_8.png"" class=""exp-image"">
                    <div class=""question-area"">
                        <p style=""font-size: 20px; font-weight: bold; margin: 0;"">Is there a person in this image?</p>
                    </div>
                </div>","0","main_experiment_trial","8","dog_causal","causal_sequence","","","","",""
"","","","","","html-keyboard-response","180","917057","0.0-180.0","5C6D437C650449C99127F6632DB717CF","019cf4da-434c-71a4-8e1b-c97962bd7389","019cf4c8-1de8-79ec-b3bd-d98520647593","","null","
                <div class=""stimulus-container"">
                    <img src=""images/causal_sequence/dog_causal/dog_causal_9.png"" class=""exp-image"">
                    <div class=""question-area""></div> 
                </div>","null","","","","","","","","",""
"","","","","","html-button-response","181","918162","0.0-181.0","5C6D437C650449C99127F6632DB717CF","019cf4da-434c-71a4-8e1b-c97962bd7389","019cf4c8-1de8-79ec-b3bd-d98520647593","","1104","
                <div class=""stimulus-container"">
                    <img src=""images/causal_sequence/dog_causal/dog_causal_9.png"" class=""exp-image"">
                    <div class=""question-area"">
                        <p style=""font-size: 20px; font-weight: bold; margin: 0;"">Is there a person in this image?</p>
                    </div>
                </div>","0","main_experiment_trial","9","dog_causal","causal_sequence","","","","",""
"","","","","","html-keyboard-response","182","923173","0.0-182.0","5C6D437C650449C99127F6632DB717CF","019cf4da-434c-71a4-8e1b-c97962bd7389","019cf4c8-1de8-79ec-b3bd-d98520647593","","null","
                <div class=""stimulus-container"">
                    <img src=""images/causal_sequence/dog_causal/dog_causal_ten.png"" class=""exp-image"">
                    <div class=""question-area""></div> 
                </div>","null","","","","","","","","",""
"","","","","","html-button-response","183","924258","0.0-183.0","5C6D437C650449C99127F6632DB717CF","019cf4da-434c-71a4-8e1b-c97962bd7389","019cf4c8-1de8-79ec-b3bd-d98520647593","","1084","
                <div class=""stimulus-container"">
                    <img src=""images/causal_sequence/dog_causal/dog_causal_ten.png"" class=""exp-image"">
                    <div class=""question-area"">
                        <p style=""font-size: 20px; font-weight: bold; margin: 0;"">Is there a person in this image?</p>
                    </div>
