"success","timeout","failed_images","failed_audio","failed_video","trial_type","trial_index","time_elapsed","internal_node_id","subject_id","study_id","session_id","view_history","rt","stimulus","response","task","image_index","folder","sequence_type","valuable_image_index","reward_type","chosen_image_index","correct_choice"
"true","false","[]","[]","[]","preload","0","63100","0.0-0.0","5C4CFCDF55C9401EA3009A8BDE811A8C","019cef9f-935d-76ef-ab0b-de09b63d83b4","019cef87-c56d-7b55-9135-c5814367ec25","","","","","","","","","","","",""
"","","","","","instructions","1","111802","0.0-1.0","5C4CFCDF55C9401EA3009A8BDE811A8C","019cef9f-935d-76ef-ab0b-de09b63d83b4","019cef87-c56d-7b55-9135-c5814367ec25","[{""page_index"":0,""viewing_time"":48702}]","48702","","","","","","","","","",""
"","","","","","instructions","2","240548","0.0-2.0","5C4CFCDF55C9401EA3009A8BDE811A8C","019cef9f-935d-76ef-ab0b-de09b63d83b4","019cef87-c56d-7b55-9135-c5814367ec25","[{""page_index"":0,""viewing_time"":128743}]","128743","","","","","","","","","",""
"true","","","","","fullscreen","3","442554","0.0-3.0","5C4CFCDF55C9401EA3009A8BDE811A8C","019cef9f-935d-76ef-ab0b-de09b63d83b4","019cef87-c56d-7b55-9135-c5814367ec25","","200972","","","","","","","","","",""
"","","","","","instructions","4","454715","0.0-4.0","5C4CFCDF55C9401EA3009A8BDE811A8C","019cef9f-935d-76ef-ab0b-de09b63d83b4","019cef87-c56d-7b55-9135-c5814367ec25","[{""page_index"":0,""viewing_time"":12159}]","12159","","","","","","","","","",""
"","","","","","instructions","5","479934","0.0-5.0","5C4CFCDF55C9401EA3009A8BDE811A8C","019cef9f-935d-76ef-ab0b-de09b63d83b4","019cef87-c56d-7b55-9135-c5814367ec25","[{""page_index"":0,""viewing_time"":25217}]","25217","","","","","","","","","",""
"","","","","","html-keyboard-response","6","483947","0.0-6.0","5C4CFCDF55C9401EA3009A8BDE811A8C","019cef9f-935d-76ef-ab0b-de09b63d83b4","019cef87-c56d-7b55-9135-c5814367ec25","","null","
                <div class=""stimulus-container"">
                    <img src=""images/instructions/movie_1.png"" class=""exp-image"">
                    <div class=""question-area""></div> 
                </div>","null","","","","","","","",""
"","","","","","html-button-response","7","486884","0.0-7.0","5C4CFCDF55C9401EA3009A8BDE811A8C","019cef9f-935d-76ef-ab0b-de09b63d83b4","019cef87-c56d-7b55-9135-c5814367ec25","","2937","
                <div class=""stimulus-container"">
                    <img src=""images/instructions/movie_1.png"" class=""exp-image"">
                    <div class=""question-area"">
                        <p style=""font-size: 20px; font-weight: bold; margin: 0;"">Was there a person in this image?</p>
                    </div>
                </div>","0","example_question","1","","","","","",""
"","","","","","html-keyboard-response","8","490893","0.0-8.0","5C4CFCDF55C9401EA3009A8BDE811A8C","019cef9f-935d-76ef-ab0b-de09b63d83b4","019cef87-c56d-7b55-9135-c5814367ec25","","null","
                <div class=""stimulus-container"">
                    <img src=""images/instructions/movie_2.png"" class=""exp-image"">
                    <div class=""question-area""></div> 
                </div>","null","","","","","","","",""
"","","","","","html-button-response","9","492250","0.0-9.0","5C4CFCDF55C9401EA3009A8BDE811A8C","019cef9f-935d-76ef-ab0b-de09b63d83b4","019cef87-c56d-7b55-9135-c5814367ec25","","1355","
                <div class=""stimulus-container"">
                    <img src=""images/instructions/movie_2.png"" class=""exp-image"">
                    <div class=""question-area"">
                        <p style=""font-size: 20px; font-weight: bold; margin: 0;"">Was there a person in this image?</p>
                    </div>
                </div>","0","example_question","2","","","","","",""
"","","","","","html-keyboard-response","10","496252","0.0-10.0","5C4CFCDF55C9401EA3009A8BDE811A8C","019cef9f-935d-76ef-ab0b-de09b63d83b4","019cef87-c56d-7b55-9135-c5814367ec25","","null","
                <div class=""stimulus-container"">
                    <img src=""images/instructions/movie_3.png"" class=""exp-image"">
                    <div class=""question-area""></div> 
                </div>","null","","","","","","","",""
"","","","","","html-button-response","11","497388","0.0-11.0","5C4CFCDF55C9401EA3009A8BDE811A8C","019cef9f-935d-76ef-ab0b-de09b63d83b4","019cef87-c56d-7b55-9135-c5814367ec25","","1135","
                <div class=""stimulus-container"">
                    <img src=""images/instructions/movie_3.png"" class=""exp-image"">
                    <div class=""question-area"">
                        <p style=""font-size: 20px; font-weight: bold; margin: 0;"">Was there a person in this image?</p>
                    </div>
                </div>","0","example_question","3","","","","","",""
"","","","","","html-keyboard-response","12","501400","0.0-12.0","5C4CFCDF55C9401EA3009A8BDE811A8C","019cef9f-935d-76ef-ab0b-de09b63d83b4","019cef87-c56d-7b55-9135-c5814367ec25","","null","
                <div class=""stimulus-container"">
                    <img src=""images/instructions/movie_4.png"" class=""exp-image"">
                    <div class=""question-area""></div> 
                </div>","null","","","","","","","",""
"","","","","","html-button-response","13","503510","0.0-13.0","5C4CFCDF55C9401EA3009A8BDE811A8C","019cef9f-935d-76ef-ab0b-de09b63d83b4","019cef87-c56d-7b55-9135-c5814367ec25","","2107","
                <div class=""stimulus-container"">
                    <img src=""images/instructions/movie_4.png"" class=""exp-image"">
                    <div class=""question-area"">
                        <p style=""font-size: 20px; font-weight: bold; margin: 0;"">Was there a person in this image?</p>
                    </div>
                </div>","0","example_question","4","","","","","",""
"","","","","","instructions","14","508967","0.0-14.0","5C4CFCDF55C9401EA3009A8BDE811A8C","019cef9f-935d-76ef-ab0b-de09b63d83b4","019cef87-c56d-7b55-9135-c5814367ec25","[{""page_index"":0,""viewing_time"":5457}]","5457","","","","","","","","","",""
"","","","","","instructions","15","517914","0.0-15.0","5C4CFCDF55C9401EA3009A8BDE811A8C","019cef9f-935d-76ef-ab0b-de09b63d83b4","019cef87-c56d-7b55-9135-c5814367ec25","[{""page_index"":0,""viewing_time"":8946}]","8946","","","","","","","","","",""
"","","","","","html-keyboard-response","16","518921","0.0-16.0","5C4CFCDF55C9401EA3009A8BDE811A8C","019cef9f-935d-76ef-ab0b-de09b63d83b4","019cef87-c56d-7b55-9135-c5814367ec25","","null","<div style=""background-color: white; width: 100vw; height: 100vh;""></div>","null","","","","","","","",""
"","","","","","html-keyboard-response","17","524004","0.0-17.0","5C4CFCDF55C9401EA3009A8BDE811A8C","019cef9f-935d-76ef-ab0b-de09b63d83b4","019cef87-c56d-7b55-9135-c5814367ec25","","null","
                <div class=""stimulus-container"">
                    <img src=""images/causal_sequence/museum_causal/museum_causal_1.png"" class=""exp-image"">
                    <div class=""question-area""></div> 
                </div>","null","","","","","","","",""
"","","","","","html-button-response","18","525306","0.0-18.0","5C4CFCDF55C9401EA3009A8BDE811A8C","019cef9f-935d-76ef-ab0b-de09b63d83b4","019cef87-c56d-7b55-9135-c5814367ec25","","1302","
                <div class=""stimulus-container"">
                    <img src=""images/causal_sequence/museum_causal/museum_causal_1.png"" class=""exp-image"">
                    <div class=""question-area"">
                        <p style=""font-size: 20px; font-weight: bold; margin: 0;"">Is there a person in this image?</p>
                    </div>
                </div>","0","main_experiment_trial","1","museum_causal","causal_sequence","","","",""
"","","","","","html-keyboard-response","19","530312","0.0-19.0","5C4CFCDF55C9401EA3009A8BDE811A8C","019cef9f-935d-76ef-ab0b-de09b63d83b4","019cef87-c56d-7b55-9135-c5814367ec25","","null","
                <div class=""stimulus-container"">
                    <img src=""images/causal_sequence/museum_causal/museum_causal_2.png"" class=""exp-image"">
                    <div class=""question-area""></div> 
                </div>","null","","","","","","","",""
"","","","","","html-button-response","20","531683","0.0-20.0","5C4CFCDF55C9401EA3009A8BDE811A8C","019cef9f-935d-76ef-ab0b-de09b63d83b4","019cef87-c56d-7b55-9135-c5814367ec25","","1370","
                <div class=""stimulus-container"">
                    <img src=""images/causal_sequence/museum_causal/museum_causal_2.png"" class=""exp-image"">
                    <div class=""question-area"">
                        <p style=""font-size: 20px; font-weight: bold; margin: 0;"">Is there a person in this image?</p>
                    </div>
                </div>","1","main_experiment_trial","2","museum_causal","causal_sequence","","","",""
"","","","","","html-keyboard-response","21","536692","0.0-21.0","5C4CFCDF55C9401EA3009A8BDE811A8C","019cef9f-935d-76ef-ab0b-de09b63d83b4","019cef87-c56d-7b55-9135-c5814367ec25","","null","
                <div class=""stimulus-container"">
                    <img src=""images/causal_sequence/museum_causal/museum_causal_3.png"" class=""exp-image"">
                    <div class=""question-area""></div> 
                </div>","null","","","","","","","",""
"","","","","","html-button-response","22","539946","0.0-22.0","5C4CFCDF55C9401EA3009A8BDE811A8C","019cef9f-935d-76ef-ab0b-de09b63d83b4","019cef87-c56d-7b55-9135-c5814367ec25","","null","
                <div class=""stimulus-container"">
                    <img src=""images/causal_sequence/museum_causal/museum_causal_3.png"" class=""exp-image"">
                    <div class=""question-area"">
                        <p style=""font-size: 20px; font-weight: bold; margin: 0;"">Is there a person in this image?</p>
                    </div>
                </div>","null","main_experiment_trial","3","museum_causal","causal_sequence","","","",""
"","","","","","html-keyboard-response","23","544958","0.0-23.0","5C4CFCDF55C9401EA3009A8BDE811A8C","019cef9f-935d-76ef-ab0b-de09b63d83b4","019cef87-c56d-7b55-9135-c5814367ec25","","null","
                <div class=""stimulus-container"">
                    <img src=""images/causal_sequence/museum_causal/museum_causal_4.png"" class=""exp-image"">
                    <div class=""question-area""></div> 
                </div>","null","","","","","","","",""
"","","","","","html-button-response","24","545431","0.0-24.0","5C4CFCDF55C9401EA3009A8BDE811A8C","019cef9f-935d-76ef-ab0b-de09b63d83b4","019cef87-c56d-7b55-9135-c5814367ec25","","473","
                <div class=""stimulus-container"">
                    <img src=""images/causal_sequence/museum_causal/museum_causal_4.png"" class=""exp-image"">
                    <div class=""question-area"">
                        <p style=""font-size: 20px; font-weight: bold; margin: 0;"">Is there a person in this image?</p>
                    </div>
                </div>","1","main_experiment_trial","4","museum_causal","causal_sequence","","","",""
"","","","","","html-keyboard-response","25","550638","0.0-25.0","5C4CFCDF55C9401EA3009A8BDE811A8C","019cef9f-935d-76ef-ab0b-de09b63d83b4","019cef87-c56d-7b55-9135-c5814367ec25","","null","
                <div class=""stimulus-container"">
                    <img src=""images/causal_sequence/museum_causal/museum_causal_5.png"" class=""exp-image"">
                    <div class=""question-area""></div> 
                </div>","null","","","","","","","",""
"","","","","","html-button-response","26","551472","0.0-26.0","5C4CFCDF55C9401EA3009A8BDE811A8C","019cef9f-935d-76ef-ab0b-de09b63d83b4","019cef87-c56d-7b55-9135-c5814367ec25","","833","
                <div class=""stimulus-container"">
                    <img src=""images/causal_sequence/museum_causal/museum_causal_5.png"" class=""exp-image"">
                    <div class=""question-area"">
                        <p style=""font-size: 20px; font-weight: bold; margin: 0;"">Is there a person in this image?</p>
                    </div>
                </div>","1","main_experiment_trial","5","museum_causal","causal_sequence","","","",""
"","","","","","html-keyboard-response","27","556736","0.0-27.0","5C4CFCDF55C9401EA3009A8BDE811A8C","019cef9f-935d-76ef-ab0b-de09b63d83b4","019cef87-c56d-7b55-9135-c5814367ec25","","null","
                <div class=""stimulus-container"">
                    <img src=""images/causal_sequence/museum_causal/museum_causal_6.png"" class=""exp-image"">
                    <div class=""question-area""></div> 
                </div>","null","","","","","","","",""
"","","","","","html-button-response","28","557535","0.0-28.0","5C4CFCDF55C9401EA3009A8BDE811A8C","019cef9f-935d-76ef-ab0b-de09b63d83b4","019cef87-c56d-7b55-9135-c5814367ec25","","799","
                <div class=""stimulus-container"">
                    <img src=""images/causal_sequence/museum_causal/museum_causal_6.png"" class=""exp-image"">
                    <div class=""question-area"">
                        <p style=""font-size: 20px; font-weight: bold; margin: 0;"">Is there a person in this image?</p>
                    </div>
                </div>","0","main_experiment_trial","6","museum_causal","causal_sequence","","","",""
"","","","","","html-keyboard-response","29","562587","0.0-29.0","5C4CFCDF55C9401EA3009A8BDE811A8C","019cef9f-935d-76ef-ab0b-de09b63d83b4","019cef87-c56d-7b55-9135-c5814367ec25","","null","
                <div class=""stimulus-container"">
                    <img src=""images/causal_sequence/museum_causal/museum_causal_7.png"" class=""exp-image"">
                    <div class=""question-area""></div> 
                </div>","null","","","","","","","",""
"","","","","","html-button-response","30","563818","0.0-30.0","5C4CFCDF55C9401EA3009A8BDE811A8C","019cef9f-935d-76ef-ab0b-de09b63d83b4","019cef87-c56d-7b55-9135-c5814367ec25","","1230","
                <div class=""stimulus-container"">
                    <img src=""images/causal_sequence/museum_causal/museum_causal_7.png"" class=""exp-image"">
                    <div class=""question-area"">
                        <p style=""font-size: 20px; font-weight: bold; margin: 0;"">Is there a person in this image?</p>
                    </div>
                </div>","1","main_experiment_trial","7","museum_causal","causal_sequence","","","",""
"","","","","","html-keyboard-response","31","568828","0.0-31.0","5C4CFCDF55C9401EA3009A8BDE811A8C","019cef9f-935d-76ef-ab0b-de09b63d83b4","019cef87-c56d-7b55-9135-c5814367ec25","","null","
                <div class=""stimulus-container"">
                    <img src=""images/causal_sequence/museum_causal/museum_causal_8.png"" class=""exp-image"">
                    <div class=""question-area""></div> 
                </div>","null","","","","","","","",""
"","","","","","html-button-response","32","569543","0.0-32.0","5C4CFCDF55C9401EA3009A8BDE811A8C","019cef9f-935d-76ef-ab0b-de09b63d83b4","019cef87-c56d-7b55-9135-c5814367ec25","","715","
                <div class=""stimulus-container"">
                    <img src=""images/causal_sequence/museum_causal/museum_causal_8.png"" class=""exp-image"">
                    <div class=""question-area"">
                        <p style=""font-size: 20px; font-weight: bold; margin: 0;"">Is there a person in this image?</p>
                    </div>
                </div>","0","main_experiment_trial","8","museum_causal","causal_sequence","","","",""
"","","","","","html-keyboard-response","33","574837","0.0-33.0","5C4CFCDF55C9401EA3009A8BDE811A8C","019cef9f-935d-76ef-ab0b-de09b63d83b4","019cef87-c56d-7b55-9135-c5814367ec25","","null","
                <div class=""stimulus-container"">
                    <img src=""images/causal_sequence/museum_causal/museum_causal_9.png"" class=""exp-image"">
                    <div class=""question-area""></div> 
                </div>","null","","","","","","","",""
"","","","","","html-button-response","34","575499","0.0-34.0","5C4CFCDF55C9401EA3009A8BDE811A8C","019cef9f-935d-76ef-ab0b-de09b63d83b4","019cef87-c56d-7b55-9135-c5814367ec25","","662","
                <div class=""stimulus-container"">
                    <img src=""images/causal_sequence/museum_causal/museum_causal_9.png"" class=""exp-image"">
                    <div class=""question-area"">
                        <p style=""font-size: 20px; font-weight: bold; margin: 0;"">Is there a person in this image?</p>
                    </div>
                </div>","1","main_experiment_trial","9","museum_causal","causal_sequence","","","",""
"","","","","","html-keyboard-response","35","580512","0.0-35.0","5C4CFCDF55C9401EA3009A8BDE811A8C","019cef9f-935d-76ef-ab0b-de09b63d83b4","019cef87-c56d-7b55-9135-c5814367ec25","","null","
                <div class=""stimulus-container"">
                    <img src=""images/causal_sequence/museum_causal/museum_causal_ten.png"" class=""exp-image"">
                    <div class=""question-area""></div> 
                </div>","null","","","","","","","",""
"","","","","","html-button-response","36","580934","0.0-36.0","5C4CFCDF55C9401EA3009A8BDE811A8C","019cef9f-935d-76ef-ab0b-de09b63d83b4","019cef87-c56d-7b55-9135-c5814367ec25","","421","
                <div class=""stimulus-container"">
                    <img src=""images/causal_sequence/museum_causal/museum_causal_ten.png"" class=""exp-image"">
                    <div class=""question-area"">
                        <p style=""font-size: 20px; font-weight: bold; margin: 0;"">Is there a person in this image?</p>
                    </div>
                </div>","0","main_experiment_trial","ten","museum_causal","causal_sequence","","","",""
"","","","","","html-keyboard-response","37","581936","0.0-37.0","5C4CFCDF55C9401EA3009A8BDE811A8C","019cef9f-935d-76ef-ab0b-de09b63d83b4","019cef87-c56d-7b55-9135-c5814367ec25","","null","<div style=""background-color: white; width: 100vw; height: 100vh;""></div>","null","","","","","","","",""
"","","","","","html-keyboard-response","38","586936","0.0-38.0","5C4CFCDF55C9401EA3009A8BDE811A8C","019cef9f-935d-76ef-ab0b-de09b63d83b4","019cef87-c56d-7b55-9135-c5814367ec25","","null","
                <div class=""stimulus-container"">
                    <img src=""images/causal_sequence/package_causal/package_causal_1.png"" class=""exp-image"">
                    <div class=""question-area""></div> 
                </div>","null","","","","","","","",""
"","","","","","html-button-response","39","587395","0.0-39.0","5C4CFCDF55C9401EA3009A8BDE811A8C","019cef9f-935d-76ef-ab0b-de09b63d83b4","019cef87-c56d-7b55-9135-c5814367ec25","","458","
                <div class=""stimulus-container"">
                    <img src=""images/causal_sequence/package_causal/package_causal_1.png"" class=""exp-image"">
                    <div class=""question-area"">
                        <p style=""font-size: 20px; font-weight: bold; margin: 0;"">Is there a person in this image?</p>
                    </div>
                </div>","0","main_experiment_trial","1","package_causal","causal_sequence","","","",""
"","","","","","html-keyboard-response","40","592591","0.0-40.0","5C4CFCDF55C9401EA3009A8BDE811A8C","019cef9f-935d-76ef-ab0b-de09b63d83b4","019cef87-c56d-7b55-9135-c5814367ec25","","null","
                <div class=""stimulus-container"">
                    <img src=""images/causal_sequence/package_causal/package_causal_2.png"" class=""exp-image"">
                    <div class=""question-area""></div> 
                </div>","null","","","","","","","",""
"","","","","","html-button-response","41","593143","0.0-41.0","5C4CFCDF55C9401EA3009A8BDE811A8C","019cef9f-935d-76ef-ab0b-de09b63d83b4","019cef87-c56d-7b55-9135-c5814367ec25","","552","
                <div class=""stimulus-container"">
                    <img src=""images/causal_sequence/package_causal/package_causal_2.png"" class=""exp-image"">
                    <div class=""question-area"">
                        <p style=""font-size: 20px; font-weight: bold; margin: 0;"">Is there a person in this image?</p>
                    </div>
                </div>","0","main_experiment_trial","2","package_causal","causal_sequence","","","",""
"","","","","","html-keyboard-response","42","598152","0.0-42.0","5C4CFCDF55C9401EA3009A8BDE811A8C","019cef9f-935d-76ef-ab0b-de09b63d83b4","019cef87-c56d-7b55-9135-c5814367ec25","","null","
                <div class=""stimulus-container"">
                    <img src=""images/causal_sequence/package_causal/package_causal_3.png"" class=""exp-image"">
                    <div class=""question-area""></div> 
                </div>","null","","","","","","","",""
"","","","","","html-button-response","43","598663","0.0-43.0","5C4CFCDF55C9401EA3009A8BDE811A8C","019cef9f-935d-76ef-ab0b-de09b63d83b4","019cef87-c56d-7b55-9135-c5814367ec25","","511","
                <div class=""stimulus-container"">
                    <img src=""images/causal_sequence/package_causal/package_causal_3.png"" class=""exp-image"">
                    <div class=""question-area"">
                        <p style=""font-size: 20px; font-weight: bold; margin: 0;"">Is there a person in this image?</p>
                    </div>
                </div>","0","main_experiment_trial","3","package_causal","causal_sequence","","","",""
"","","","","","html-keyboard-response","44","603669","0.0-44.0","5C4CFCDF55C9401EA3009A8BDE811A8C","019cef9f-935d-76ef-ab0b-de09b63d83b4","019cef87-c56d-7b55-9135-c5814367ec25","","null","
                <div class=""stimulus-container"">
                    <img src=""images/causal_sequence/package_causal/package_causal_4.png"" class=""exp-image"">
                    <div class=""question-area""></div> 
                </div>","null","","","","","","","",""
"","","","","","html-button-response","45","604348","0.0-45.0","5C4CFCDF55C9401EA3009A8BDE811A8C","019cef9f-935d-76ef-ab0b-de09b63d83b4","019cef87-c56d-7b55-9135-c5814367ec25","","677","
                <div class=""stimulus-container"">
                    <img src=""images/causal_sequence/package_causal/package_causal_4.png"" class=""exp-image"">
                    <div class=""question-area"">
                        <p style=""font-size: 20px; font-weight: bold; margin: 0;"">Is there a person in this image?</p>
                    </div>
                </div>","1","main_experiment_trial","4","package_causal","causal_sequence","","","",""
"","","","","","html-keyboard-response","46","609353","0.0-46.0","5C4CFCDF55C9401EA3009A8BDE811A8C","019cef9f-935d-76ef-ab0b-de09b63d83b4","019cef87-c56d-7b55-9135-c5814367ec25","","null","
                <div class=""stimulus-container"">
                    <img src=""images/causal_sequence/package_causal/package_causal_5.png"" class=""exp-image"">
                    <div class=""question-area""></div> 
                </div>","null","","","","","","","",""
"","","","","","html-button-response","47","610821","0.0-47.0","5C4CFCDF55C9401EA3009A8BDE811A8C","019cef9f-935d-76ef-ab0b-de09b63d83b4","019cef87-c56d-7b55-9135-c5814367ec25","","1468","
                <div class=""stimulus-container"">
                    <img src=""images/causal_sequence/package_causal/package_causal_5.png"" class=""exp-image"">
                    <div class=""question-area"">
                        <p style=""font-size: 20px; font-weight: bold; margin: 0;"">Is there a person in this image?</p>
                    </div>
                </div>","0","main_experiment_trial","5","package_causal","causal_sequence","","","",""
"","","","","","html-keyboard-response","48","616183","0.0-48.0","5C4CFCDF55C9401EA3009A8BDE811A8C","019cef9f-935d-76ef-ab0b-de09b63d83b4","019cef87-c56d-7b55-9135-c5814367ec25","","null","
                <div class=""stimulus-container"">
                    <img src=""images/causal_sequence/package_causal/package_causal_6.png"" class=""exp-image"">
                    <div class=""question-area""></div> 
                </div>","null","","","","","","","",""
"","","","","","html-button-response","49","616770","0.0-49.0","5C4CFCDF55C9401EA3009A8BDE811A8C","019cef9f-935d-76ef-ab0b-de09b63d83b4","019cef87-c56d-7b55-9135-c5814367ec25","","586","
                <div class=""stimulus-container"">
                    <img src=""images/causal_sequence/package_causal/package_causal_6.png"" class=""exp-image"">
                    <div class=""question-area"">
                        <p style=""font-size: 20px; font-weight: bold; margin: 0;"">Is there a person in this image?</p>
                    </div>
                </div>","0","main_experiment_trial","6","package_causal","causal_sequence","","","",""
"","","","","","html-keyboard-response","50","621773","0.0-50.0","5C4CFCDF55C9401EA3009A8BDE811A8C","019cef9f-935d-76ef-ab0b-de09b63d83b4","019cef87-c56d-7b55-9135-c5814367ec25","","null","
                <div class=""stimulus-container"">
                    <img src=""images/causal_sequence/package_causal/package_causal_7.png"" class=""exp-image"">
                    <div class=""question-area""></div> 
                </div>","null","","","","","","","",""
"","","","","","html-button-response","51","622731","0.0-51.0","5C4CFCDF55C9401EA3009A8BDE811A8C","019cef9f-935d-76ef-ab0b-de09b63d83b4","019cef87-c56d-7b55-9135-c5814367ec25","","957","
                <div class=""stimulus-container"">
                    <img src=""images/causal_sequence/package_causal/package_causal_7.png"" class=""exp-image"">
                    <div class=""question-area"">
                        <p style=""font-size: 20px; font-weight: bold; margin: 0;"">Is there a person in this image?</p>
                    </div>
                </div>","0","main_experiment_trial","7","package_causal","causal_sequence","","","",""
"","","","","","html-keyboard-response","52","627810","0.0-52.0","5C4CFCDF55C9401EA3009A8BDE811A8C","019cef9f-935d-76ef-ab0b-de09b63d83b4","019cef87-c56d-7b55-9135-c5814367ec25","","null","
                <div class=""stimulus-container"">
                    <img src=""images/causal_sequence/package_causal/package_causal_8.png"" class=""exp-image"">
                    <div class=""question-area""></div> 
                </div>","null","","","","","","","",""
"","","","","","html-button-response","53","628679","0.0-53.0","5C4CFCDF55C9401EA3009A8BDE811A8C","019cef9f-935d-76ef-ab0b-de09b63d83b4","019cef87-c56d-7b55-9135-c5814367ec25","","870","
                <div class=""stimulus-container"">
                    <img src=""images/causal_sequence/package_causal/package_causal_8.png"" class=""exp-image"">
                    <div class=""question-area"">
                        <p style=""font-size: 20px; font-weight: bold; margin: 0;"">Is there a person in this image?</p>
                    </div>
                </div>","0","main_experiment_trial","8","package_causal","causal_sequence","","","",""
"","","","","","html-keyboard-response","54","633799","0.0-54.0","5C4CFCDF55C9401EA3009A8BDE811A8C","019cef9f-935d-76ef-ab0b-de09b63d83b4","019cef87-c56d-7b55-9135-c5814367ec25","","null","
                <div class=""stimulus-container"">
                    <img src=""images/causal_sequence/package_causal/package_causal_9.png"" class=""exp-image"">
                    <div class=""question-area""></div> 
                </div>","null","","","","","","","",""
"","","","","","html-button-response","55","634372","0.0-55.0","5C4CFCDF55C9401EA3009A8BDE811A8C","019cef9f-935d-76ef-ab0b-de09b63d83b4","019cef87-c56d-7b55-9135-c5814367ec25","","573","
                <div class=""stimulus-container"">
                    <img src=""images/causal_sequence/package_causal/package_causal_9.png"" class=""exp-image"">
                    <div class=""question-area"">
                        <p style=""font-size: 20px; font-weight: bold; margin: 0;"">Is there a person in this image?</p>
                    </div>
                </div>","0","main_experiment_trial","9","package_causal","causal_sequence","","","",""
"","","","","","html-keyboard-response","56","639375","0.0-56.0","5C4CFCDF55C9401EA3009A8BDE811A8C","019cef9f-935d-76ef-ab0b-de09b63d83b4","019cef87-c56d-7b55-9135-c5814367ec25","","null","
                <div class=""stimulus-container"">
                    <img src=""images/causal_sequence/package_causal/package_causal_ten.png"" class=""exp-image"">
                    <div class=""question-area""></div> 
                </div>","null","","","","","","","",""
"","","","","","html-button-response","57","639807","0.0-57.0","5C4CFCDF55C9401EA3009A8BDE811A8C","019cef9f-935d-76ef-ab0b-de09b63d83b4","019cef87-c56d-7b55-9135-c5814367ec25","","432","
                <div class=""stimulus-container"">
                    <img src=""images/causal_sequence/package_causal/package_causal_ten.png"" class=""exp-image"">
                    <div class=""question-area"">
                        <p style=""font-size: 20px; font-weight: bold; margin: 0;"">Is there a person in this image?</p>
                    </div>
                </div>","0","main_experiment_trial","ten","package_causal","causal_sequence","","","",""
"","","","","","html-keyboard-response","58","640820","0.0-58.0","5C4CFCDF55C9401EA3009A8BDE811A8C","019cef9f-935d-76ef-ab0b-de09b63d83b4","019cef87-c56d-7b55-9135-c5814367ec25","","null","<div style=""background-color: white; width: 100vw; height: 100vh;""></div>","null","","","","","","","",""
"","","","","","html-keyboard-response","59","645832","0.0-59.0","5C4CFCDF55C9401EA3009A8BDE811A8C","019cef9f-935d-76ef-ab0b-de09b63d83b4","019cef87-c56d-7b55-9135-c5814367ec25","","null","
                <div class=""stimulus-container"">
                    <img src=""images/schematic_sequence/interview_scheme/interview_scheme_1.png"" class=""exp-image"">
                    <div class=""question-area""></div> 
                </div>","null","","","","","","","",""
"","","","","","html-button-response","60","646578","0.0-60.0","5C4CFCDF55C9401EA3009A8BDE811A8C","019cef9f-935d-76ef-ab0b-de09b63d83b4","019cef87-c56d-7b55-9135-c5814367ec25","","745","
                <div class=""stimulus-container"">
                    <img src=""images/schematic_sequence/interview_scheme/interview_scheme_1.png"" class=""exp-image"">
                    <div class=""question-area"">
                        <p style=""font-size: 20px; font-weight: bold; margin: 0;"">Is there a person in this image?</p>
                    </div>
                </div>","1","main_experiment_trial","1","interview_scheme","schematic_sequence","","","",""
"","","","","","html-keyboard-response","61","651937","0.0-61.0","5C4CFCDF55C9401EA3009A8BDE811A8C","019cef9f-935d-76ef-ab0b-de09b63d83b4","019cef87-c56d-7b55-9135-c5814367ec25","","null","
                <div class=""stimulus-container"">
                    <img src=""images/schematic_sequence/interview_scheme/interview_scheme_2.png"" class=""exp-image"">
                    <div class=""question-area""></div> 
                </div>","null","","","","","","","",""
"","","","","","html-button-response","62","652429","0.0-62.0","5C4CFCDF55C9401EA3009A8BDE811A8C","019cef9f-935d-76ef-ab0b-de09b63d83b4","019cef87-c56d-7b55-9135-c5814367ec25","","491","
                <div class=""stimulus-container"">
                    <img src=""images/schematic_sequence/interview_scheme/interview_scheme_2.png"" class=""exp-image"">
                    <div class=""question-area"">
                        <p style=""font-size: 20px; font-weight: bold; margin: 0;"">Is there a person in this image?</p>
                    </div>
                </div>","1","main_experiment_trial","2","interview_scheme","schematic_sequence","","","",""
"","","","","","html-keyboard-response","63","657817","0.0-63.0","5C4CFCDF55C9401EA3009A8BDE811A8C","019cef9f-935d-76ef-ab0b-de09b63d83b4","019cef87-c56d-7b55-9135-c5814367ec25","","null","
                <div class=""stimulus-container"">
                    <img src=""images/schematic_sequence/interview_scheme/interview_scheme_3.png"" class=""exp-image"">
                    <div class=""question-area""></div> 
                </div>","null","","","","","","","",""
"","","","","","html-button-response","64","658571","0.0-64.0","5C4CFCDF55C9401EA3009A8BDE811A8C","019cef9f-935d-76ef-ab0b-de09b63d83b4","019cef87-c56d-7b55-9135-c5814367ec25","","754","
                <div class=""stimulus-container"">
                    <img src=""images/schematic_sequence/interview_scheme/interview_scheme_3.png"" class=""exp-image"">
                    <div class=""question-area"">
                        <p style=""font-size: 20px; font-weight: bold; margin: 0;"">Is there a person in this image?</p>
                    </div>
                </div>","1","main_experiment_trial","3","interview_scheme","schematic_sequence","","","",""
"","","","","","html-keyboard-response","65","663579","0.0-65.0","5C4CFCDF55C9401EA3009A8BDE811A8C","019cef9f-935d-76ef-ab0b-de09b63d83b4","019cef87-c56d-7b55-9135-c5814367ec25","","null","
                <div class=""stimulus-container"">
                    <img src=""images/schematic_sequence/interview_scheme/interview_scheme_4.png"" class=""exp-image"">
                    <div class=""question-area""></div> 
                </div>","null","","","","","","","",""
"","","","","","html-button-response","66","664078","0.0-66.0","5C4CFCDF55C9401EA3009A8BDE811A8C","019cef9f-935d-76ef-ab0b-de09b63d83b4","019cef87-c56d-7b55-9135-c5814367ec25","","497","
                <div class=""stimulus-container"">
                    <img src=""images/schematic_sequence/interview_scheme/interview_scheme_4.png"" class=""exp-image"">
                    <div class=""question-area"">
                        <p style=""font-size: 20px; font-weight: bold; margin: 0;"">Is there a person in this image?</p>
                    </div>
                </div>","1","main_experiment_trial","4","interview_scheme","schematic_sequence","","","",""
"","","","","","html-keyboard-response","67","669127","0.0-67.0","5C4CFCDF55C9401EA3009A8BDE811A8C","019cef9f-935d-76ef-ab0b-de09b63d83b4","019cef87-c56d-7b55-9135-c5814367ec25","","null","
                <div class=""stimulus-container"">
                    <img src=""images/schematic_sequence/interview_scheme/interview_scheme_5.png"" class=""exp-image"">
                    <div class=""question-area""></div> 
                </div>","null","","","","","","","",""
"","","","","","html-button-response","68","669782","0.0-68.0","5C4CFCDF55C9401EA3009A8BDE811A8C","019cef9f-935d-76ef-ab0b-de09b63d83b4","019cef87-c56d-7b55-9135-c5814367ec25","","654","
                <div class=""stimulus-container"">
                    <img src=""images/schematic_sequence/interview_scheme/interview_scheme_5.png"" class=""exp-image"">
                    <div class=""question-area"">
                        <p style=""font-size: 20px; font-weight: bold; margin: 0;"">Is there a person in this image?</p>
                    </div>
                </div>","0","main_experiment_trial","5","interview_scheme","schematic_sequence","","","",""
"","","","","","html-keyboard-response","69","674791","0.0-69.0","5C4CFCDF55C9401EA3009A8BDE811A8C","019cef9f-935d-76ef-ab0b-de09b63d83b4","019cef87-c56d-7b55-9135-c5814367ec25","","null","
                <div class=""stimulus-container"">
                    <img src=""images/schematic_sequence/interview_scheme/interview_scheme_6.png"" class=""exp-image"">
                    <div class=""question-area""></div> 
                </div>","null","","","","","","","",""
"","","","","","html-button-response","70","675350","0.0-70.0","5C4CFCDF55C9401EA3009A8BDE811A8C","019cef9f-935d-76ef-ab0b-de09b63d83b4","019cef87-c56d-7b55-9135-c5814367ec25","","558","
                <div class=""stimulus-container"">
                    <img src=""images/schematic_sequence/interview_scheme/interview_scheme_6.png"" class=""exp-image"">
                    <div class=""question-area"">
                        <p style=""font-size: 20px; font-weight: bold; margin: 0;"">Is there a person in this image?</p>
                    </div>
                </div>","0","main_experiment_trial","6","interview_scheme","schematic_sequence","","","",""
"","","","","","html-keyboard-response","71","680380","0.0-71.0","5C4CFCDF55C9401EA3009A8BDE811A8C","019cef9f-935d-76ef-ab0b-de09b63d83b4","019cef87-c56d-7b55-9135-c5814367ec25","","null","
                <div class=""stimulus-container"">
                    <img src=""images/schematic_sequence/interview_scheme/interview_scheme_7.png"" class=""exp-image"">
                    <div class=""question-area""></div> 
                </div>","null","","","","","","","",""
"","","","","","html-button-response","72","681910","0.0-72.0","5C4CFCDF55C9401EA3009A8BDE811A8C","019cef9f-935d-76ef-ab0b-de09b63d83b4","019cef87-c56d-7b55-9135-c5814367ec25","","1529","
                <div class=""stimulus-container"">
                    <img src=""images/schematic_sequence/interview_scheme/interview_scheme_7.png"" class=""exp-image"">
                    <div class=""question-area"">
                        <p style=""font-size: 20px; font-weight: bold; margin: 0;"">Is there a person in this image?</p>
                    </div>
                </div>","0","main_experiment_trial","7","interview_scheme","schematic_sequence","","","",""
"","","","","","html-keyboard-response","73","686913","0.0-73.0","5C4CFCDF55C9401EA3009A8BDE811A8C","019cef9f-935d-76ef-ab0b-de09b63d83b4","019cef87-c56d-7b55-9135-c5814367ec25","","null","
                <div class=""stimulus-container"">
                    <img src=""images/schematic_sequence/interview_scheme/interview_scheme_8.png"" class=""exp-image"">
                    <div class=""question-area""></div> 
                </div>","null","","","","","","","",""
"","","","","","html-button-response","74","687597","0.0-74.0","5C4CFCDF55C9401EA3009A8BDE811A8C","019cef9f-935d-76ef-ab0b-de09b63d83b4","019cef87-c56d-7b55-9135-c5814367ec25","","683","
                <div class=""stimulus-container"">
                    <img src=""images/schematic_sequence/interview_scheme/interview_scheme_8.png"" class=""exp-image"">
                    <div class=""question-area"">
                        <p style=""font-size: 20px; font-weight: bold; margin: 0;"">Is there a person in this image?</p>
                    </div>
                </div>","0","main_experiment_trial","8","interview_scheme","schematic_sequence","","","",""
"","","","","","html-keyboard-response","75","693126","0.0-75.0","5C4CFCDF55C9401EA3009A8BDE811A8C","019cef9f-935d-76ef-ab0b-de09b63d83b4","019cef87-c56d-7b55-9135-c5814367ec25","","null","
                <div class=""stimulus-container"">
                    <img src=""images/schematic_sequence/interview_scheme/interview_scheme_9.png"" class=""exp-image"">
                    <div class=""question-area""></div> 
                </div>","null","","","","","","","",""
"","","","","","html-button-response","76","693541","0.0-76.0","5C4CFCDF55C9401EA3009A8BDE811A8C","019cef9f-935d-76ef-ab0b-de09b63d83b4","019cef87-c56d-7b55-9135-c5814367ec25","","415","
                <div class=""stimulus-container"">
                    <img src=""images/schematic_sequence/interview_scheme/interview_scheme_9.png"" class=""exp-image"">
                    <div class=""question-area"">
                        <p style=""font-size: 20px; font-weight: bold; margin: 0;"">Is there a person in this image?</p>
                    </div>
                </div>","0","main_experiment_trial","9","interview_scheme","schematic_sequence","","","",""
"","","","","","html-keyboard-response","77","698556","0.0-77.0","5C4CFCDF55C9401EA3009A8BDE811A8C","019cef9f-935d-76ef-ab0b-de09b63d83b4","019cef87-c56d-7b55-9135-c5814367ec25","","null","
                <div class=""stimulus-container"">
                    <img src=""images/schematic_sequence/interview_scheme/interview_scheme_ten.png"" class=""exp-image"">
                    <div class=""question-area""></div> 
                </div>","null","","","","","","","",""
"","","","","","html-button-response","78","699132","0.0-78.0","5C4CFCDF55C9401EA3009A8BDE811A8C","019cef9f-935d-76ef-ab0b-de09b63d83b4","019cef87-c56d-7b55-9135-c5814367ec25","","574","
                <div class=""stimulus-container"">
                    <img src=""images/schematic_sequence/interview_scheme/interview_scheme_ten.png"" class=""exp-image"">
                    <div class=""question-area"">
                        <p style=""font-size: 20px; font-weight: bold; margin: 0;"">Is there a person in this image?</p>
                    </div>
                </div>","0","main_experiment_trial","ten","interview_scheme","schematic_sequence","","","",""
"","","","","","html-keyboard-response","79","700141","0.0-79.0","5C4CFCDF55C9401EA3009A8BDE811A8C","019cef9f-935d-76ef-ab0b-de09b63d83b4","019cef87-c56d-7b55-9135-c5814367ec25","","null","<div style=""background-color: white; width: 100vw; height: 100vh;""></div>","null","","","","","","","",""
"","","","","","html-keyboard-response","80","705151","0.0-80.0","5C4CFCDF55C9401EA3009A8BDE811A8C","019cef9f-935d-76ef-ab0b-de09b63d83b4","019cef87-c56d-7b55-9135-c5814367ec25","","null","
                <div class=""stimulus-container"">
                    <img src=""images/schematic_sequence/restaurant_scheme/restaurant_scheme_1.png"" class=""exp-image"">
                    <div class=""question-area""></div> 
                </div>","null","","","","","","","",""
"","","","","","html-button-response","81","705861","0.0-81.0","5C4CFCDF55C9401EA3009A8BDE811A8C","019cef9f-935d-76ef-ab0b-de09b63d83b4","019cef87-c56d-7b55-9135-c5814367ec25","","707","
                <div class=""stimulus-container"">
                    <img src=""images/schematic_sequence/restaurant_scheme/restaurant_scheme_1.png"" class=""exp-image"">
                    <div class=""question-area"">
                        <p style=""font-size: 20px; font-weight: bold; margin: 0;"">Is there a person in this image?</p>
                    </div>
                </div>","0","main_experiment_trial","1","restaurant_scheme","schematic_sequence","","","",""
"","","","","","html-keyboard-response","82","711162","0.0-82.0","5C4CFCDF55C9401EA3009A8BDE811A8C","019cef9f-935d-76ef-ab0b-de09b63d83b4","019cef87-c56d-7b55-9135-c5814367ec25","","null","
                <div class=""stimulus-container"">
                    <img src=""images/schematic_sequence/restaurant_scheme/restaurant_scheme_2.png"" class=""exp-image"">
                    <div class=""question-area""></div> 
                </div>","null","","","","","","","",""
"","","","","","html-button-response","83","711716","0.0-83.0","5C4CFCDF55C9401EA3009A8BDE811A8C","019cef9f-935d-76ef-ab0b-de09b63d83b4","019cef87-c56d-7b55-9135-c5814367ec25","","553","
                <div class=""stimulus-container"">
                    <img src=""images/schematic_sequence/restaurant_scheme/restaurant_scheme_2.png"" class=""exp-image"">
                    <div class=""question-area"">
                        <p style=""font-size: 20px; font-weight: bold; margin: 0;"">Is there a person in this image?</p>
                    </div>
                </div>","1","main_experiment_trial","2","restaurant_scheme","schematic_sequence","","","",""
"","","","","","html-keyboard-response","84","716718","0.0-84.0","5C4CFCDF55C9401EA3009A8BDE811A8C","019cef9f-935d-76ef-ab0b-de09b63d83b4","019cef87-c56d-7b55-9135-c5814367ec25","","null","
                <div class=""stimulus-container"">
                    <img src=""images/schematic_sequence/restaurant_scheme/restaurant_scheme_3.png"" class=""exp-image"">
                    <div class=""question-area""></div> 
                </div>","null","","","","","","","",""
"","","","","","html-button-response","85","717570","0.0-85.0","5C4CFCDF55C9401EA3009A8BDE811A8C","019cef9f-935d-76ef-ab0b-de09b63d83b4","019cef87-c56d-7b55-9135-c5814367ec25","","852","
                <div class=""stimulus-container"">
                    <img src=""images/schematic_sequence/restaurant_scheme/restaurant_scheme_3.png"" class=""exp-image"">
                    <div class=""question-area"">
                        <p style=""font-size: 20px; font-weight: bold; margin: 0;"">Is there a person in this image?</p>
                    </div>
                </div>","1","main_experiment_trial","3","restaurant_scheme","schematic_sequence","","","",""
"","","","","","html-keyboard-response","86","723151","0.0-86.0","5C4CFCDF55C9401EA3009A8BDE811A8C","019cef9f-935d-76ef-ab0b-de09b63d83b4","019cef87-c56d-7b55-9135-c5814367ec25","","null","
                <div class=""stimulus-container"">
                    <img src=""images/schematic_sequence/restaurant_scheme/restaurant_scheme_4.png"" class=""exp-image"">
                    <div class=""question-area""></div> 
                </div>","null","","","","","","","",""
"","","","","","html-button-response","87","723783","0.0-87.0","5C4CFCDF55C9401EA3009A8BDE811A8C","019cef9f-935d-76ef-ab0b-de09b63d83b4","019cef87-c56d-7b55-9135-c5814367ec25","","631","
                <div class=""stimulus-container"">
                    <img src=""images/schematic_sequence/restaurant_scheme/restaurant_scheme_4.png"" class=""exp-image"">
                    <div class=""question-area"">
                        <p style=""font-size: 20px; font-weight: bold; margin: 0;"">Is there a person in this image?</p>
                    </div>
                </div>","0","main_experiment_trial","4","restaurant_scheme","schematic_sequence","","","",""
"","","","","","html-keyboard-response","88","728789","0.0-88.0","5C4CFCDF55C9401EA3009A8BDE811A8C","019cef9f-935d-76ef-ab0b-de09b63d83b4","019cef87-c56d-7b55-9135-c5814367ec25","","null","
                <div class=""stimulus-container"">
                    <img src=""images/schematic_sequence/restaurant_scheme/restaurant_scheme_5.png"" class=""exp-image"">
                    <div class=""question-area""></div> 
                </div>","null","","","","","","","",""
"","","","","","html-button-response","89","729197","0.0-89.0","5C4CFCDF55C9401EA3009A8BDE811A8C","019cef9f-935d-76ef-ab0b-de09b63d83b4","019cef87-c56d-7b55-9135-c5814367ec25","","407","
                <div class=""stimulus-container"">
                    <img src=""images/schematic_sequence/restaurant_scheme/restaurant_scheme_5.png"" class=""exp-image"">
                    <div class=""question-area"">
                        <p style=""font-size: 20px; font-weight: bold; margin: 0;"">Is there a person in this image?</p>
                    </div>
                </div>","0","main_experiment_trial","5","restaurant_scheme","schematic_sequence","","","",""
"","","","","","html-keyboard-response","90","734199","0.0-90.0","5C4CFCDF55C9401EA3009A8BDE811A8C","019cef9f-935d-76ef-ab0b-de09b63d83b4","019cef87-c56d-7b55-9135-c5814367ec25","","null","
                <div class=""stimulus-container"">
                    <img src=""images/schematic_sequence/restaurant_scheme/restaurant_scheme_6.png"" class=""exp-image"">
                    <div class=""question-area""></div> 
                </div>","null","","","","","","","",""
"","","","","","html-button-response","91","734747","0.0-91.0","5C4CFCDF55C9401EA3009A8BDE811A8C","019cef9f-935d-76ef-ab0b-de09b63d83b4","019cef87-c56d-7b55-9135-c5814367ec25","","548","
                <div class=""stimulus-container"">
                    <img src=""images/schematic_sequence/restaurant_scheme/restaurant_scheme_6.png"" class=""exp-image"">
                    <div class=""question-area"">
                        <p style=""font-size: 20px; font-weight: bold; margin: 0;"">Is there a person in this image?</p>
                    </div>
                </div>","1","main_experiment_trial","6","restaurant_scheme","schematic_sequence","","","",""
"","","","","","html-keyboard-response","92","739764","0.0-92.0","5C4CFCDF55C9401EA3009A8BDE811A8C","019cef9f-935d-76ef-ab0b-de09b63d83b4","019cef87-c56d-7b55-9135-c5814367ec25","","null","
                <div class=""stimulus-container"">
                    <img src=""images/schematic_sequence/restaurant_scheme/restaurant_scheme_7.png"" class=""exp-image"">
                    <div class=""question-area""></div> 
                </div>","null","","","","","","","",""
"","","","","","html-button-response","93","740242","0.0-93.0","5C4CFCDF55C9401EA3009A8BDE811A8C","019cef9f-935d-76ef-ab0b-de09b63d83b4","019cef87-c56d-7b55-9135-c5814367ec25","","478","
                <div class=""stimulus-container"">
                    <img src=""images/schematic_sequence/restaurant_scheme/restaurant_scheme_7.png"" class=""exp-image"">
                    <div class=""question-area"">
                        <p style=""font-size: 20px; font-weight: bold; margin: 0;"">Is there a person in this image?</p>
                    </div>
                </div>","1","main_experiment_trial","7","restaurant_scheme","schematic_sequence","","","",""
"","","","","","html-keyboard-response","94","745260","0.0-94.0","5C4CFCDF55C9401EA3009A8BDE811A8C","019cef9f-935d-76ef-ab0b-de09b63d83b4","019cef87-c56d-7b55-9135-c5814367ec25","","null","
                <div class=""stimulus-container"">
                    <img src=""images/schematic_sequence/restaurant_scheme/restaurant_scheme_8.png"" class=""exp-image"">
                    <div class=""question-area""></div> 
                </div>","null","","","","","","","",""
"","","","","","html-button-response","95","746815","0.0-95.0","5C4CFCDF55C9401EA3009A8BDE811A8C","019cef9f-935d-76ef-ab0b-de09b63d83b4","019cef87-c56d-7b55-9135-c5814367ec25","","1555","
                <div class=""stimulus-container"">
                    <img src=""images/schematic_sequence/restaurant_scheme/restaurant_scheme_8.png"" class=""exp-image"">
                    <div class=""question-area"">
                        <p style=""font-size: 20px; font-weight: bold; margin: 0;"">Is there a person in this image?</p>
                    </div>
                </div>","1","main_experiment_trial","8","restaurant_scheme","schematic_sequence","","","",""
"","","","","","html-keyboard-response","96","751825","0.0-96.0","5C4CFCDF55C9401EA3009A8BDE811A8C","019cef9f-935d-76ef-ab0b-de09b63d83b4","019cef87-c56d-7b55-9135-c5814367ec25","","null","
                <div class=""stimulus-container"">
                    <img src=""images/schematic_sequence/restaurant_scheme/restaurant_scheme_9.png"" class=""exp-image"">
                    <div class=""question-area""></div> 
                </div>","null","","","","","","","",""
"","","","","","html-button-response","97","753447","0.0-97.0","5C4CFCDF55C9401EA3009A8BDE811A8C","019cef9f-935d-76ef-ab0b-de09b63d83b4","019cef87-c56d-7b55-9135-c5814367ec25","","1622","
                <div class=""stimulus-container"">
                    <img src=""images/schematic_sequence/restaurant_scheme/restaurant_scheme_9.png"" class=""exp-image"">
                    <div class=""question-area"">
                        <p style=""font-size: 20px; font-weight: bold; margin: 0;"">Is there a person in this image?</p>
                    </div>
                </div>","0","main_experiment_trial","9","restaurant_scheme","schematic_sequence","","","",""
"","","","","","html-keyboard-response","98","758457","0.0-98.0","5C4CFCDF55C9401EA3009A8BDE811A8C","019cef9f-935d-76ef-ab0b-de09b63d83b4","019cef87-c56d-7b55-9135-c5814367ec25","","null","
                <div class=""stimulus-container"">
                    <img src=""images/schematic_sequence/restaurant_scheme/restaurant_scheme_ten.png"" class=""exp-image"">
                    <div class=""question-area""></div> 
                </div>","null","","","","","","","",""
"","","","","","html-button-response","99","759748","0.0-99.0","5C4CFCDF55C9401EA3009A8BDE811A8C","019cef9f-935d-76ef-ab0b-de09b63d83b4","019cef87-c56d-7b55-9135-c5814367ec25","","1288","
                <div class=""stimulus-container"">
                    <img src=""images/schematic_sequence/restaurant_scheme/restaurant_scheme_ten.png"" class=""exp-image"">
                    <div class=""question-area"">
                        <p style=""font-size: 20px; font-weight: bold; margin: 0;"">Is there a person in this image?</p>
                    </div>
                </div>","0","main_experiment_trial","ten","restaurant_scheme","schematic_sequence","","","",""
"","","","","","html-keyboard-response","100","760751","0.0-100.0","5C4CFCDF55C9401EA3009A8BDE811A8C","019cef9f-935d-76ef-ab0b-de09b63d83b4","019cef87-c56d-7b55-9135-c5814367ec25","","null","<div style=""background-color: white; width: 100vw; height: 100vh;""></div>","null","","","","","","","",""
"","","","","","html-keyboard-response","101","765767","0.0-101.0","5C4CFCDF55C9401EA3009A8BDE811A8C","019cef9f-935d-76ef-ab0b-de09b63d83b4","019cef87-c56d-7b55-9135-c5814367ec25","","null","
                <div class=""stimulus-container"">
                    <img src=""images/schematic_sequence/hotel_scheme/hotel_scheme_1.png"" class=""exp-image"">
                    <div class=""question-area""></div> 
                </div>","null","","","","","","","",""
"","","","","","html-button-response","102","767282","0.0-102.0","5C4CFCDF55C9401EA3009A8BDE811A8C","019cef9f-935d-76ef-ab0b-de09b63d83b4","019cef87-c56d-7b55-9135-c5814367ec25","","1515","
                <div class=""stimulus-container"">
                    <img src=""images/schematic_sequence/hotel_scheme/hotel_scheme_1.png"" class=""exp-image"">
                    <div class=""question-area"">
                        <p style=""font-size: 20px; font-weight: bold; margin: 0;"">Is there a person in this image?</p>
                    </div>
                </div>","1","main_experiment_trial","1","hotel_scheme","schematic_sequence","","","",""
"","","","","","html-keyboard-response","103","772293","0.0-103.0","5C4CFCDF55C9401EA3009A8BDE811A8C","019cef9f-935d-76ef-ab0b-de09b63d83b4","019cef87-c56d-7b55-9135-c5814367ec25","","null","
                <div class=""stimulus-container"">
                    <img src=""images/schematic_sequence/hotel_scheme/hotel_scheme_2.png"" class=""exp-image"">
                    <div class=""question-area""></div> 
                </div>","null","","","","","","","",""
"","","","","","html-button-response","104","772882","0.0-104.0","5C4CFCDF55C9401EA3009A8BDE811A8C","019cef9f-935d-76ef-ab0b-de09b63d83b4","019cef87-c56d-7b55-9135-c5814367ec25","","589","
                <div class=""stimulus-container"">
                    <img src=""images/schematic_sequence/hotel_scheme/hotel_scheme_2.png"" class=""exp-image"">
                    <div class=""question-area"">
                        <p style=""font-size: 20px; font-weight: bold; margin: 0;"">Is there a person in this image?</p>
                    </div>
                </div>","0","main_experiment_trial","2","hotel_scheme","schematic_sequence","","","",""
"","","","","","html-keyboard-response","105","778239","0.0-105.0","5C4CFCDF55C9401EA3009A8BDE811A8C","019cef9f-935d-76ef-ab0b-de09b63d83b4","019cef87-c56d-7b55-9135-c5814367ec25","","null","
                <div class=""stimulus-container"">
                    <img src=""images/schematic_sequence/hotel_scheme/hotel_scheme_3.png"" class=""exp-image"">
                    <div class=""question-area""></div> 
                </div>","null","","","","","","","",""
"","","","","","html-button-response","106","778953","0.0-106.0","5C4CFCDF55C9401EA3009A8BDE811A8C","019cef9f-935d-76ef-ab0b-de09b63d83b4","019cef87-c56d-7b55-9135-c5814367ec25","","712","
                <div class=""stimulus-container"">
                    <img src=""images/schematic_sequence/hotel_scheme/hotel_scheme_3.png"" class=""exp-image"">
                    <div class=""question-area"">
                        <p style=""font-size: 20px; font-weight: bold; margin: 0;"">Is there a person in this image?</p>
                    </div>
                </div>","0","main_experiment_trial","3","hotel_scheme","schematic_sequence","","","",""
"","","","","","html-keyboard-response","107","783963","0.0-107.0","5C4CFCDF55C9401EA3009A8BDE811A8C","019cef9f-935d-76ef-ab0b-de09b63d83b4","019cef87-c56d-7b55-9135-c5814367ec25","","null","
                <div class=""stimulus-container"">
                    <img src=""images/schematic_sequence/hotel_scheme/hotel_scheme_4.png"" class=""exp-image"">
                    <div class=""question-area""></div> 
                </div>","null","","","","","","","",""
"","","","","","html-button-response","108","784636","0.0-108.0","5C4CFCDF55C9401EA3009A8BDE811A8C","019cef9f-935d-76ef-ab0b-de09b63d83b4","019cef87-c56d-7b55-9135-c5814367ec25","","672","
                <div class=""stimulus-container"">
                    <img src=""images/schematic_sequence/hotel_scheme/hotel_scheme_4.png"" class=""exp-image"">
                    <div class=""question-area"">
                        <p style=""font-size: 20px; font-weight: bold; margin: 0;"">Is there a person in this image?</p>
                    </div>
                </div>","1","main_experiment_trial","4","hotel_scheme","schematic_sequence","","","",""
"","","","","","html-keyboard-response","109","789640","0.0-109.0","5C4CFCDF55C9401EA3009A8BDE811A8C","019cef9f-935d-76ef-ab0b-de09b63d83b4","019cef87-c56d-7b55-9135-c5814367ec25","","null","
                <div class=""stimulus-container"">
                    <img src=""images/schematic_sequence/hotel_scheme/hotel_scheme_5.png"" class=""exp-image"">
                    <div class=""question-area""></div> 
                </div>","null","","","","","","","",""
"","","","","","html-button-response","110","790264","0.0-110.0","5C4CFCDF55C9401EA3009A8BDE811A8C","019cef9f-935d-76ef-ab0b-de09b63d83b4","019cef87-c56d-7b55-9135-c5814367ec25","","623","
                <div class=""stimulus-container"">
                    <img src=""images/schematic_sequence/hotel_scheme/hotel_scheme_5.png"" class=""exp-image"">
                    <div class=""question-area"">
                        <p style=""font-size: 20px; font-weight: bold; margin: 0;"">Is there a person in this image?</p>
                    </div>
                </div>","0","main_experiment_trial","5","hotel_scheme","schematic_sequence","","","",""
"","","","","","html-keyboard-response","111","795268","0.0-111.0","5C4CFCDF55C9401EA3009A8BDE811A8C","019cef9f-935d-76ef-ab0b-de09b63d83b4","019cef87-c56d-7b55-9135-c5814367ec25","","null","
                <div class=""stimulus-container"">
                    <img src=""images/schematic_sequence/hotel_scheme/hotel_scheme_6.png"" class=""exp-image"">
                    <div class=""question-area""></div> 
                </div>","null","","","","","","","",""
"","","","","","html-button-response","112","795804","0.0-112.0","5C4CFCDF55C9401EA3009A8BDE811A8C","019cef9f-935d-76ef-ab0b-de09b63d83b4","019cef87-c56d-7b55-9135-c5814367ec25","","536","
                <div class=""stimulus-container"">
                    <img src=""images/schematic_sequence/hotel_scheme/hotel_scheme_6.png"" class=""exp-image"">
                    <div class=""question-area"">
                        <p style=""font-size: 20px; font-weight: bold; margin: 0;"">Is there a person in this image?</p>
                    </div>
                </div>","0","main_experiment_trial","6","hotel_scheme","schematic_sequence","","","",""
"","","","","","html-keyboard-response","113","800812","0.0-113.0","5C4CFCDF55C9401EA3009A8BDE811A8C","019cef9f-935d-76ef-ab0b-de09b63d83b4","019cef87-c56d-7b55-9135-c5814367ec25","","null","
                <div class=""stimulus-container"">
                    <img src=""images/schematic_sequence/hotel_scheme/hotel_scheme_7.png"" class=""exp-image"">
                    <div class=""question-area""></div> 
                </div>","null","","","","","","","",""
"","","","","","html-button-response","114","801748","0.0-114.0","5C4CFCDF55C9401EA3009A8BDE811A8C","019cef9f-935d-76ef-ab0b-de09b63d83b4","019cef87-c56d-7b55-9135-c5814367ec25","","936","
                <div class=""stimulus-container"">
                    <img src=""images/schematic_sequence/hotel_scheme/hotel_scheme_7.png"" class=""exp-image"">
                    <div class=""question-area"">
                        <p style=""font-size: 20px; font-weight: bold; margin: 0;"">Is there a person in this image?</p>
                    </div>
                </div>","0","main_experiment_trial","7","hotel_scheme","schematic_sequence","","","",""
"","","","","","html-keyboard-response","115","806895","0.0-115.0","5C4CFCDF55C9401EA3009A8BDE811A8C","019cef9f-935d-76ef-ab0b-de09b63d83b4","019cef87-c56d-7b55-9135-c5814367ec25","","null","
                <div class=""stimulus-container"">
                    <img src=""images/schematic_sequence/hotel_scheme/hotel_scheme_8.png"" class=""exp-image"">
                    <div class=""question-area""></div> 
                </div>","null","","","","","","","",""
"","","","","","html-button-response","116","807444","0.0-116.0","5C4CFCDF55C9401EA3009A8BDE811A8C","019cef9f-935d-76ef-ab0b-de09b63d83b4","019cef87-c56d-7b55-9135-c5814367ec25","","547","
                <div class=""stimulus-container"">
                    <img src=""images/schematic_sequence/hotel_scheme/hotel_scheme_8.png"" class=""exp-image"">
                    <div class=""question-area"">
                        <p style=""font-size: 20px; font-weight: bold; margin: 0;"">Is there a person in this image?</p>
                    </div>
                </div>","0","main_experiment_trial","8","hotel_scheme","schematic_sequence","","","",""
"","","","","","html-keyboard-response","117","812451","0.0-117.0","5C4CFCDF55C9401EA3009A8BDE811A8C","019cef9f-935d-76ef-ab0b-de09b63d83b4","019cef87-c56d-7b55-9135-c5814367ec25","","null","
                <div class=""stimulus-container"">
                    <img src=""images/schematic_sequence/hotel_scheme/hotel_scheme_9.png"" class=""exp-image"">
                    <div class=""question-area""></div> 
                </div>","null","","","","","","","",""
"","","","","","html-button-response","118","812898","0.0-118.0","5C4CFCDF55C9401EA3009A8BDE811A8C","019cef9f-935d-76ef-ab0b-de09b63d83b4","019cef87-c56d-7b55-9135-c5814367ec25","","447","
                <div class=""stimulus-container"">
                    <img src=""images/schematic_sequence/hotel_scheme/hotel_scheme_9.png"" class=""exp-image"">
                    <div class=""question-area"">
                        <p style=""font-size: 20px; font-weight: bold; margin: 0;"">Is there a person in this image?</p>
                    </div>
                </div>","0","main_experiment_trial","9","hotel_scheme","schematic_sequence","","","",""
"","","","","","html-keyboard-response","119","817910","0.0-119.0","5C4CFCDF55C9401EA3009A8BDE811A8C","019cef9f-935d-76ef-ab0b-de09b63d83b4","019cef87-c56d-7b55-9135-c5814367ec25","","null","
                <div class=""stimulus-container"">
                    <img src=""images/schematic_sequence/hotel_scheme/hotel_scheme_ten.png"" class=""exp-image"">
                    <div class=""question-area""></div> 
                </div>","null","","","","","","","",""
"","","","","","html-button-response","120","818535","0.0-120.0","5C4CFCDF55C9401EA3009A8BDE811A8C","019cef9f-935d-76ef-ab0b-de09b63d83b4","019cef87-c56d-7b55-9135-c5814367ec25","","624","
                <div class=""stimulus-container"">
                    <img src=""images/schematic_sequence/hotel_scheme/hotel_scheme_ten.png"" class=""exp-image"">
                    <div class=""question-area"">
                        <p style=""font-size: 20px; font-weight: bold; margin: 0;"">Is there a person in this image?</p>
                    </div>
                </div>","0","main_experiment_trial","ten","hotel_scheme","schematic_sequence","","","",""
"","","","","","html-keyboard-response","121","819541","0.0-121.0","5C4CFCDF55C9401EA3009A8BDE811A8C","019cef9f-935d-76ef-ab0b-de09b63d83b4","019cef87-c56d-7b55-9135-c5814367ec25","","null","<div style=""background-color: white; width: 100vw; height: 100vh;""></div>","null","","","","","","","",""
"","","","","","html-keyboard-response","122","824542","0.0-122.0","5C4CFCDF55C9401EA3009A8BDE811A8C","019cef9f-935d-76ef-ab0b-de09b63d83b4","019cef87-c56d-7b55-9135-c5814367ec25","","null","
                <div class=""stimulus-container"">
                    <img src=""images/causal_sequence/coin_causal/coin_causal_1.png"" class=""exp-image"">
                    <div class=""question-area""></div> 
                </div>","null","","","","","","","",""
"","","","","","html-button-response","123","825011","0.0-123.0","5C4CFCDF55C9401EA3009A8BDE811A8C","019cef9f-935d-76ef-ab0b-de09b63d83b4","019cef87-c56d-7b55-9135-c5814367ec25","","470","
                <div class=""stimulus-container"">
                    <img src=""images/causal_sequence/coin_causal/coin_causal_1.png"" class=""exp-image"">
                    <div class=""question-area"">
                        <p style=""font-size: 20px; font-weight: bold; margin: 0;"">Is there a person in this image?</p>
                    </div>
                </div>","0","main_experiment_trial","1","coin_causal","causal_sequence","","","",""
"","","","","","html-keyboard-response","124","830573","0.0-124.0","5C4CFCDF55C9401EA3009A8BDE811A8C","019cef9f-935d-76ef-ab0b-de09b63d83b4","019cef87-c56d-7b55-9135-c5814367ec25","","null","
                <div class=""stimulus-container"">
                    <img src=""images/causal_sequence/coin_causal/coin_causal_2.png"" class=""exp-image"">
                    <div class=""question-area""></div> 
                </div>","null","","","","","","","",""
"","","","","","html-button-response","125","831159","0.0-125.0","5C4CFCDF55C9401EA3009A8BDE811A8C","019cef9f-935d-76ef-ab0b-de09b63d83b4","019cef87-c56d-7b55-9135-c5814367ec25","","585","
                <div class=""stimulus-container"">
                    <img src=""images/causal_sequence/coin_causal/coin_causal_2.png"" class=""exp-image"">
                    <div class=""question-area"">
                        <p style=""font-size: 20px; font-weight: bold; margin: 0;"">Is there a person in this image?</p>
                    </div>
                </div>","0","main_experiment_trial","2","coin_causal","causal_sequence","","","",""
"","","","","","html-keyboard-response","126","836174","0.0-126.0","5C4CFCDF55C9401EA3009A8BDE811A8C","019cef9f-935d-76ef-ab0b-de09b63d83b4","019cef87-c56d-7b55-9135-c5814367ec25","","null","
                <div class=""stimulus-container"">
                    <img src=""images/causal_sequence/coin_causal/coin_causal_3.png"" class=""exp-image"">
                    <div class=""question-area""></div> 
                </div>","null","","","","","","","",""
"","","","","","html-button-response","127","836885","0.0-127.0","5C4CFCDF55C9401EA3009A8BDE811A8C","019cef9f-935d-76ef-ab0b-de09b63d83b4","019cef87-c56d-7b55-9135-c5814367ec25","","711","
                <div class=""stimulus-container"">
                    <img src=""images/causal_sequence/coin_causal/coin_causal_3.png"" class=""exp-image"">
                    <div class=""question-area"">
                        <p style=""font-size: 20px; font-weight: bold; margin: 0;"">Is there a person in this image?</p>
                    </div>
                </div>","0","main_experiment_trial","3","coin_causal","causal_sequence","","","",""
"","","","","","html-keyboard-response","128","841891","0.0-128.0","5C4CFCDF55C9401EA3009A8BDE811A8C","019cef9f-935d-76ef-ab0b-de09b63d83b4","019cef87-c56d-7b55-9135-c5814367ec25","","null","
                <div class=""stimulus-container"">
                    <img src=""images/causal_sequence/coin_causal/coin_causal_4.png"" class=""exp-image"">
                    <div class=""question-area""></div> 
                </div>","null","","","","","","","",""
"","","","","","html-button-response","129","842524","0.0-129.0","5C4CFCDF55C9401EA3009A8BDE811A8C","019cef9f-935d-76ef-ab0b-de09b63d83b4","019cef87-c56d-7b55-9135-c5814367ec25","","632","
                <div class=""stimulus-container"">
                    <img src=""images/causal_sequence/coin_causal/coin_causal_4.png"" class=""exp-image"">
                    <div class=""question-area"">
                        <p style=""font-size: 20px; font-weight: bold; margin: 0;"">Is there a person in this image?</p>
                    </div>
                </div>","0","main_experiment_trial","4","coin_causal","causal_sequence","","","",""
"","","","","","html-keyboard-response","130","847531","0.0-130.0","5C4CFCDF55C9401EA3009A8BDE811A8C","019cef9f-935d-76ef-ab0b-de09b63d83b4","019cef87-c56d-7b55-9135-c5814367ec25","","null","
                <div class=""stimulus-container"">
                    <img src=""images/causal_sequence/coin_causal/coin_causal_5.png"" class=""exp-image"">
                    <div class=""question-area""></div> 
                </div>","null","","","","","","","",""
"","","","","","html-button-response","131","848072","0.0-131.0","5C4CFCDF55C9401EA3009A8BDE811A8C","019cef9f-935d-76ef-ab0b-de09b63d83b4","019cef87-c56d-7b55-9135-c5814367ec25","","541","
                <div class=""stimulus-container"">
                    <img src=""images/causal_sequence/coin_causal/coin_causal_5.png"" class=""exp-image"">
                    <div class=""question-area"">
                        <p style=""font-size: 20px; font-weight: bold; margin: 0;"">Is there a person in this image?</p>
                    </div>
                </div>","0","main_experiment_trial","5","coin_causal","causal_sequence","","","",""
"","","","","","html-keyboard-response","132","853090","0.0-132.0","5C4CFCDF55C9401EA3009A8BDE811A8C","019cef9f-935d-76ef-ab0b-de09b63d83b4","019cef87-c56d-7b55-9135-c5814367ec25","","null","
                <div class=""stimulus-container"">
                    <img src=""images/causal_sequence/coin_causal/coin_causal_6.png"" class=""exp-image"">
                    <div class=""question-area""></div> 
                </div>","null","","","","","","","",""
"","","","","","html-button-response","133","853527","0.0-133.0","5C4CFCDF55C9401EA3009A8BDE811A8C","019cef9f-935d-76ef-ab0b-de09b63d83b4","019cef87-c56d-7b55-9135-c5814367ec25","","435","
                <div class=""stimulus-container"">
                    <img src=""images/causal_sequence/coin_causal/coin_causal_6.png"" class=""exp-image"">
                    <div class=""question-area"">
                        <p style=""font-size: 20px; font-weight: bold; margin: 0;"">Is there a person in this image?</p>
                    </div>
                </div>","0","main_experiment_trial","6","coin_causal","causal_sequence","","","",""
"","","","","","html-keyboard-response","134","858638","0.0-134.0","5C4CFCDF55C9401EA3009A8BDE811A8C","019cef9f-935d-76ef-ab0b-de09b63d83b4","019cef87-c56d-7b55-9135-c5814367ec25","","null","
                <div class=""stimulus-container"">
                    <img src=""images/causal_sequence/coin_causal/coin_causal_7.png"" class=""exp-image"">
                    <div class=""question-area""></div> 
                </div>","null","","","","","","","",""
"","","","","","html-button-response","135","859288","0.0-135.0","5C4CFCDF55C9401EA3009A8BDE811A8C","019cef9f-935d-76ef-ab0b-de09b63d83b4","019cef87-c56d-7b55-9135-c5814367ec25","","649","
                <div class=""stimulus-container"">
                    <img src=""images/causal_sequence/coin_causal/coin_causal_7.png"" class=""exp-image"">
                    <div class=""question-area"">
                        <p style=""font-size: 20px; font-weight: bold; margin: 0;"">Is there a person in this image?</p>
                    </div>
                </div>","1","main_experiment_trial","7","coin_causal","causal_sequence","","","",""
"","","","","","html-keyboard-response","136","864294","0.0-136.0","5C4CFCDF55C9401EA3009A8BDE811A8C","019cef9f-935d-76ef-ab0b-de09b63d83b4","019cef87-c56d-7b55-9135-c5814367ec25","","null","
                <div class=""stimulus-container"">
                    <img src=""images/causal_sequence/coin_causal/coin_causal_8.png"" class=""exp-image"">
                    <div class=""question-area""></div> 
                </div>","null","","","","","","","",""
"","","","","","html-button-response","137","865086","0.0-137.0","5C4CFCDF55C9401EA3009A8BDE811A8C","019cef9f-935d-76ef-ab0b-de09b63d83b4","019cef87-c56d-7b55-9135-c5814367ec25","","792","
                <div class=""stimulus-container"">
                    <img src=""images/causal_sequence/coin_causal/coin_causal_8.png"" class=""exp-image"">
                    <div class=""question-area"">
                        <p style=""font-size: 20px; font-weight: bold; margin: 0;"">Is there a person in this image?</p>
                    </div>
                </div>","0","main_experiment_trial","8","coin_causal","causal_sequence","","","",""
"","","","","","html-keyboard-response","138","870455","0.0-138.0","5C4CFCDF55C9401EA3009A8BDE811A8C","019cef9f-935d-76ef-ab0b-de09b63d83b4","019cef87-c56d-7b55-9135-c5814367ec25","","null","
                <div class=""stimulus-container"">
                    <img src=""images/causal_sequence/coin_causal/coin_causal_9.png"" class=""exp-image"">
                    <div class=""question-area""></div> 
                </div>","null","","","","","","","",""
"","","","","","html-button-response","139","870905","0.0-139.0","5C4CFCDF55C9401EA3009A8BDE811A8C","019cef9f-935d-76ef-ab0b-de09b63d83b4","019cef87-c56d-7b55-9135-c5814367ec25","","450","
                <div class=""stimulus-container"">
                    <img src=""images/causal_sequence/coin_causal/coin_causal_9.png"" class=""exp-image"">
                    <div class=""question-area"">
                        <p style=""font-size: 20px; font-weight: bold; margin: 0;"">Is there a person in this image?</p>
                    </div>
                </div>","0","main_experiment_trial","9","coin_causal","causal_sequence","","","",""
"","","","","","html-keyboard-response","140","875919","0.0-140.0","5C4CFCDF55C9401EA3009A8BDE811A8C","019cef9f-935d-76ef-ab0b-de09b63d83b4","019cef87-c56d-7b55-9135-c5814367ec25","","null","
                <div class=""stimulus-container"">
                    <img src=""images/causal_sequence/coin_causal/coin_causal_ten.png"" class=""exp-image"">
                    <div class=""question-area""></div> 
                </div>","null","","","","","","","",""
"","","","","","html-button-response","141","876423","0.0-141.0","5C4CFCDF55C9401EA3009A8BDE811A8C","019cef9f-935d-76ef-ab0b-de09b63d83b4","019cef87-c56d-7b55-9135-c5814367ec25","","504","
                <div class=""stimulus-container"">
                    <img src=""images/causal_sequence/coin_causal/coin_causal_ten.png"" class=""exp-image"">
                    <div class=""question-area"">
                        <p style=""font-size: 20px; font-weight: bold; margin: 0;"">Is there a person in this image?</p>
                    </div>
                </div>","0","main_experiment_trial","ten","coin_causal","causal_sequence","","","",""
"","","","","","html-keyboard-response","142","877434","0.0-142.0","5C4CFCDF55C9401EA3009A8BDE811A8C","019cef9f-935d-76ef-ab0b-de09b63d83b4","019cef87-c56d-7b55-9135-c5814367ec25","","null","<div style=""background-color: white; width: 100vw; height: 100vh;""></div>","null","","","","","","","",""
"","","","","","html-keyboard-response","143","882443","0.0-143.0","5C4CFCDF55C9401EA3009A8BDE811A8C","019cef9f-935d-76ef-ab0b-de09b63d83b4","019cef87-c56d-7b55-9135-c5814367ec25","","null","
                <div class=""stimulus-container"">
                    <img src=""images/causal_sequence/dog_causal/dog_causal_1.png"" class=""exp-image"">
                    <div class=""question-area""></div> 
                </div>","null","","","","","","","",""
"","","","","","html-button-response","144","883051","0.0-144.0","5C4CFCDF55C9401EA3009A8BDE811A8C","019cef9f-935d-76ef-ab0b-de09b63d83b4","019cef87-c56d-7b55-9135-c5814367ec25","","609","
                <div class=""stimulus-container"">
                    <img src=""images/causal_sequence/dog_causal/dog_causal_1.png"" class=""exp-image"">
                    <div class=""question-area"">
                        <p style=""font-size: 20px; font-weight: bold; margin: 0;"">Is there a person in this image?</p>
                    </div>
                </div>","0","main_experiment_trial","1","dog_causal","causal_sequence","","","",""
"","","","","","html-keyboard-response","145","888057","0.0-145.0","5C4CFCDF55C9401EA3009A8BDE811A8C","019cef9f-935d-76ef-ab0b-de09b63d83b4","019cef87-c56d-7b55-9135-c5814367ec25","","null","
                <div class=""stimulus-container"">
                    <img src=""images/causal_sequence/dog_causal/dog_causal_2.png"" class=""exp-image"">
                    <div class=""question-area""></div> 
                </div>","null","","","","","","","",""
"","","","","","html-button-response","146","888409","0.0-146.0","5C4CFCDF55C9401EA3009A8BDE811A8C","019cef9f-935d-76ef-ab0b-de09b63d83b4","019cef87-c56d-7b55-9135-c5814367ec25","","350","
                <div class=""stimulus-container"">
                    <img src=""images/causal_sequence/dog_causal/dog_causal_2.png"" class=""exp-image"">
                    <div class=""question-area"">
                        <p style=""font-size: 20px; font-weight: bold; margin: 0;"">Is there a person in this image?</p>
                    </div>
                </div>","0","main_experiment_trial","2","dog_causal","causal_sequence","","","",""
"","","","","","html-keyboard-response","147","893720","0.0-147.0","5C4CFCDF55C9401EA3009A8BDE811A8C","019cef9f-935d-76ef-ab0b-de09b63d83b4","019cef87-c56d-7b55-9135-c5814367ec25","","null","
                <div class=""stimulus-container"">
                    <img src=""images/causal_sequence/dog_causal/dog_causal_3.png"" class=""exp-image"">
                    <div class=""question-area""></div> 
                </div>","null","","","","","","","",""
"","","","","","html-button-response","148","894157","0.0-148.0","5C4CFCDF55C9401EA3009A8BDE811A8C","019cef9f-935d-76ef-ab0b-de09b63d83b4","019cef87-c56d-7b55-9135-c5814367ec25","","435","
                <div class=""stimulus-container"">
                    <img src=""images/causal_sequence/dog_causal/dog_causal_3.png"" class=""exp-image"">
                    <div class=""question-area"">
                        <p style=""font-size: 20px; font-weight: bold; margin: 0;"">Is there a person in this image?</p>
                    </div>
                </div>","0","main_experiment_trial","3","dog_causal","causal_sequence","","","",""
"","","","","","html-keyboard-response","149","899172","0.0-149.0","5C4CFCDF55C9401EA3009A8BDE811A8C","019cef9f-935d-76ef-ab0b-de09b63d83b4","019cef87-c56d-7b55-9135-c5814367ec25","","null","
                <div class=""stimulus-container"">
                    <img src=""images/causal_sequence/dog_causal/dog_causal_4.png"" class=""exp-image"">
                    <div class=""question-area""></div> 
                </div>","null","","","","","","","",""
"","","","","","html-button-response","150","899650","0.0-150.0","5C4CFCDF55C9401EA3009A8BDE811A8C","019cef9f-935d-76ef-ab0b-de09b63d83b4","019cef87-c56d-7b55-9135-c5814367ec25","","477","
                <div class=""stimulus-container"">
                    <img src=""images/causal_sequence/dog_causal/dog_causal_4.png"" class=""exp-image"">
                    <div class=""question-area"">
                        <p style=""font-size: 20px; font-weight: bold; margin: 0;"">Is there a person in this image?</p>
                    </div>
                </div>","0","main_experiment_trial","4","dog_causal","causal_sequence","","","",""
"","","","","","html-keyboard-response","151","904652","0.0-151.0","5C4CFCDF55C9401EA3009A8BDE811A8C","019cef9f-935d-76ef-ab0b-de09b63d83b4","019cef87-c56d-7b55-9135-c5814367ec25","","null","
                <div class=""stimulus-container"">
                    <img src=""images/causal_sequence/dog_causal/dog_causal_5.png"" class=""exp-image"">
                    <div class=""question-area""></div> 
                </div>","null","","","","","","","",""
"","","","","","html-button-response","152","905370","0.0-152.0","5C4CFCDF55C9401EA3009A8BDE811A8C","019cef9f-935d-76ef-ab0b-de09b63d83b4","019cef87-c56d-7b55-9135-c5814367ec25","","717","
                <div class=""stimulus-container"">
                    <img src=""images/causal_sequence/dog_causal/dog_causal_5.png"" class=""exp-image"">
                    <div class=""question-area"">
                        <p style=""font-size: 20px; font-weight: bold; margin: 0;"">Is there a person in this image?</p>
                    </div>
                </div>","0","main_experiment_trial","5","dog_causal","causal_sequence","","","",""
"","","","","","html-keyboard-response","153","910376","0.0-153.0","5C4CFCDF55C9401EA3009A8BDE811A8C","019cef9f-935d-76ef-ab0b-de09b63d83b4","019cef87-c56d-7b55-9135-c5814367ec25","","null","
                <div class=""stimulus-container"">
                    <img src=""images/causal_sequence/dog_causal/dog_causal_6.png"" class=""exp-image"">
                    <div class=""question-area""></div> 
                </div>","null","","","","","","","",""
"","","","","","html-button-response","154","911188","0.0-154.0","5C4CFCDF55C9401EA3009A8BDE811A8C","019cef9f-935d-76ef-ab0b-de09b63d83b4","019cef87-c56d-7b55-9135-c5814367ec25","","811","
                <div class=""stimulus-container"">
                    <img src=""images/causal_sequence/dog_causal/dog_causal_6.png"" class=""exp-image"">
                    <div class=""question-area"">
                        <p style=""font-size: 20px; font-weight: bold; margin: 0;"">Is there a person in this image?</p>
                    </div>
                </div>","0","main_experiment_trial","6","dog_causal","causal_sequence","","","",""
"","","","","","html-keyboard-response","155","916191","0.0-155.0","5C4CFCDF55C9401EA3009A8BDE811A8C","019cef9f-935d-76ef-ab0b-de09b63d83b4","019cef87-c56d-7b55-9135-c5814367ec25","","null","
                <div class=""stimulus-container"">
                    <img src=""images/causal_sequence/dog_causal/dog_causal_7.png"" class=""exp-image"">
                    <div class=""question-area""></div> 
                </div>","null","","","","","","","",""
"","","","","","html-button-response","156","916876","0.0-156.0","5C4CFCDF55C9401EA3009A8BDE811A8C","019cef9f-935d-76ef-ab0b-de09b63d83b4","019cef87-c56d-7b55-9135-c5814367ec25","","684","
                <div class=""stimulus-container"">
                    <img src=""images/causal_sequence/dog_causal/dog_causal_7.png"" class=""exp-image"">
                    <div class=""question-area"">
                        <p style=""font-size: 20px; font-weight: bold; margin: 0;"">Is there a person in this image?</p>
                    </div>
                </div>","0","main_experiment_trial","7","dog_causal","causal_sequence","","","",""
"","","","","","html-keyboard-response","157","921948","0.0-157.0","5C4CFCDF55C9401EA3009A8BDE811A8C","019cef9f-935d-76ef-ab0b-de09b63d83b4","019cef87-c56d-7b55-9135-c5814367ec25","","null","
                <div class=""stimulus-container"">
                    <img src=""images/causal_sequence/dog_causal/dog_causal_8.png"" class=""exp-image"">
                    <div class=""question-area""></div> 
                </div>","null","","","","","","","",""
"","","","","","html-button-response","158","922890","0.0-158.0","5C4CFCDF55C9401EA3009A8BDE811A8C","019cef9f-935d-76ef-ab0b-de09b63d83b4","019cef87-c56d-7b55-9135-c5814367ec25","","941","
                <div class=""stimulus-container"">
                    <img src=""images/causal_sequence/dog_causal/dog_causal_8.png"" class=""exp-image"">
                    <div class=""question-area"">
                        <p style=""font-size: 20px; font-weight: bold; margin: 0;"">Is there a person in this image?</p>
                    </div>
                </div>","0","main_experiment_trial","8","dog_causal","causal_sequence","","","",""
"","","","","","html-keyboard-response","159","927899","0.0-159.0","5C4CFCDF55C9401EA3009A8BDE811A8C","019cef9f-935d-76ef-ab0b-de09b63d83b4","019cef87-c56d-7b55-9135-c5814367ec25","","null","
                <div class=""stimulus-container"">
                    <img src=""images/causal_sequence/dog_causal/dog_causal_9.png"" class=""exp-image"">
                    <div class=""question-area""></div> 
                </div>","null","","","","","","","",""
"","","","","","html-button-response","160","929132","0.0-160.0","5C4CFCDF55C9401EA3009A8BDE811A8C","019cef9f-935d-76ef-ab0b-de09b63d83b4","019cef87-c56d-7b55-9135-c5814367ec25","","1233","
                <div class=""stimulus-container"">
                    <img src=""images/causal_sequence/dog_causal/dog_causal_9.png"" class=""exp-image"">
                    <div class=""question-area"">
                        <p style=""font-size: 20px; font-weight: bold; margin: 0;"">Is there a person in this image?</p>
                    </div>
                </div>","0","main_experiment_trial","9","dog_causal","causal_sequence","","","",""
"","","","","","html-keyboard-response","161","934136","0.0-161.0","5C4CFCDF55C9401EA3009A8BDE811A8C","019cef9f-935d-76ef-ab0b-de09b63d83b4","019cef87-c56d-7b55-9135-c5814367ec25","","null","
                <div class=""stimulus-container"">
                    <img src=""images/causal_sequence/dog_causal/dog_causal_ten.png"" class=""exp-image"">
                    <div class=""question-area""></div> 
                </div>","null","","","","","","","",""
"","","","","","html-button-response","162","934594","0.0-162.0","5C4CFCDF55C9401EA3009A8BDE811A8C","019cef9f-935d-76ef-ab0b-de09b63d83b4","019cef87-c56d-7b55-9135-c5814367ec25","","456","
                <div class=""stimulus-container"">
                    <img src=""images/causal_sequence/dog_causal/dog_causal_ten.png"" class=""exp-image"">
                    <div class=""question-area"">
                        <p style=""font-size: 20px; font-weight: bold; margin: 0;"">Is there a person in this image?</p>
                    </div>
                </div>","0","main_experiment_trial","ten","dog_causal","causal_sequence","","","",""
"","","","","","html-keyboard-response","163","935599","0.0-163.0","5C4CFCDF55C9401EA3009A8BDE811A8C","019cef9f-935d-76ef-ab0b-de09b63d83b4","019cef87-c56d-7b55-9135-c5814367ec25","","null","<div style=""background-color: white; width: 100vw; height: 100vh;""></div>","null","","","","","","","",""
"","","","","","html-keyboard-response","164","940613","0.0-164.0","5C4CFCDF55C9401EA3009A8BDE811A8C","019cef9f-935d-76ef-ab0b-de09b63d83b4","019cef87-c56d-7b55-9135-c5814367ec25","","null","
                <div class=""stimulus-container"">
                    <img src=""images/causal_sequence/the_performance_causal/the_performance_causal_1.png"" class=""exp-image"">
                    <div class=""question-area""></div> 
                </div>","null","","","","","","","",""
"","","","","","html-button-response","165","941221","0.0-165.0","5C4CFCDF55C9401EA3009A8BDE811A8C","019cef9f-935d-76ef-ab0b-de09b63d83b4","019cef87-c56d-7b55-9135-c5814367ec25","","606","
                <div class=""stimulus-container"">
                    <img src=""images/causal_sequence/the_performance_causal/the_performance_causal_1.png"" class=""exp-image"">
                    <div class=""question-area"">
                        <p style=""font-size: 20px; font-weight: bold; margin: 0;"">Is there a person in this image?</p>
                    </div>
                </div>","0","main_experiment_trial","1","the_performance_causal","causal_sequence","","","",""
"","","","","","html-keyboard-response","166","946222","0.0-166.0","5C4CFCDF55C9401EA3009A8BDE811A8C","019cef9f-935d-76ef-ab0b-de09b63d83b4","019cef87-c56d-7b55-9135-c5814367ec25","","null","
                <div class=""stimulus-container"">
                    <img src=""images/causal_sequence/the_performance_causal/the_performance_causal_2.png"" class=""exp-image"">
                    <div class=""question-area""></div> 
                </div>","null","","","","","","","",""
"","","","","","html-button-response","167","946958","0.0-167.0","5C4CFCDF55C9401EA3009A8BDE811A8C","019cef9f-935d-76ef-ab0b-de09b63d83b4","019cef87-c56d-7b55-9135-c5814367ec25","","736","
                <div class=""stimulus-container"">
                    <img src=""images/causal_sequence/the_performance_causal/the_performance_causal_2.png"" class=""exp-image"">
                    <div class=""question-area"">
                        <p style=""font-size: 20px; font-weight: bold; margin: 0;"">Is there a person in this image?</p>
                    </div>
                </div>","0","main_experiment_trial","2","the_performance_causal","causal_sequence","","","",""
"","","","","","html-keyboard-response","168","951962","0.0-168.0","5C4CFCDF55C9401EA3009A8BDE811A8C","019cef9f-935d-76ef-ab0b-de09b63d83b4","019cef87-c56d-7b55-9135-c5814367ec25","","null","
                <div class=""stimulus-container"">
                    <img src=""images/causal_sequence/the_performance_causal/the_performance_causal_3.png"" class=""exp-image"">
                    <div class=""question-area""></div> 
                </div>","null","","","","","","","",""
"","","","","","html-button-response","169","952554","0.0-169.0","5C4CFCDF55C9401EA3009A8BDE811A8C","019cef9f-935d-76ef-ab0b-de09b63d83b4","019cef87-c56d-7b55-9135-c5814367ec25","","592","
                <div class=""stimulus-container"">
                    <img src=""images/causal_sequence/the_performance_causal/the_performance_causal_3.png"" class=""exp-image"">
                    <div class=""question-area"">
                        <p style=""font-size: 20px; font-weight: bold; margin: 0;"">Is there a person in this image?</p>
                    </div>
                </div>","0","main_experiment_trial","3","the_performance_causal","causal_sequence","","","",""
"","","","","","html-keyboard-response","170","957566","0.0-170.0","5C4CFCDF55C9401EA3009A8BDE811A8C","019cef9f-935d-76ef-ab0b-de09b63d83b4","019cef87-c56d-7b55-9135-c5814367ec25","","null","
                <div class=""stimulus-container"">
                    <img src=""images/causal_sequence/the_performance_causal/the_performance_causal_4.png"" class=""exp-image"">
                    <div class=""question-area""></div> 
                </div>","null","","","","","","","",""
"","","","","","html-button-response","171","958187","0.0-171.0","5C4CFCDF55C9401EA3009A8BDE811A8C","019cef9f-935d-76ef-ab0b-de09b63d83b4","019cef87-c56d-7b55-9135-c5814367ec25","","621","
                <div class=""stimulus-container"">
                    <img src=""images/causal_sequence/the_performance_causal/the_performance_causal_4.png"" class=""exp-image"">
                    <div class=""question-area"">
                        <p style=""font-size: 20px; font-weight: bold; margin: 0;"">Is there a person in this image?</p>
                    </div>
                </div>","0","main_experiment_trial","4","the_performance_causal","causal_sequence","","","",""
"","","","","","html-keyboard-response","172","963191","0.0-172.0","5C4CFCDF55C9401EA3009A8BDE811A8C","019cef9f-935d-76ef-ab0b-de09b63d83b4","019cef87-c56d-7b55-9135-c5814367ec25","","null","
                <div class=""stimulus-container"">
                    <img src=""images/causal_sequence/the_performance_causal/the_performance_causal_5.png"" class=""exp-image"">
                    <div class=""question-area""></div> 
                </div>","null","","","","","","","",""
"","","","","","html-button-response","173","963728","0.0-173.0","5C4CFCDF55C9401EA3009A8BDE811A8C","019cef9f-935d-76ef-ab0b-de09b63d83b4","019cef87-c56d-7b55-9135-c5814367ec25","","535","
                <div class=""stimulus-container"">
                    <img src=""images/causal_sequence/the_performance_causal/the_performance_causal_5.png"" class=""exp-image"">
                    <div class=""question-area"">
                        <p style=""font-size: 20px; font-weight: bold; margin: 0;"">Is there a person in this image?</p>
                    </div>
                </div>","0","main_experiment_trial","5","the_performance_causal","causal_sequence","","","",""
"","","","","","html-keyboard-response","174","968731","0.0-174.0","5C4CFCDF55C9401EA3009A8BDE811A8C","019cef9f-935d-76ef-ab0b-de09b63d83b4","019cef87-c56d-7b55-9135-c5814367ec25","","null","
                <div class=""stimulus-container"">
                    <img src=""images/causal_sequence/the_performance_causal/the_performance_causal_6.png"" class=""exp-image"">
                    <div class=""question-area""></div> 
                </div>","null","","","","","","","",""
"","","","","","html-button-response","175","969305","0.0-175.0","5C4CFCDF55C9401EA3009A8BDE811A8C","019cef9f-935d-76ef-ab0b-de09b63d83b4","019cef87-c56d-7b55-9135-c5814367ec25","","573","
                <div class=""stimulus-container"">
                    <img src=""images/causal_sequence/the_performance_causal/the_performance_causal_6.png"" class=""exp-image"">
                    <div class=""question-area"">
                        <p style=""font-size: 20px; font-weight: bold; margin: 0;"">Is there a person in this image?</p>
                    </div>
                </div>","0","main_experiment_trial","6","the_performance_causal","causal_sequence","","","",""
"","","","","","html-keyboard-response","176","974307","0.0-176.0","5C4CFCDF55C9401EA3009A8BDE811A8C","019cef9f-935d-76ef-ab0b-de09b63d83b4","019cef87-c56d-7b55-9135-c5814367ec25","","null","
                <div class=""stimulus-container"">
                    <img src=""images/causal_sequence/the_performance_causal/the_performance_causal_7.png"" class=""exp-image"">
                    <div class=""question-area""></div> 
                </div>","null","","","","","","","",""
"","","","","","html-button-response","177","974970","0.0-177.0","5C4CFCDF55C9401EA3009A8BDE811A8C","019cef9f-935d-76ef-ab0b-de09b63d83b4","019cef87-c56d-7b55-9135-c5814367ec25","","661","
                <div class=""stimulus-container"">
                    <img src=""images/causal_sequence/the_performance_causal/the_performance_causal_7.png"" class=""exp-image"">
                    <div class=""question-area"">
                        <p style=""font-size: 20px; font-weight: bold; margin: 0;"">Is there a person in this image?</p>
                    </div>
                </div>","0","main_experiment_trial","7","the_performance_causal","causal_sequence","","","",""
"","","","","","html-keyboard-response","178","979981","0.0-178.0","5C4CFCDF55C9401EA3009A8BDE811A8C","019cef9f-935d-76ef-ab0b-de09b63d83b4","019cef87-c56d-7b55-9135-c5814367ec25","","null","
                <div class=""stimulus-container"">
                    <img src=""images/causal_sequence/the_performance_causal/the_performance_causal_8.png"" class=""exp-image"">
                    <div class=""question-area""></div> 
                </div>","null","","","","","","","",""
"","","","","","html-button-response","179","980667","0.0-179.0","5C4CFCDF55C9401EA3009A8BDE811A8C","019cef9f-935d-76ef-ab0b-de09b63d83b4","019cef87-c56d-7b55-9135-c5814367ec25","","684","
                <div class=""stimulus-container"">
                    <img src=""images/causal_sequence/the_performance_causal/the_performance_causal_8.png"" class=""exp-image"">
                    <div class=""question-area"">
                        <p style=""font-size: 20px; font-weight: bold; margin: 0;"">Is there a person in this image?</p>
                    </div>
                </div>","0","main_experiment_trial","8","the_performance_causal","causal_sequence","","","",""
"","","","","","html-keyboard-response","180","985762","0.0-180.0","5C4CFCDF55C9401EA3009A8BDE811A8C","019cef9f-935d-76ef-ab0b-de09b63d83b4","019cef87-c56d-7b55-9135-c5814367ec25","","null","
                <div class=""stimulus-container"">
                    <img src=""images/causal_sequence/the_performance_causal/the_performance_causal_9.png"" class=""exp-image"">
                    <div class=""question-area""></div> 
                </div>","null","","","","","","","",""
"","","","","","html-button-response","181","986302","0.0-181.0","5C4CFCDF55C9401EA3009A8BDE811A8C","019cef9f-935d-76ef-ab0b-de09b63d83b4","019cef87-c56d-7b55-9135-c5814367ec25","","540","
                <div class=""stimulus-container"">
                    <img src=""images/causal_sequence/the_performance_causal/the_performance_causal_9.png"" class=""exp-image"">
                    <div class=""question-area"">
                        <p style=""font-size: 20px; font-weight: bold; margin: 0;"">Is there a person in this image?</p>
                    </div>
                </div>","0","main_experiment_trial","9","the_performance_causal","causal_sequence","","","",""
"","","","","","html-keyboard-response","182","991315","0.0-182.0","5C4CFCDF55C9401EA3009A8BDE811A8C","019cef9f-935d-76ef-ab0b-de09b63d83b4","019cef87-c56d-7b55-9135-c5814367ec25","","null","
                <div class=""stimulus-container"">
                    <img src=""images/causal_sequence/the_performance_causal/the_performance_causal_ten.png"" class=""exp-image"">
                    <div class=""question-area""></div> 
                </div>","null","","","","","","","",""
"","","","","","html-button-response","183","991766","0.0-183.0","5C4CFCDF55C9401EA3009A8BDE811A8C","019cef9f-935d-76ef-ab0b-de09b63d83b4","019cef87-c56d-7b55-9135-c5814367ec25","","451","
                <div class=""stimulus-container"">
                    <img src=""images/causal_sequence/the_performance_causal/the_performance_causal_ten.png"" class=""exp-image"">
                    <div class=""question-area"">
                        <p style=""font-size: 20px; font-weight: bold; margin: 0;"">Is there a person in this image?</p>
                    </div>
                </div>","0","main_experiment_trial","ten","the_performance_causal","causal_sequence","","","",""
"","","","","","html-keyboard-response","184","992770","0.0-184.0","5C4CFCDF55C9401EA3009A8BDE811A8C","019cef9f-935d-76ef-ab0b-de09b63d83b4","019cef87-c56d-7b55-9135-c5814367ec25","","null","<div style=""background-color: white; width: 100vw; height: 100vh;""></div>","null","","","","","","","",""
"","","","","","html-keyboard-response","185","997775","0.0-185.0","5C4CFCDF55C9401EA3009A8BDE811A8C","019cef9f-935d-76ef-ab0b-de09b63d83b4","019cef87-c56d-7b55-9135-c5814367ec25","","null","
                <div class=""stimulus-container"">
                    <img src=""images/schematic_sequence/supermarket_scheme/supermarket_scheme_1.png"" class=""exp-image"">
                    <div class=""question-area""></div> 
                </div>","null","","","","","","","",""
"","","","","","html-button-response","186","998494","0.0-186.0","5C4CFCDF55C9401EA3009A8BDE811A8C","019cef9f-935d-76ef-ab0b-de09b63d83b4","019cef87-c56d-7b55-9135-c5814367ec25","","720","
