"success","timeout","failed_images","failed_audio","failed_video","trial_type","trial_index","time_elapsed","internal_node_id","subject_id","study_id","session_id","view_history","rt","stimulus","response","task","image_index","folder","sequence_type","presentation_order","valuable_image_index","reward_type","target_X","l_dist","r_dist","chosen_image_index","selected_after_X","correct_choice"
"true","false","[]","[]","[]","preload","0","41565","0.0-0.0","2A39186280D44F3FA5DA499DD20C4083","019d6675-2530-7314-a14c-62606dd9d1d8","019d6630-2071-75cb-8026-6699844a2719","","","","","","","","","","","","","","","","",""
"","","","","","instructions","1","219317","0.0-1.0","2A39186280D44F3FA5DA499DD20C4083","019d6675-2530-7314-a14c-62606dd9d1d8","019d6630-2071-75cb-8026-6699844a2719","[{""page_index"":0,""viewing_time"":177752}]","177752","","","","","","","","","","","","","","",""
"","","","","","instructions","2","223285","0.0-2.0","2A39186280D44F3FA5DA499DD20C4083","019d6675-2530-7314-a14c-62606dd9d1d8","019d6630-2071-75cb-8026-6699844a2719","[{""page_index"":0,""viewing_time"":3968}]","3968","","","","","","","","","","","","","","",""
"true","","","","","fullscreen","3","226436","0.0-3.0","2A39186280D44F3FA5DA499DD20C4083","019d6675-2530-7314-a14c-62606dd9d1d8","019d6630-2071-75cb-8026-6699844a2719","","2148","","","","","","","","","","","","","","",""
"","","","","","instructions","4","237734","0.0-4.0","2A39186280D44F3FA5DA499DD20C4083","019d6675-2530-7314-a14c-62606dd9d1d8","019d6630-2071-75cb-8026-6699844a2719","[{""page_index"":0,""viewing_time"":11298}]","11298","","","","","","","","","","","","","","",""
"","","","","","instructions","5","243617","0.0-5.0","2A39186280D44F3FA5DA499DD20C4083","019d6675-2530-7314-a14c-62606dd9d1d8","019d6630-2071-75cb-8026-6699844a2719","[{""page_index"":0,""viewing_time"":5882}]","5882","","","","","","","","","","","","","","",""
"","","","","","html-keyboard-response","6","247625","0.0-6.0","2A39186280D44F3FA5DA499DD20C4083","019d6675-2530-7314-a14c-62606dd9d1d8","019d6630-2071-75cb-8026-6699844a2719","","null","
                <div class=""stimulus-container"">
                    <img src=""images/instructions/movie_1.png"" class=""exp-image"">
                    <div class=""question-area""></div> 
                </div>","null","","","","","","","","","","","","",""
"","","","","","html-button-response","7","248868","0.0-7.0","2A39186280D44F3FA5DA499DD20C4083","019d6675-2530-7314-a14c-62606dd9d1d8","019d6630-2071-75cb-8026-6699844a2719","","1234","
                <div class=""stimulus-container"">
                    <img src=""images/instructions/movie_1.png"" class=""exp-image"">
                    <div class=""question-area"">
                        <p style=""font-size: 20px; font-weight: bold; margin: 0;"">Was there a person in this image?</p>
                    </div>
                </div>","0","example_question","1","","","","","","","","","","",""
"","","","","","html-keyboard-response","8","252875","0.0-8.0","2A39186280D44F3FA5DA499DD20C4083","019d6675-2530-7314-a14c-62606dd9d1d8","019d6630-2071-75cb-8026-6699844a2719","","null","
                <div class=""stimulus-container"">
                    <img src=""images/instructions/movie_2.png"" class=""exp-image"">
                    <div class=""question-area""></div> 
                </div>","null","","","","","","","","","","","","",""
"","","","","","html-button-response","9","253968","0.0-9.0","2A39186280D44F3FA5DA499DD20C4083","019d6675-2530-7314-a14c-62606dd9d1d8","019d6630-2071-75cb-8026-6699844a2719","","1086","
                <div class=""stimulus-container"">
                    <img src=""images/instructions/movie_2.png"" class=""exp-image"">
                    <div class=""question-area"">
                        <p style=""font-size: 20px; font-weight: bold; margin: 0;"">Was there a person in this image?</p>
                    </div>
                </div>","0","example_question","2","","","","","","","","","","",""
"","","","","","html-keyboard-response","10","257975","0.0-10.0","2A39186280D44F3FA5DA499DD20C4083","019d6675-2530-7314-a14c-62606dd9d1d8","019d6630-2071-75cb-8026-6699844a2719","","null","
                <div class=""stimulus-container"">
                    <img src=""images/instructions/movie_3.png"" class=""exp-image"">
                    <div class=""question-area""></div> 
                </div>","null","","","","","","","","","","","","",""
"","","","","","html-button-response","11","258835","0.0-11.0","2A39186280D44F3FA5DA499DD20C4083","019d6675-2530-7314-a14c-62606dd9d1d8","019d6630-2071-75cb-8026-6699844a2719","","853","
                <div class=""stimulus-container"">
                    <img src=""images/instructions/movie_3.png"" class=""exp-image"">
                    <div class=""question-area"">
                        <p style=""font-size: 20px; font-weight: bold; margin: 0;"">Was there a person in this image?</p>
                    </div>
                </div>","0","example_question","3","","","","","","","","","","",""
"","","","","","html-keyboard-response","12","262842","0.0-12.0","2A39186280D44F3FA5DA499DD20C4083","019d6675-2530-7314-a14c-62606dd9d1d8","019d6630-2071-75cb-8026-6699844a2719","","null","
                <div class=""stimulus-container"">
                    <img src=""images/instructions/movie_4.png"" class=""exp-image"">
                    <div class=""question-area""></div> 
                </div>","null","","","","","","","","","","","","",""
"","","","","","html-button-response","13","265850","0.0-13.0","2A39186280D44F3FA5DA499DD20C4083","019d6675-2530-7314-a14c-62606dd9d1d8","019d6630-2071-75cb-8026-6699844a2719","","null","
                <div class=""stimulus-container"">
                    <img src=""images/instructions/movie_4.png"" class=""exp-image"">
                    <div class=""question-area"">
                        <p style=""font-size: 20px; font-weight: bold; margin: 0;"">Was there a person in this image?</p>
                    </div>
                </div>","null","example_question","4","","","","","","","","","","",""
"","","","","","instructions","14","268617","0.0-14.0","2A39186280D44F3FA5DA499DD20C4083","019d6675-2530-7314-a14c-62606dd9d1d8","019d6630-2071-75cb-8026-6699844a2719","[{""page_index"":0,""viewing_time"":2766}]","2766","","","","","","","","","","","","","","",""
"","","","","","instructions","15","290051","0.0-15.0","2A39186280D44F3FA5DA499DD20C4083","019d6675-2530-7314-a14c-62606dd9d1d8","019d6630-2071-75cb-8026-6699844a2719","[{""page_index"":0,""viewing_time"":21433}]","21433","","","","","","","","","","","","","","",""
"","","","","","html-keyboard-response","16","295052","0.0-16.0","2A39186280D44F3FA5DA499DD20C4083","019d6675-2530-7314-a14c-62606dd9d1d8","019d6630-2071-75cb-8026-6699844a2719","","null","<div style=""background-color: white; width: 100vw; height: 100vh;""></div>","null","","","","","","","","","","","","",""
"","","","","","html-keyboard-response","17","300060","0.0-17.0","2A39186280D44F3FA5DA499DD20C4083","019d6675-2530-7314-a14c-62606dd9d1d8","019d6630-2071-75cb-8026-6699844a2719","","null","
                <div class=""stimulus-container"">
                    <img src=""images/schematic_sequence/interview_scheme/interview_scheme_1.png"" class=""exp-image"">
                    <div class=""question-area""></div> 
                </div>","null","","","","","","","","","","","","",""
"","","","","","html-button-response","18","301468","0.0-18.0","2A39186280D44F3FA5DA499DD20C4083","019d6675-2530-7314-a14c-62606dd9d1d8","019d6630-2071-75cb-8026-6699844a2719","","1401","
                <div class=""stimulus-container"">
                    <img src=""images/schematic_sequence/interview_scheme/interview_scheme_1.png"" class=""exp-image"">
                    <div class=""question-area"">
                        <p style=""font-size: 20px; font-weight: bold; margin: 0;"">Is there a person in this image?</p>
                    </div>
                </div>","1","main_experiment_trial","1","interview_scheme","schematic_sequence","chronological","","","","","","","",""
"","","","","","html-keyboard-response","19","306475","0.0-19.0","2A39186280D44F3FA5DA499DD20C4083","019d6675-2530-7314-a14c-62606dd9d1d8","019d6630-2071-75cb-8026-6699844a2719","","null","
                <div class=""stimulus-container"">
                    <img src=""images/schematic_sequence/interview_scheme/interview_scheme_2.png"" class=""exp-image"">
                    <div class=""question-area""></div> 
                </div>","null","","","","","","","","","","","","",""
"","","","","","html-button-response","20","307568","0.0-20.0","2A39186280D44F3FA5DA499DD20C4083","019d6675-2530-7314-a14c-62606dd9d1d8","019d6630-2071-75cb-8026-6699844a2719","","1086","
                <div class=""stimulus-container"">
                    <img src=""images/schematic_sequence/interview_scheme/interview_scheme_2.png"" class=""exp-image"">
                    <div class=""question-area"">
                        <p style=""font-size: 20px; font-weight: bold; margin: 0;"">Is there a person in this image?</p>
                    </div>
                </div>","1","main_experiment_trial","2","interview_scheme","schematic_sequence","chronological","","","","","","","",""
"","","","","","html-keyboard-response","21","312575","0.0-21.0","2A39186280D44F3FA5DA499DD20C4083","019d6675-2530-7314-a14c-62606dd9d1d8","019d6630-2071-75cb-8026-6699844a2719","","null","
                <div class=""stimulus-container"">
                    <img src=""images/schematic_sequence/interview_scheme/interview_scheme_3.png"" class=""exp-image"">
                    <div class=""question-area""></div> 
                </div>","null","","","","","","","","","","","","",""
"","","","","","html-button-response","22","313284","0.0-22.0","2A39186280D44F3FA5DA499DD20C4083","019d6675-2530-7314-a14c-62606dd9d1d8","019d6630-2071-75cb-8026-6699844a2719","","701","
                <div class=""stimulus-container"">
                    <img src=""images/schematic_sequence/interview_scheme/interview_scheme_3.png"" class=""exp-image"">
                    <div class=""question-area"">
                        <p style=""font-size: 20px; font-weight: bold; margin: 0;"">Is there a person in this image?</p>
                    </div>
                </div>","1","main_experiment_trial","3","interview_scheme","schematic_sequence","chronological","","","","","","","",""
"","","","","","html-keyboard-response","23","318291","0.0-23.0","2A39186280D44F3FA5DA499DD20C4083","019d6675-2530-7314-a14c-62606dd9d1d8","019d6630-2071-75cb-8026-6699844a2719","","null","
                <div class=""stimulus-container"">
                    <img src=""images/schematic_sequence/interview_scheme/interview_scheme_4.png"" class=""exp-image"">
                    <div class=""question-area""></div> 
                </div>","null","","","","","","","","","","","","",""
"","","","","","html-button-response","24","318935","0.0-24.0","2A39186280D44F3FA5DA499DD20C4083","019d6675-2530-7314-a14c-62606dd9d1d8","019d6630-2071-75cb-8026-6699844a2719","","636","
                <div class=""stimulus-container"">
                    <img src=""images/schematic_sequence/interview_scheme/interview_scheme_4.png"" class=""exp-image"">
                    <div class=""question-area"">
                        <p style=""font-size: 20px; font-weight: bold; margin: 0;"">Is there a person in this image?</p>
                    </div>
                </div>","1","main_experiment_trial","4","interview_scheme","schematic_sequence","chronological","","","","","","","",""
"","","","","","html-keyboard-response","25","323940","0.0-25.0","2A39186280D44F3FA5DA499DD20C4083","019d6675-2530-7314-a14c-62606dd9d1d8","019d6630-2071-75cb-8026-6699844a2719","","null","
                <div class=""stimulus-container"">
                    <img src=""images/schematic_sequence/interview_scheme/interview_scheme_5.png"" class=""exp-image"">
                    <div class=""question-area""></div> 
                </div>","null","","","","","","","","","","","","",""
"","","","","","html-button-response","26","324801","0.0-26.0","2A39186280D44F3FA5DA499DD20C4083","019d6675-2530-7314-a14c-62606dd9d1d8","019d6630-2071-75cb-8026-6699844a2719","","854","
                <div class=""stimulus-container"">
                    <img src=""images/schematic_sequence/interview_scheme/interview_scheme_5.png"" class=""exp-image"">
                    <div class=""question-area"">
                        <p style=""font-size: 20px; font-weight: bold; margin: 0;"">Is there a person in this image?</p>
                    </div>
                </div>","0","main_experiment_trial","5","interview_scheme","schematic_sequence","chronological","","","","","","","",""
"","","","","","html-keyboard-response","27","329808","0.0-27.0","2A39186280D44F3FA5DA499DD20C4083","019d6675-2530-7314-a14c-62606dd9d1d8","019d6630-2071-75cb-8026-6699844a2719","","null","
                <div class=""stimulus-container"">
                    <img src=""images/schematic_sequence/interview_scheme/interview_scheme_6.png"" class=""exp-image"">
                    <div class=""question-area""></div> 
                </div>","null","","","","","","","","","","","","",""
"","","","","","html-button-response","28","330317","0.0-28.0","2A39186280D44F3FA5DA499DD20C4083","019d6675-2530-7314-a14c-62606dd9d1d8","019d6630-2071-75cb-8026-6699844a2719","","503","
                <div class=""stimulus-container"">
                    <img src=""images/schematic_sequence/interview_scheme/interview_scheme_6.png"" class=""exp-image"">
                    <div class=""question-area"">
                        <p style=""font-size: 20px; font-weight: bold; margin: 0;"">Is there a person in this image?</p>
                    </div>
                </div>","0","main_experiment_trial","6","interview_scheme","schematic_sequence","chronological","","","","","","","",""
"","","","","","html-keyboard-response","29","335323","0.0-29.0","2A39186280D44F3FA5DA499DD20C4083","019d6675-2530-7314-a14c-62606dd9d1d8","019d6630-2071-75cb-8026-6699844a2719","","null","
                <div class=""stimulus-container"">
                    <img src=""images/schematic_sequence/interview_scheme/interview_scheme_7.png"" class=""exp-image"">
                    <div class=""question-area""></div> 
                </div>","null","","","","","","","","","","","","",""
"","","","","","html-button-response","30","336151","0.0-30.0","2A39186280D44F3FA5DA499DD20C4083","019d6675-2530-7314-a14c-62606dd9d1d8","019d6630-2071-75cb-8026-6699844a2719","","821","
                <div class=""stimulus-container"">
                    <img src=""images/schematic_sequence/interview_scheme/interview_scheme_7.png"" class=""exp-image"">
                    <div class=""question-area"">
                        <p style=""font-size: 20px; font-weight: bold; margin: 0;"">Is there a person in this image?</p>
                    </div>
                </div>","0","main_experiment_trial","7","interview_scheme","schematic_sequence","chronological","","","","","","","",""
"","","","","","html-keyboard-response","31","341157","0.0-31.0","2A39186280D44F3FA5DA499DD20C4083","019d6675-2530-7314-a14c-62606dd9d1d8","019d6630-2071-75cb-8026-6699844a2719","","null","
                <div class=""stimulus-container"">
                    <img src=""images/schematic_sequence/interview_scheme/interview_scheme_8.png"" class=""exp-image"">
                    <div class=""question-area""></div> 
                </div>","null","","","","","","","","","","","","",""
"","","","","","html-button-response","32","341717","0.0-32.0","2A39186280D44F3FA5DA499DD20C4083","019d6675-2530-7314-a14c-62606dd9d1d8","019d6630-2071-75cb-8026-6699844a2719","","554","
                <div class=""stimulus-container"">
                    <img src=""images/schematic_sequence/interview_scheme/interview_scheme_8.png"" class=""exp-image"">
                    <div class=""question-area"">
                        <p style=""font-size: 20px; font-weight: bold; margin: 0;"">Is there a person in this image?</p>
                    </div>
                </div>","0","main_experiment_trial","8","interview_scheme","schematic_sequence","chronological","","","","","","","",""
"","","","","","html-keyboard-response","33","346723","0.0-33.0","2A39186280D44F3FA5DA499DD20C4083","019d6675-2530-7314-a14c-62606dd9d1d8","019d6630-2071-75cb-8026-6699844a2719","","null","
                <div class=""stimulus-container"">
                    <img src=""images/schematic_sequence/interview_scheme/interview_scheme_9.png"" class=""exp-image"">
                    <div class=""question-area""></div> 
                </div>","null","","","","","","","","","","","","",""
"","","","","","html-button-response","34","347683","0.0-34.0","2A39186280D44F3FA5DA499DD20C4083","019d6675-2530-7314-a14c-62606dd9d1d8","019d6630-2071-75cb-8026-6699844a2719","","953","
                <div class=""stimulus-container"">
                    <img src=""images/schematic_sequence/interview_scheme/interview_scheme_9.png"" class=""exp-image"">
                    <div class=""question-area"">
                        <p style=""font-size: 20px; font-weight: bold; margin: 0;"">Is there a person in this image?</p>
                    </div>
                </div>","0","main_experiment_trial","9","interview_scheme","schematic_sequence","chronological","","","","","","","",""
"","","","","","html-keyboard-response","35","352689","0.0-35.0","2A39186280D44F3FA5DA499DD20C4083","019d6675-2530-7314-a14c-62606dd9d1d8","019d6630-2071-75cb-8026-6699844a2719","","null","
                <div class=""stimulus-container"">
                    <img src=""images/schematic_sequence/interview_scheme/interview_scheme_ten.png"" class=""exp-image"">
                    <div class=""question-area""></div> 
                </div>","null","","","","","","","","","","","","",""
"","","","","","html-button-response","36","353417","0.0-36.0","2A39186280D44F3FA5DA499DD20C4083","019d6675-2530-7314-a14c-62606dd9d1d8","019d6630-2071-75cb-8026-6699844a2719","","720","
                <div class=""stimulus-container"">
                    <img src=""images/schematic_sequence/interview_scheme/interview_scheme_ten.png"" class=""exp-image"">
                    <div class=""question-area"">
                        <p style=""font-size: 20px; font-weight: bold; margin: 0;"">Is there a person in this image?</p>
                    </div>
                </div>","0","main_experiment_trial","ten","interview_scheme","schematic_sequence","chronological","","","","","","","",""
"","","","","","html-keyboard-response","37","358419","0.0-37.0","2A39186280D44F3FA5DA499DD20C4083","019d6675-2530-7314-a14c-62606dd9d1d8","019d6630-2071-75cb-8026-6699844a2719","","null","<div style=""background-color: white; width: 100vw; height: 100vh;""></div>","null","","","","","","","","","","","","",""
"","","","","","html-keyboard-response","38","363427","0.0-38.0","2A39186280D44F3FA5DA499DD20C4083","019d6675-2530-7314-a14c-62606dd9d1d8","019d6630-2071-75cb-8026-6699844a2719","","null","
                <div class=""stimulus-container"">
                    <img src=""images/causal_sequence/coin_causal/coin_causal_1.png"" class=""exp-image"">
                    <div class=""question-area""></div> 
                </div>","null","","","","","","","","","","","","",""
"","","","","","html-button-response","39","364634","0.0-39.0","2A39186280D44F3FA5DA499DD20C4083","019d6675-2530-7314-a14c-62606dd9d1d8","019d6630-2071-75cb-8026-6699844a2719","","1200","
                <div class=""stimulus-container"">
                    <img src=""images/causal_sequence/coin_causal/coin_causal_1.png"" class=""exp-image"">
                    <div class=""question-area"">
                        <p style=""font-size: 20px; font-weight: bold; margin: 0;"">Is there a person in this image?</p>
                    </div>
                </div>","0","main_experiment_trial","1","coin_causal","causal_sequence","chronological","","","","","","","",""
"","","","","","html-keyboard-response","40","369640","0.0-40.0","2A39186280D44F3FA5DA499DD20C4083","019d6675-2530-7314-a14c-62606dd9d1d8","019d6630-2071-75cb-8026-6699844a2719","","null","
                <div class=""stimulus-container"">
                    <img src=""images/causal_sequence/coin_causal/coin_causal_2.png"" class=""exp-image"">
                    <div class=""question-area""></div> 
                </div>","null","","","","","","","","","","","","",""
"","","","","","html-button-response","41","370358","0.0-41.0","2A39186280D44F3FA5DA499DD20C4083","019d6675-2530-7314-a14c-62606dd9d1d8","019d6630-2071-75cb-8026-6699844a2719","","711","
                <div class=""stimulus-container"">
                    <img src=""images/causal_sequence/coin_causal/coin_causal_2.png"" class=""exp-image"">
                    <div class=""question-area"">
                        <p style=""font-size: 20px; font-weight: bold; margin: 0;"">Is there a person in this image?</p>
                    </div>
                </div>","0","main_experiment_trial","2","coin_causal","causal_sequence","chronological","","","","","","","",""
"","","","","","html-keyboard-response","42","375365","0.0-42.0","2A39186280D44F3FA5DA499DD20C4083","019d6675-2530-7314-a14c-62606dd9d1d8","019d6630-2071-75cb-8026-6699844a2719","","null","
                <div class=""stimulus-container"">
                    <img src=""images/causal_sequence/coin_causal/coin_causal_3.png"" class=""exp-image"">
                    <div class=""question-area""></div> 
                </div>","null","","","","","","","","","","","","",""
"","","","","","html-button-response","43","375878","0.0-43.0","2A39186280D44F3FA5DA499DD20C4083","019d6675-2530-7314-a14c-62606dd9d1d8","019d6630-2071-75cb-8026-6699844a2719","","506","
                <div class=""stimulus-container"">
                    <img src=""images/causal_sequence/coin_causal/coin_causal_3.png"" class=""exp-image"">
                    <div class=""question-area"">
                        <p style=""font-size: 20px; font-weight: bold; margin: 0;"">Is there a person in this image?</p>
                    </div>
                </div>","0","main_experiment_trial","3","coin_causal","causal_sequence","chronological","","","","","","","",""
"","","","","","html-keyboard-response","44","380884","0.0-44.0","2A39186280D44F3FA5DA499DD20C4083","019d6675-2530-7314-a14c-62606dd9d1d8","019d6630-2071-75cb-8026-6699844a2719","","null","
                <div class=""stimulus-container"">
                    <img src=""images/causal_sequence/coin_causal/coin_causal_4.png"" class=""exp-image"">
                    <div class=""question-area""></div> 
                </div>","null","","","","","","","","","","","","",""
"","","","","","html-button-response","45","381324","0.0-45.0","2A39186280D44F3FA5DA499DD20C4083","019d6675-2530-7314-a14c-62606dd9d1d8","019d6630-2071-75cb-8026-6699844a2719","","433","
                <div class=""stimulus-container"">
                    <img src=""images/causal_sequence/coin_causal/coin_causal_4.png"" class=""exp-image"">
                    <div class=""question-area"">
                        <p style=""font-size: 20px; font-weight: bold; margin: 0;"">Is there a person in this image?</p>
                    </div>
                </div>","0","main_experiment_trial","4","coin_causal","causal_sequence","chronological","","","","","","","",""
"","","","","","html-keyboard-response","46","386331","0.0-46.0","2A39186280D44F3FA5DA499DD20C4083","019d6675-2530-7314-a14c-62606dd9d1d8","019d6630-2071-75cb-8026-6699844a2719","","null","
                <div class=""stimulus-container"">
                    <img src=""images/causal_sequence/coin_causal/coin_causal_5.png"" class=""exp-image"">
                    <div class=""question-area""></div> 
                </div>","null","","","","","","","","","","","","",""
"","","","","","html-button-response","47","387051","0.0-47.0","2A39186280D44F3FA5DA499DD20C4083","019d6675-2530-7314-a14c-62606dd9d1d8","019d6630-2071-75cb-8026-6699844a2719","","714","
                <div class=""stimulus-container"">
                    <img src=""images/causal_sequence/coin_causal/coin_causal_5.png"" class=""exp-image"">
                    <div class=""question-area"">
                        <p style=""font-size: 20px; font-weight: bold; margin: 0;"">Is there a person in this image?</p>
                    </div>
                </div>","0","main_experiment_trial","5","coin_causal","causal_sequence","chronological","","","","","","","",""
"","","","","","html-keyboard-response","48","392057","0.0-48.0","2A39186280D44F3FA5DA499DD20C4083","019d6675-2530-7314-a14c-62606dd9d1d8","019d6630-2071-75cb-8026-6699844a2719","","null","
                <div class=""stimulus-container"">
                    <img src=""images/causal_sequence/coin_causal/coin_causal_6.png"" class=""exp-image"">
                    <div class=""question-area""></div> 
                </div>","null","","","","","","","","","","","","",""
"","","","","","html-button-response","49","392624","0.0-49.0","2A39186280D44F3FA5DA499DD20C4083","019d6675-2530-7314-a14c-62606dd9d1d8","019d6630-2071-75cb-8026-6699844a2719","","560","
                <div class=""stimulus-container"">
                    <img src=""images/causal_sequence/coin_causal/coin_causal_6.png"" class=""exp-image"">
                    <div class=""question-area"">
                        <p style=""font-size: 20px; font-weight: bold; margin: 0;"">Is there a person in this image?</p>
                    </div>
                </div>","0","main_experiment_trial","6","coin_causal","causal_sequence","chronological","","","","","","","",""
"","","","","","html-keyboard-response","50","397631","0.0-50.0","2A39186280D44F3FA5DA499DD20C4083","019d6675-2530-7314-a14c-62606dd9d1d8","019d6630-2071-75cb-8026-6699844a2719","","null","
                <div class=""stimulus-container"">
                    <img src=""images/causal_sequence/coin_causal/coin_causal_7.png"" class=""exp-image"">
                    <div class=""question-area""></div> 
                </div>","null","","","","","","","","","","","","",""
"","","","","","html-button-response","51","398217","0.0-51.0","2A39186280D44F3FA5DA499DD20C4083","019d6675-2530-7314-a14c-62606dd9d1d8","019d6630-2071-75cb-8026-6699844a2719","","578","
                <div class=""stimulus-container"">
                    <img src=""images/causal_sequence/coin_causal/coin_causal_7.png"" class=""exp-image"">
                    <div class=""question-area"">
                        <p style=""font-size: 20px; font-weight: bold; margin: 0;"">Is there a person in this image?</p>
                    </div>
                </div>","1","main_experiment_trial","7","coin_causal","causal_sequence","chronological","","","","","","","",""
"","","","","","html-keyboard-response","52","403223","0.0-52.0","2A39186280D44F3FA5DA499DD20C4083","019d6675-2530-7314-a14c-62606dd9d1d8","019d6630-2071-75cb-8026-6699844a2719","","null","
                <div class=""stimulus-container"">
                    <img src=""images/causal_sequence/coin_causal/coin_causal_8.png"" class=""exp-image"">
                    <div class=""question-area""></div> 
                </div>","null","","","","","","","","","","","","",""
"","","","","","html-button-response","53","404209","0.0-53.0","2A39186280D44F3FA5DA499DD20C4083","019d6675-2530-7314-a14c-62606dd9d1d8","019d6630-2071-75cb-8026-6699844a2719","","979","
                <div class=""stimulus-container"">
                    <img src=""images/causal_sequence/coin_causal/coin_causal_8.png"" class=""exp-image"">
                    <div class=""question-area"">
                        <p style=""font-size: 20px; font-weight: bold; margin: 0;"">Is there a person in this image?</p>
                    </div>
                </div>","0","main_experiment_trial","8","coin_causal","causal_sequence","chronological","","","","","","","",""
"","","","","","html-keyboard-response","54","409215","0.0-54.0","2A39186280D44F3FA5DA499DD20C4083","019d6675-2530-7314-a14c-62606dd9d1d8","019d6630-2071-75cb-8026-6699844a2719","","null","
                <div class=""stimulus-container"">
                    <img src=""images/causal_sequence/coin_causal/coin_causal_9.png"" class=""exp-image"">
                    <div class=""question-area""></div> 
                </div>","null","","","","","","","","","","","","",""
"","","","","","html-button-response","55","409884","0.0-55.0","2A39186280D44F3FA5DA499DD20C4083","019d6675-2530-7314-a14c-62606dd9d1d8","019d6630-2071-75cb-8026-6699844a2719","","662","
                <div class=""stimulus-container"">
                    <img src=""images/causal_sequence/coin_causal/coin_causal_9.png"" class=""exp-image"">
                    <div class=""question-area"">
                        <p style=""font-size: 20px; font-weight: bold; margin: 0;"">Is there a person in this image?</p>
                    </div>
                </div>","0","main_experiment_trial","9","coin_causal","causal_sequence","chronological","","","","","","","",""
"","","","","","html-keyboard-response","56","414890","0.0-56.0","2A39186280D44F3FA5DA499DD20C4083","019d6675-2530-7314-a14c-62606dd9d1d8","019d6630-2071-75cb-8026-6699844a2719","","null","
                <div class=""stimulus-container"">
                    <img src=""images/causal_sequence/coin_causal/coin_causal_ten.png"" class=""exp-image"">
                    <div class=""question-area""></div> 
                </div>","null","","","","","","","","","","","","",""
"","","","","","html-button-response","57","415458","0.0-57.0","2A39186280D44F3FA5DA499DD20C4083","019d6675-2530-7314-a14c-62606dd9d1d8","019d6630-2071-75cb-8026-6699844a2719","","561","
                <div class=""stimulus-container"">
                    <img src=""images/causal_sequence/coin_causal/coin_causal_ten.png"" class=""exp-image"">
                    <div class=""question-area"">
                        <p style=""font-size: 20px; font-weight: bold; margin: 0;"">Is there a person in this image?</p>
                    </div>
                </div>","0","main_experiment_trial","ten","coin_causal","causal_sequence","chronological","","","","","","","",""
"","","","","","html-keyboard-response","58","420460","0.0-58.0","2A39186280D44F3FA5DA499DD20C4083","019d6675-2530-7314-a14c-62606dd9d1d8","019d6630-2071-75cb-8026-6699844a2719","","null","<div style=""background-color: white; width: 100vw; height: 100vh;""></div>","null","","","","","","","","","","","","",""
"","","","","","html-keyboard-response","59","425467","0.0-59.0","2A39186280D44F3FA5DA499DD20C4083","019d6675-2530-7314-a14c-62606dd9d1d8","019d6630-2071-75cb-8026-6699844a2719","","null","
                <div class=""stimulus-container"">
                    <img src=""images/causal_sequence/saving_a_cat_causal/saving_a_cat_causal_1.png"" class=""exp-image"">
                    <div class=""question-area""></div> 
                </div>","null","","","","","","","","","","","","",""
"","","","","","html-button-response","60","426108","0.0-60.0","2A39186280D44F3FA5DA499DD20C4083","019d6675-2530-7314-a14c-62606dd9d1d8","019d6630-2071-75cb-8026-6699844a2719","","634","
                <div class=""stimulus-container"">
                    <img src=""images/causal_sequence/saving_a_cat_causal/saving_a_cat_causal_1.png"" class=""exp-image"">
                    <div class=""question-area"">
                        <p style=""font-size: 20px; font-weight: bold; margin: 0;"">Is there a person in this image?</p>
                    </div>
                </div>","0","main_experiment_trial","1","saving_a_cat_causal","causal_sequence","chronological","","","","","","","",""
"","","","","","html-keyboard-response","61","431115","0.0-61.0","2A39186280D44F3FA5DA499DD20C4083","019d6675-2530-7314-a14c-62606dd9d1d8","019d6630-2071-75cb-8026-6699844a2719","","null","
                <div class=""stimulus-container"">
                    <img src=""images/causal_sequence/saving_a_cat_causal/saving_a_cat_causal_2.png"" class=""exp-image"">
                    <div class=""question-area""></div> 
                </div>","null","","","","","","","","","","","","",""
"","","","","","html-button-response","62","432051","0.0-62.0","2A39186280D44F3FA5DA499DD20C4083","019d6675-2530-7314-a14c-62606dd9d1d8","019d6630-2071-75cb-8026-6699844a2719","","929","
                <div class=""stimulus-container"">
                    <img src=""images/causal_sequence/saving_a_cat_causal/saving_a_cat_causal_2.png"" class=""exp-image"">
                    <div class=""question-area"">
                        <p style=""font-size: 20px; font-weight: bold; margin: 0;"">Is there a person in this image?</p>
                    </div>
                </div>","1","main_experiment_trial","2","saving_a_cat_causal","causal_sequence","chronological","","","","","","","",""
"","","","","","html-keyboard-response","63","437056","0.0-63.0","2A39186280D44F3FA5DA499DD20C4083","019d6675-2530-7314-a14c-62606dd9d1d8","019d6630-2071-75cb-8026-6699844a2719","","null","
                <div class=""stimulus-container"">
                    <img src=""images/causal_sequence/saving_a_cat_causal/saving_a_cat_causal_3.png"" class=""exp-image"">
                    <div class=""question-area""></div> 
                </div>","null","","","","","","","","","","","","",""
"","","","","","html-button-response","64","437801","0.0-64.0","2A39186280D44F3FA5DA499DD20C4083","019d6675-2530-7314-a14c-62606dd9d1d8","019d6630-2071-75cb-8026-6699844a2719","","738","
                <div class=""stimulus-container"">
                    <img src=""images/causal_sequence/saving_a_cat_causal/saving_a_cat_causal_3.png"" class=""exp-image"">
                    <div class=""question-area"">
                        <p style=""font-size: 20px; font-weight: bold; margin: 0;"">Is there a person in this image?</p>
                    </div>
                </div>","1","main_experiment_trial","3","saving_a_cat_causal","causal_sequence","chronological","","","","","","","",""
"","","","","","html-keyboard-response","65","442808","0.0-65.0","2A39186280D44F3FA5DA499DD20C4083","019d6675-2530-7314-a14c-62606dd9d1d8","019d6630-2071-75cb-8026-6699844a2719","","null","
                <div class=""stimulus-container"">
                    <img src=""images/causal_sequence/saving_a_cat_causal/saving_a_cat_causal_4.png"" class=""exp-image"">
                    <div class=""question-area""></div> 
                </div>","null","","","","","","","","","","","","",""
"","","","","","html-button-response","66","443767","0.0-66.0","2A39186280D44F3FA5DA499DD20C4083","019d6675-2530-7314-a14c-62606dd9d1d8","019d6630-2071-75cb-8026-6699844a2719","","952","
                <div class=""stimulus-container"">
                    <img src=""images/causal_sequence/saving_a_cat_causal/saving_a_cat_causal_4.png"" class=""exp-image"">
                    <div class=""question-area"">
                        <p style=""font-size: 20px; font-weight: bold; margin: 0;"">Is there a person in this image?</p>
                    </div>
                </div>","0","main_experiment_trial","4","saving_a_cat_causal","causal_sequence","chronological","","","","","","","",""
"","","","","","html-keyboard-response","67","448773","0.0-67.0","2A39186280D44F3FA5DA499DD20C4083","019d6675-2530-7314-a14c-62606dd9d1d8","019d6630-2071-75cb-8026-6699844a2719","","null","
                <div class=""stimulus-container"">
                    <img src=""images/causal_sequence/saving_a_cat_causal/saving_a_cat_causal_5.png"" class=""exp-image"">
                    <div class=""question-area""></div> 
                </div>","null","","","","","","","","","","","","",""
"","","","","","html-button-response","68","449401","0.0-68.0","2A39186280D44F3FA5DA499DD20C4083","019d6675-2530-7314-a14c-62606dd9d1d8","019d6630-2071-75cb-8026-6699844a2719","","620","
                <div class=""stimulus-container"">
                    <img src=""images/causal_sequence/saving_a_cat_causal/saving_a_cat_causal_5.png"" class=""exp-image"">
                    <div class=""question-area"">
                        <p style=""font-size: 20px; font-weight: bold; margin: 0;"">Is there a person in this image?</p>
                    </div>
                </div>","0","main_experiment_trial","5","saving_a_cat_causal","causal_sequence","chronological","","","","","","","",""
"","","","","","html-keyboard-response","69","454406","0.0-69.0","2A39186280D44F3FA5DA499DD20C4083","019d6675-2530-7314-a14c-62606dd9d1d8","019d6630-2071-75cb-8026-6699844a2719","","null","
                <div class=""stimulus-container"">
                    <img src=""images/causal_sequence/saving_a_cat_causal/saving_a_cat_causal_6.png"" class=""exp-image"">
                    <div class=""question-area""></div> 
                </div>","null","","","","","","","","","","","","",""
"","","","","","html-button-response","70","454851","0.0-70.0","2A39186280D44F3FA5DA499DD20C4083","019d6675-2530-7314-a14c-62606dd9d1d8","019d6630-2071-75cb-8026-6699844a2719","","437","
                <div class=""stimulus-container"">
                    <img src=""images/causal_sequence/saving_a_cat_causal/saving_a_cat_causal_6.png"" class=""exp-image"">
                    <div class=""question-area"">
                        <p style=""font-size: 20px; font-weight: bold; margin: 0;"">Is there a person in this image?</p>
                    </div>
                </div>","0","main_experiment_trial","6","saving_a_cat_causal","causal_sequence","chronological","","","","","","","",""
"","","","","","html-keyboard-response","71","459856","0.0-71.0","2A39186280D44F3FA5DA499DD20C4083","019d6675-2530-7314-a14c-62606dd9d1d8","019d6630-2071-75cb-8026-6699844a2719","","null","
                <div class=""stimulus-container"">
                    <img src=""images/causal_sequence/saving_a_cat_causal/saving_a_cat_causal_7.png"" class=""exp-image"">
                    <div class=""question-area""></div> 
                </div>","null","","","","","","","","","","","","",""
"","","","","","html-button-response","72","460367","0.0-72.0","2A39186280D44F3FA5DA499DD20C4083","019d6675-2530-7314-a14c-62606dd9d1d8","019d6630-2071-75cb-8026-6699844a2719","","504","
                <div class=""stimulus-container"">
                    <img src=""images/causal_sequence/saving_a_cat_causal/saving_a_cat_causal_7.png"" class=""exp-image"">
                    <div class=""question-area"">
                        <p style=""font-size: 20px; font-weight: bold; margin: 0;"">Is there a person in this image?</p>
                    </div>
                </div>","0","main_experiment_trial","7","saving_a_cat_causal","causal_sequence","chronological","","","","","","","",""
"","","","","","html-keyboard-response","73","465373","0.0-73.0","2A39186280D44F3FA5DA499DD20C4083","019d6675-2530-7314-a14c-62606dd9d1d8","019d6630-2071-75cb-8026-6699844a2719","","null","
                <div class=""stimulus-container"">
                    <img src=""images/causal_sequence/saving_a_cat_causal/saving_a_cat_causal_8.png"" class=""exp-image"">
                    <div class=""question-area""></div> 
                </div>","null","","","","","","","","","","","","",""
"","","","","","html-button-response","74","466152","0.0-74.0","2A39186280D44F3FA5DA499DD20C4083","019d6675-2530-7314-a14c-62606dd9d1d8","019d6630-2071-75cb-8026-6699844a2719","","772","
                <div class=""stimulus-container"">
                    <img src=""images/causal_sequence/saving_a_cat_causal/saving_a_cat_causal_8.png"" class=""exp-image"">
                    <div class=""question-area"">
                        <p style=""font-size: 20px; font-weight: bold; margin: 0;"">Is there a person in this image?</p>
                    </div>
                </div>","0","main_experiment_trial","8","saving_a_cat_causal","causal_sequence","chronological","","","","","","","",""
"","","","","","html-keyboard-response","75","471157","0.0-75.0","2A39186280D44F3FA5DA499DD20C4083","019d6675-2530-7314-a14c-62606dd9d1d8","019d6630-2071-75cb-8026-6699844a2719","","null","
                <div class=""stimulus-container"">
                    <img src=""images/causal_sequence/saving_a_cat_causal/saving_a_cat_causal_9.png"" class=""exp-image"">
                    <div class=""question-area""></div> 
                </div>","null","","","","","","","","","","","","",""
"","","","","","html-button-response","76","471667","0.0-76.0","2A39186280D44F3FA5DA499DD20C4083","019d6675-2530-7314-a14c-62606dd9d1d8","019d6630-2071-75cb-8026-6699844a2719","","502","
                <div class=""stimulus-container"">
                    <img src=""images/causal_sequence/saving_a_cat_causal/saving_a_cat_causal_9.png"" class=""exp-image"">
                    <div class=""question-area"">
                        <p style=""font-size: 20px; font-weight: bold; margin: 0;"">Is there a person in this image?</p>
                    </div>
                </div>","0","main_experiment_trial","9","saving_a_cat_causal","causal_sequence","chronological","","","","","","","",""
"","","","","","html-keyboard-response","77","476673","0.0-77.0","2A39186280D44F3FA5DA499DD20C4083","019d6675-2530-7314-a14c-62606dd9d1d8","019d6630-2071-75cb-8026-6699844a2719","","null","
                <div class=""stimulus-container"">
                    <img src=""images/causal_sequence/saving_a_cat_causal/saving_a_cat_causal_ten.png"" class=""exp-image"">
                    <div class=""question-area""></div> 
                </div>","null","","","","","","","","","","","","",""
"","","","","","html-button-response","78","477117","0.0-78.0","2A39186280D44F3FA5DA499DD20C4083","019d6675-2530-7314-a14c-62606dd9d1d8","019d6630-2071-75cb-8026-6699844a2719","","438","
                <div class=""stimulus-container"">
                    <img src=""images/causal_sequence/saving_a_cat_causal/saving_a_cat_causal_ten.png"" class=""exp-image"">
                    <div class=""question-area"">
                        <p style=""font-size: 20px; font-weight: bold; margin: 0;"">Is there a person in this image?</p>
                    </div>
                </div>","0","main_experiment_trial","ten","saving_a_cat_causal","causal_sequence","chronological","","","","","","","",""
"","","","","","html-keyboard-response","79","482118","0.0-79.0","2A39186280D44F3FA5DA499DD20C4083","019d6675-2530-7314-a14c-62606dd9d1d8","019d6630-2071-75cb-8026-6699844a2719","","null","<div style=""background-color: white; width: 100vw; height: 100vh;""></div>","null","","","","","","","","","","","","",""
"","","","","","html-keyboard-response","80","487126","0.0-80.0","2A39186280D44F3FA5DA499DD20C4083","019d6675-2530-7314-a14c-62606dd9d1d8","019d6630-2071-75cb-8026-6699844a2719","","null","
                <div class=""stimulus-container"">
                    <img src=""images/schematic_sequence/dinner_party_scheme/dinner_party_scheme_1.png"" class=""exp-image"">
                    <div class=""question-area""></div> 
                </div>","null","","","","","","","","","","","","",""
"","","","","","html-button-response","81","487723","0.0-81.0","2A39186280D44F3FA5DA499DD20C4083","019d6675-2530-7314-a14c-62606dd9d1d8","019d6630-2071-75cb-8026-6699844a2719","","590","
                <div class=""stimulus-container"">
                    <img src=""images/schematic_sequence/dinner_party_scheme/dinner_party_scheme_1.png"" class=""exp-image"">
                    <div class=""question-area"">
                        <p style=""font-size: 20px; font-weight: bold; margin: 0;"">Is there a person in this image?</p>
                    </div>
                </div>","0","main_experiment_trial","1","dinner_party_scheme","schematic_sequence","chronological","","","","","","","",""
"","","","","","html-keyboard-response","82","492730","0.0-82.0","2A39186280D44F3FA5DA499DD20C4083","019d6675-2530-7314-a14c-62606dd9d1d8","019d6630-2071-75cb-8026-6699844a2719","","null","
                <div class=""stimulus-container"">
                    <img src=""images/schematic_sequence/dinner_party_scheme/dinner_party_scheme_2.png"" class=""exp-image"">
                    <div class=""question-area""></div> 
                </div>","null","","","","","","","","","","","","",""
"","","","","","html-button-response","83","495738","0.0-83.0","2A39186280D44F3FA5DA499DD20C4083","019d6675-2530-7314-a14c-62606dd9d1d8","019d6630-2071-75cb-8026-6699844a2719","","null","
                <div class=""stimulus-container"">
                    <img src=""images/schematic_sequence/dinner_party_scheme/dinner_party_scheme_2.png"" class=""exp-image"">
                    <div class=""question-area"">
                        <p style=""font-size: 20px; font-weight: bold; margin: 0;"">Is there a person in this image?</p>
                    </div>
                </div>","null","main_experiment_trial","2","dinner_party_scheme","schematic_sequence","chronological","","","","","","","",""
"","","","","","html-keyboard-response","84","500745","0.0-84.0","2A39186280D44F3FA5DA499DD20C4083","019d6675-2530-7314-a14c-62606dd9d1d8","019d6630-2071-75cb-8026-6699844a2719","","null","
                <div class=""stimulus-container"">
                    <img src=""images/schematic_sequence/dinner_party_scheme/dinner_party_scheme_3.png"" class=""exp-image"">
                    <div class=""question-area""></div> 
                </div>","null","","","","","","","","","","","","",""
"","","","","","html-button-response","85","501818","0.0-85.0","2A39186280D44F3FA5DA499DD20C4083","019d6675-2530-7314-a14c-62606dd9d1d8","019d6630-2071-75cb-8026-6699844a2719","","1066","
                <div class=""stimulus-container"">
                    <img src=""images/schematic_sequence/dinner_party_scheme/dinner_party_scheme_3.png"" class=""exp-image"">
                    <div class=""question-area"">
                        <p style=""font-size: 20px; font-weight: bold; margin: 0;"">Is there a person in this image?</p>
                    </div>
                </div>","0","main_experiment_trial","3","dinner_party_scheme","schematic_sequence","chronological","","","","","","","",""
"","","","","","html-keyboard-response","86","506825","0.0-86.0","2A39186280D44F3FA5DA499DD20C4083","019d6675-2530-7314-a14c-62606dd9d1d8","019d6630-2071-75cb-8026-6699844a2719","","null","
                <div class=""stimulus-container"">
                    <img src=""images/schematic_sequence/dinner_party_scheme/dinner_party_scheme_4.png"" class=""exp-image"">
                    <div class=""question-area""></div> 
                </div>","null","","","","","","","","","","","","",""
"","","","","","html-button-response","87","507918","0.0-87.0","2A39186280D44F3FA5DA499DD20C4083","019d6675-2530-7314-a14c-62606dd9d1d8","019d6630-2071-75cb-8026-6699844a2719","","1085","
                <div class=""stimulus-container"">
                    <img src=""images/schematic_sequence/dinner_party_scheme/dinner_party_scheme_4.png"" class=""exp-image"">
                    <div class=""question-area"">
                        <p style=""font-size: 20px; font-weight: bold; margin: 0;"">Is there a person in this image?</p>
                    </div>
                </div>","0","main_experiment_trial","4","dinner_party_scheme","schematic_sequence","chronological","","","","","","","",""
"","","","","","html-keyboard-response","88","512924","0.0-88.0","2A39186280D44F3FA5DA499DD20C4083","019d6675-2530-7314-a14c-62606dd9d1d8","019d6630-2071-75cb-8026-6699844a2719","","null","
                <div class=""stimulus-container"">
                    <img src=""images/schematic_sequence/dinner_party_scheme/dinner_party_scheme_5.png"" class=""exp-image"">
                    <div class=""question-area""></div> 
                </div>","null","","","","","","","","","","","","",""
"","","","","","html-button-response","89","513717","0.0-89.0","2A39186280D44F3FA5DA499DD20C4083","019d6675-2530-7314-a14c-62606dd9d1d8","019d6630-2071-75cb-8026-6699844a2719","","786","
                <div class=""stimulus-container"">
                    <img src=""images/schematic_sequence/dinner_party_scheme/dinner_party_scheme_5.png"" class=""exp-image"">
                    <div class=""question-area"">
                        <p style=""font-size: 20px; font-weight: bold; margin: 0;"">Is there a person in this image?</p>
                    </div>
                </div>","0","main_experiment_trial","5","dinner_party_scheme","schematic_sequence","chronological","","","","","","","",""
"","","","","","html-keyboard-response","90","518724","0.0-90.0","2A39186280D44F3FA5DA499DD20C4083","019d6675-2530-7314-a14c-62606dd9d1d8","019d6630-2071-75cb-8026-6699844a2719","","null","
                <div class=""stimulus-container"">
                    <img src=""images/schematic_sequence/dinner_party_scheme/dinner_party_scheme_6.png"" class=""exp-image"">
                    <div class=""question-area""></div> 
                </div>","null","","","","","","","","","","","","",""
"","","","","","html-button-response","91","519438","0.0-91.0","2A39186280D44F3FA5DA499DD20C4083","019d6675-2530-7314-a14c-62606dd9d1d8","019d6630-2071-75cb-8026-6699844a2719","","707","
                <div class=""stimulus-container"">
                    <img src=""images/schematic_sequence/dinner_party_scheme/dinner_party_scheme_6.png"" class=""exp-image"">
                    <div class=""question-area"">
                        <p style=""font-size: 20px; font-weight: bold; margin: 0;"">Is there a person in this image?</p>
                    </div>
                </div>","0","main_experiment_trial","6","dinner_party_scheme","schematic_sequence","chronological","","","","","","","",""
"","","","","","html-keyboard-response","92","524444","0.0-92.0","2A39186280D44F3FA5DA499DD20C4083","019d6675-2530-7314-a14c-62606dd9d1d8","019d6630-2071-75cb-8026-6699844a2719","","null","
                <div class=""stimulus-container"">
                    <img src=""images/schematic_sequence/dinner_party_scheme/dinner_party_scheme_7.png"" class=""exp-image"">
                    <div class=""question-area""></div> 
                </div>","null","","","","","","","","","","","","",""
"","","","","","html-button-response","93","525001","0.0-93.0","2A39186280D44F3FA5DA499DD20C4083","019d6675-2530-7314-a14c-62606dd9d1d8","019d6630-2071-75cb-8026-6699844a2719","","549","
                <div class=""stimulus-container"">
                    <img src=""images/schematic_sequence/dinner_party_scheme/dinner_party_scheme_7.png"" class=""exp-image"">
                    <div class=""question-area"">
                        <p style=""font-size: 20px; font-weight: bold; margin: 0;"">Is there a person in this image?</p>
                    </div>
                </div>","0","main_experiment_trial","7","dinner_party_scheme","schematic_sequence","chronological","","","","","","","",""
"","","","","","html-keyboard-response","94","530008","0.0-94.0","2A39186280D44F3FA5DA499DD20C4083","019d6675-2530-7314-a14c-62606dd9d1d8","019d6630-2071-75cb-8026-6699844a2719","","null","
                <div class=""stimulus-container"">
                    <img src=""images/schematic_sequence/dinner_party_scheme/dinner_party_scheme_8.png"" class=""exp-image"">
                    <div class=""question-area""></div> 
                </div>","null","","","","","","","","","","","","",""
"","","","","","html-button-response","95","530588","0.0-95.0","2A39186280D44F3FA5DA499DD20C4083","019d6675-2530-7314-a14c-62606dd9d1d8","019d6630-2071-75cb-8026-6699844a2719","","573","
                <div class=""stimulus-container"">
                    <img src=""images/schematic_sequence/dinner_party_scheme/dinner_party_scheme_8.png"" class=""exp-image"">
                    <div class=""question-area"">
                        <p style=""font-size: 20px; font-weight: bold; margin: 0;"">Is there a person in this image?</p>
                    </div>
                </div>","0","main_experiment_trial","8","dinner_party_scheme","schematic_sequence","chronological","","","","","","","",""
"","","","","","html-keyboard-response","96","535594","0.0-96.0","2A39186280D44F3FA5DA499DD20C4083","019d6675-2530-7314-a14c-62606dd9d1d8","019d6630-2071-75cb-8026-6699844a2719","","null","
                <div class=""stimulus-container"">
                    <img src=""images/schematic_sequence/dinner_party_scheme/dinner_party_scheme_9.png"" class=""exp-image"">
                    <div class=""question-area""></div> 
                </div>","null","","","","","","","","","","","","",""
"","","","","","html-button-response","97","536354","0.0-97.0","2A39186280D44F3FA5DA499DD20C4083","019d6675-2530-7314-a14c-62606dd9d1d8","019d6630-2071-75cb-8026-6699844a2719","","753","
                <div class=""stimulus-container"">
                    <img src=""images/schematic_sequence/dinner_party_scheme/dinner_party_scheme_9.png"" class=""exp-image"">
                    <div class=""question-area"">
                        <p style=""font-size: 20px; font-weight: bold; margin: 0;"">Is there a person in this image?</p>
                    </div>
                </div>","0","main_experiment_trial","9","dinner_party_scheme","schematic_sequence","chronological","","","","","","","",""
"","","","","","html-keyboard-response","98","541361","0.0-98.0","2A39186280D44F3FA5DA499DD20C4083","019d6675-2530-7314-a14c-62606dd9d1d8","019d6630-2071-75cb-8026-6699844a2719","","null","
                <div class=""stimulus-container"">
                    <img src=""images/schematic_sequence/dinner_party_scheme/dinner_party_scheme_ten.png"" class=""exp-image"">
                    <div class=""question-area""></div> 
                </div>","null","","","","","","","","","","","","",""
"","","","","","html-button-response","99","541984","0.0-99.0","2A39186280D44F3FA5DA499DD20C4083","019d6675-2530-7314-a14c-62606dd9d1d8","019d6630-2071-75cb-8026-6699844a2719","","616","
                <div class=""stimulus-container"">
                    <img src=""images/schematic_sequence/dinner_party_scheme/dinner_party_scheme_ten.png"" class=""exp-image"">
                    <div class=""question-area"">
                        <p style=""font-size: 20px; font-weight: bold; margin: 0;"">Is there a person in this image?</p>
                    </div>
                </div>","0","main_experiment_trial","ten","dinner_party_scheme","schematic_sequence","chronological","","","","","","","",""
"","","","","","html-keyboard-response","100","546986","0.0-100.0","2A39186280D44F3FA5DA499DD20C4083","019d6675-2530-7314-a14c-62606dd9d1d8","019d6630-2071-75cb-8026-6699844a2719","","null","<div style=""background-color: white; width: 100vw; height: 100vh;""></div>","null","","","","","","","","","","","","",""
"","","","","","html-keyboard-response","101","551993","0.0-101.0","2A39186280D44F3FA5DA499DD20C4083","019d6675-2530-7314-a14c-62606dd9d1d8","019d6630-2071-75cb-8026-6699844a2719","","null","
                <div class=""stimulus-container"">
                    <img src=""images/schematic_sequence/flight_scheme/flight_scheme_1.png"" class=""exp-image"">
                    <div class=""question-area""></div> 
                </div>","null","","","","","","","","","","","","",""
"","","","","","html-button-response","102","552754","0.0-102.0","2A39186280D44F3FA5DA499DD20C4083","019d6675-2530-7314-a14c-62606dd9d1d8","019d6630-2071-75cb-8026-6699844a2719","","753","
                <div class=""stimulus-container"">
                    <img src=""images/schematic_sequence/flight_scheme/flight_scheme_1.png"" class=""exp-image"">
                    <div class=""question-area"">
                        <p style=""font-size: 20px; font-weight: bold; margin: 0;"">Is there a person in this image?</p>
                    </div>
                </div>","0","main_experiment_trial","1","flight_scheme","schematic_sequence","chronological","","","","","","","",""
"","","","","","html-keyboard-response","103","557760","0.0-103.0","2A39186280D44F3FA5DA499DD20C4083","019d6675-2530-7314-a14c-62606dd9d1d8","019d6630-2071-75cb-8026-6699844a2719","","null","
                <div class=""stimulus-container"">
                    <img src=""images/schematic_sequence/flight_scheme/flight_scheme_2.png"" class=""exp-image"">
                    <div class=""question-area""></div> 
                </div>","null","","","","","","","","","","","","",""
"","","","","","html-button-response","104","558250","0.0-104.0","2A39186280D44F3FA5DA499DD20C4083","019d6675-2530-7314-a14c-62606dd9d1d8","019d6630-2071-75cb-8026-6699844a2719","","482","
                <div class=""stimulus-container"">
                    <img src=""images/schematic_sequence/flight_scheme/flight_scheme_2.png"" class=""exp-image"">
                    <div class=""question-area"">
                        <p style=""font-size: 20px; font-weight: bold; margin: 0;"">Is there a person in this image?</p>
                    </div>
                </div>","1","main_experiment_trial","2","flight_scheme","schematic_sequence","chronological","","","","","","","",""
"","","","","","html-keyboard-response","105","563257","0.0-105.0","2A39186280D44F3FA5DA499DD20C4083","019d6675-2530-7314-a14c-62606dd9d1d8","019d6630-2071-75cb-8026-6699844a2719","","null","
                <div class=""stimulus-container"">
                    <img src=""images/schematic_sequence/flight_scheme/flight_scheme_3.png"" class=""exp-image"">
                    <div class=""question-area""></div> 
                </div>","null","","","","","","","","","","","","",""
"","","","","","html-button-response","106","564754","0.0-106.0","2A39186280D44F3FA5DA499DD20C4083","019d6675-2530-7314-a14c-62606dd9d1d8","019d6630-2071-75cb-8026-6699844a2719","","1490","
                <div class=""stimulus-container"">
                    <img src=""images/schematic_sequence/flight_scheme/flight_scheme_3.png"" class=""exp-image"">
                    <div class=""question-area"">
                        <p style=""font-size: 20px; font-weight: bold; margin: 0;"">Is there a person in this image?</p>
                    </div>
                </div>","0","main_experiment_trial","3","flight_scheme","schematic_sequence","chronological","","","","","","","",""
"","","","","","html-keyboard-response","107","569761","0.0-107.0","2A39186280D44F3FA5DA499DD20C4083","019d6675-2530-7314-a14c-62606dd9d1d8","019d6630-2071-75cb-8026-6699844a2719","","null","
                <div class=""stimulus-container"">
                    <img src=""images/schematic_sequence/flight_scheme/flight_scheme_4.png"" class=""exp-image"">
                    <div class=""question-area""></div> 
                </div>","null","","","","","","","","","","","","",""
"","","","","","html-button-response","108","570735","0.0-108.0","2A39186280D44F3FA5DA499DD20C4083","019d6675-2530-7314-a14c-62606dd9d1d8","019d6630-2071-75cb-8026-6699844a2719","","967","
                <div class=""stimulus-container"">
                    <img src=""images/schematic_sequence/flight_scheme/flight_scheme_4.png"" class=""exp-image"">
                    <div class=""question-area"">
                        <p style=""font-size: 20px; font-weight: bold; margin: 0;"">Is there a person in this image?</p>
                    </div>
                </div>","0","main_experiment_trial","4","flight_scheme","schematic_sequence","chronological","","","","","","","",""
"","","","","","html-keyboard-response","109","575741","0.0-109.0","2A39186280D44F3FA5DA499DD20C4083","019d6675-2530-7314-a14c-62606dd9d1d8","019d6630-2071-75cb-8026-6699844a2719","","null","
                <div class=""stimulus-container"">
                    <img src=""images/schematic_sequence/flight_scheme/flight_scheme_5.png"" class=""exp-image"">
                    <div class=""question-area""></div> 
                </div>","null","","","","","","","","","","","","",""
"","","","","","html-button-response","110","576568","0.0-110.0","2A39186280D44F3FA5DA499DD20C4083","019d6675-2530-7314-a14c-62606dd9d1d8","019d6630-2071-75cb-8026-6699844a2719","","820","
                <div class=""stimulus-container"">
                    <img src=""images/schematic_sequence/flight_scheme/flight_scheme_5.png"" class=""exp-image"">
                    <div class=""question-area"">
                        <p style=""font-size: 20px; font-weight: bold; margin: 0;"">Is there a person in this image?</p>
                    </div>
                </div>","0","main_experiment_trial","5","flight_scheme","schematic_sequence","chronological","","","","","","","",""
"","","","","","html-keyboard-response","111","581574","0.0-111.0","2A39186280D44F3FA5DA499DD20C4083","019d6675-2530-7314-a14c-62606dd9d1d8","019d6630-2071-75cb-8026-6699844a2719","","null","
                <div class=""stimulus-container"">
                    <img src=""images/schematic_sequence/flight_scheme/flight_scheme_6.png"" class=""exp-image"">
                    <div class=""question-area""></div> 
                </div>","null","","","","","","","","","","","","",""
"","","","","","html-button-response","112","582550","0.0-112.0","2A39186280D44F3FA5DA499DD20C4083","019d6675-2530-7314-a14c-62606dd9d1d8","019d6630-2071-75cb-8026-6699844a2719","","968","
                <div class=""stimulus-container"">
                    <img src=""images/schematic_sequence/flight_scheme/flight_scheme_6.png"" class=""exp-image"">
                    <div class=""question-area"">
                        <p style=""font-size: 20px; font-weight: bold; margin: 0;"">Is there a person in this image?</p>
                    </div>
                </div>","1","main_experiment_trial","6","flight_scheme","schematic_sequence","chronological","","","","","","","",""
"","","","","","html-keyboard-response","113","587557","0.0-113.0","2A39186280D44F3FA5DA499DD20C4083","019d6675-2530-7314-a14c-62606dd9d1d8","019d6630-2071-75cb-8026-6699844a2719","","null","
                <div class=""stimulus-container"">
                    <img src=""images/schematic_sequence/flight_scheme/flight_scheme_7.png"" class=""exp-image"">
                    <div class=""question-area""></div> 
                </div>","null","","","","","","","","","","","","",""
"","","","","","html-button-response","114","588217","0.0-114.0","2A39186280D44F3FA5DA499DD20C4083","019d6675-2530-7314-a14c-62606dd9d1d8","019d6630-2071-75cb-8026-6699844a2719","","654","
                <div class=""stimulus-container"">
                    <img src=""images/schematic_sequence/flight_scheme/flight_scheme_7.png"" class=""exp-image"">
                    <div class=""question-area"">
                        <p style=""font-size: 20px; font-weight: bold; margin: 0;"">Is there a person in this image?</p>
                    </div>
                </div>","1","main_experiment_trial","7","flight_scheme","schematic_sequence","chronological","","","","","","","",""
"","","","","","html-keyboard-response","115","593223","0.0-115.0","2A39186280D44F3FA5DA499DD20C4083","019d6675-2530-7314-a14c-62606dd9d1d8","019d6630-2071-75cb-8026-6699844a2719","","null","
                <div class=""stimulus-container"">
                    <img src=""images/schematic_sequence/flight_scheme/flight_scheme_8.png"" class=""exp-image"">
                    <div class=""question-area""></div> 
                </div>","null","","","","","","","","","","","","",""
"","","","","","html-button-response","116","596231","0.0-116.0","2A39186280D44F3FA5DA499DD20C4083","019d6675-2530-7314-a14c-62606dd9d1d8","019d6630-2071-75cb-8026-6699844a2719","","null","
                <div class=""stimulus-container"">
                    <img src=""images/schematic_sequence/flight_scheme/flight_scheme_8.png"" class=""exp-image"">
                    <div class=""question-area"">
                        <p style=""font-size: 20px; font-weight: bold; margin: 0;"">Is there a person in this image?</p>
                    </div>
                </div>","null","main_experiment_trial","8","flight_scheme","schematic_sequence","chronological","","","","","","","",""
"","","","","","html-keyboard-response","117","601239","0.0-117.0","2A39186280D44F3FA5DA499DD20C4083","019d6675-2530-7314-a14c-62606dd9d1d8","019d6630-2071-75cb-8026-6699844a2719","","null","
                <div class=""stimulus-container"">
                    <img src=""images/schematic_sequence/flight_scheme/flight_scheme_9.png"" class=""exp-image"">
                    <div class=""question-area""></div> 
                </div>","null","","","","","","","","","","","","",""
"","","","","","html-button-response","118","603484","0.0-118.0","2A39186280D44F3FA5DA499DD20C4083","019d6675-2530-7314-a14c-62606dd9d1d8","019d6630-2071-75cb-8026-6699844a2719","","2238","
                <div class=""stimulus-container"">
                    <img src=""images/schematic_sequence/flight_scheme/flight_scheme_9.png"" class=""exp-image"">
                    <div class=""question-area"">
                        <p style=""font-size: 20px; font-weight: bold; margin: 0;"">Is there a person in this image?</p>
                    </div>
                </div>","0","main_experiment_trial","9","flight_scheme","schematic_sequence","chronological","","","","","","","",""
"","","","","","html-keyboard-response","119","608491","0.0-119.0","2A39186280D44F3FA5DA499DD20C4083","019d6675-2530-7314-a14c-62606dd9d1d8","019d6630-2071-75cb-8026-6699844a2719","","null","
                <div class=""stimulus-container"">
                    <img src=""images/schematic_sequence/flight_scheme/flight_scheme_ten.png"" class=""exp-image"">
                    <div class=""question-area""></div> 
                </div>","null","","","","","","","","","","","","",""
"","","","","","html-button-response","120","609484","0.0-120.0","2A39186280D44F3FA5DA499DD20C4083","019d6675-2530-7314-a14c-62606dd9d1d8","019d6630-2071-75cb-8026-6699844a2719","","986","
                <div class=""stimulus-container"">
                    <img src=""images/schematic_sequence/flight_scheme/flight_scheme_ten.png"" class=""exp-image"">
                    <div class=""question-area"">
                        <p style=""font-size: 20px; font-weight: bold; margin: 0;"">Is there a person in this image?</p>
                    </div>
                </div>","0","main_experiment_trial","ten","flight_scheme","schematic_sequence","chronological","","","","","","","",""
"","","","","","html-keyboard-response","121","614485","0.0-121.0","2A39186280D44F3FA5DA499DD20C4083","019d6675-2530-7314-a14c-62606dd9d1d8","019d6630-2071-75cb-8026-6699844a2719","","null","<div style=""background-color: white; width: 100vw; height: 100vh;""></div>","null","","","","","","","","","","","","",""
"","","","","","html-keyboard-response","122","619493","0.0-122.0","2A39186280D44F3FA5DA499DD20C4083","019d6675-2530-7314-a14c-62606dd9d1d8","019d6630-2071-75cb-8026-6699844a2719","","null","
                <div class=""stimulus-container"">
                    <img src=""images/schematic_sequence/supermarket_scheme/supermarket_scheme_1.png"" class=""exp-image"">
                    <div class=""question-area""></div> 
                </div>","null","","","","","","","","","","","","",""
"","","","","","html-button-response","123","620950","0.0-123.0","2A39186280D44F3FA5DA499DD20C4083","019d6675-2530-7314-a14c-62606dd9d1d8","019d6630-2071-75cb-8026-6699844a2719","","1450","
                <div class=""stimulus-container"">
                    <img src=""images/schematic_sequence/supermarket_scheme/supermarket_scheme_1.png"" class=""exp-image"">
                    <div class=""question-area"">
                        <p style=""font-size: 20px; font-weight: bold; margin: 0;"">Is there a person in this image?</p>
                    </div>
                </div>","1","main_experiment_trial","1","supermarket_scheme","schematic_sequence","chronological","","","","","","","",""
"","","","","","html-keyboard-response","124","625956","0.0-124.0","2A39186280D44F3FA5DA499DD20C4083","019d6675-2530-7314-a14c-62606dd9d1d8","019d6630-2071-75cb-8026-6699844a2719","","null","
                <div class=""stimulus-container"">
                    <img src=""images/schematic_sequence/supermarket_scheme/supermarket_scheme_2.png"" class=""exp-image"">
                    <div class=""question-area""></div> 
                </div>","null","","","","","","","","","","","","",""
"","","","","","html-button-response","125","626767","0.0-125.0","2A39186280D44F3FA5DA499DD20C4083","019d6675-2530-7314-a14c-62606dd9d1d8","019d6630-2071-75cb-8026-6699844a2719","","804","
                <div class=""stimulus-container"">
                    <img src=""images/schematic_sequence/supermarket_scheme/supermarket_scheme_2.png"" class=""exp-image"">
                    <div class=""question-area"">
                        <p style=""font-size: 20px; font-weight: bold; margin: 0;"">Is there a person in this image?</p>
                    </div>
                </div>","1","main_experiment_trial","2","supermarket_scheme","schematic_sequence","chronological","","","","","","","",""
"","","","","","html-keyboard-response","126","631774","0.0-126.0","2A39186280D44F3FA5DA499DD20C4083","019d6675-2530-7314-a14c-62606dd9d1d8","019d6630-2071-75cb-8026-6699844a2719","","null","
                <div class=""stimulus-container"">
                    <img src=""images/schematic_sequence/supermarket_scheme/supermarket_scheme_3.png"" class=""exp-image"">
                    <div class=""question-area""></div> 
                </div>","null","","","","","","","","","","","","",""
"","","","","","html-button-response","127","632749","0.0-127.0","2A39186280D44F3FA5DA499DD20C4083","019d6675-2530-7314-a14c-62606dd9d1d8","019d6630-2071-75cb-8026-6699844a2719","","967","
                <div class=""stimulus-container"">
                    <img src=""images/schematic_sequence/supermarket_scheme/supermarket_scheme_3.png"" class=""exp-image"">
                    <div class=""question-area"">
                        <p style=""font-size: 20px; font-weight: bold; margin: 0;"">Is there a person in this image?</p>
                    </div>
                </div>","1","main_experiment_trial","3","supermarket_scheme","schematic_sequence","chronological","","","","","","","",""
"","","","","","html-keyboard-response","128","637753","0.0-128.0","2A39186280D44F3FA5DA499DD20C4083","019d6675-2530-7314-a14c-62606dd9d1d8","019d6630-2071-75cb-8026-6699844a2719","","null","
                <div class=""stimulus-container"">
                    <img src=""images/schematic_sequence/supermarket_scheme/supermarket_scheme_4.png"" class=""exp-image"">
                    <div class=""question-area""></div> 
                </div>","null","","","","","","","","","","","","",""
"","","","","","html-button-response","129","638884","0.0-129.0","2A39186280D44F3FA5DA499DD20C4083","019d6675-2530-7314-a14c-62606dd9d1d8","019d6630-2071-75cb-8026-6699844a2719","","1123","
                <div class=""stimulus-container"">
                    <img src=""images/schematic_sequence/supermarket_scheme/supermarket_scheme_4.png"" class=""exp-image"">
                    <div class=""question-area"">
                        <p style=""font-size: 20px; font-weight: bold; margin: 0;"">Is there a person in this image?</p>
                    </div>
                </div>","0","main_experiment_trial","4","supermarket_scheme","schematic_sequence","chronological","","","","","","","",""
"","","","","","html-keyboard-response","130","643891","0.0-130.0","2A39186280D44F3FA5DA499DD20C4083","019d6675-2530-7314-a14c-62606dd9d1d8","019d6630-2071-75cb-8026-6699844a2719","","null","
                <div class=""stimulus-container"">
                    <img src=""images/schematic_sequence/supermarket_scheme/supermarket_scheme_5.png"" class=""exp-image"">
                    <div class=""question-area""></div> 
                </div>","null","","","","","","","","","","","","",""
"","","","","","html-button-response","131","644600","0.0-131.0","2A39186280D44F3FA5DA499DD20C4083","019d6675-2530-7314-a14c-62606dd9d1d8","019d6630-2071-75cb-8026-6699844a2719","","701","
                <div class=""stimulus-container"">
                    <img src=""images/schematic_sequence/supermarket_scheme/supermarket_scheme_5.png"" class=""exp-image"">
                    <div class=""question-area"">
                        <p style=""font-size: 20px; font-weight: bold; margin: 0;"">Is there a person in this image?</p>
                    </div>
                </div>","1","main_experiment_trial","5","supermarket_scheme","schematic_sequence","chronological","","","","","","","",""
"","","","","","html-keyboard-response","132","649607","0.0-132.0","2A39186280D44F3FA5DA499DD20C4083","019d6675-2530-7314-a14c-62606dd9d1d8","019d6630-2071-75cb-8026-6699844a2719","","null","
                <div class=""stimulus-container"">
                    <img src=""images/schematic_sequence/supermarket_scheme/supermarket_scheme_6.png"" class=""exp-image"">
                    <div class=""question-area""></div> 
                </div>","null","","","","","","","","","","","","",""
"","","","","","html-button-response","133","650900","0.0-133.0","2A39186280D44F3FA5DA499DD20C4083","019d6675-2530-7314-a14c-62606dd9d1d8","019d6630-2071-75cb-8026-6699844a2719","","1287","
                <div class=""stimulus-container"">
                    <img src=""images/schematic_sequence/supermarket_scheme/supermarket_scheme_6.png"" class=""exp-image"">
                    <div class=""question-area"">
                        <p style=""font-size: 20px; font-weight: bold; margin: 0;"">Is there a person in this image?</p>
                    </div>
                </div>","0","main_experiment_trial","6","supermarket_scheme","schematic_sequence","chronological","","","","","","","",""
"","","","","","html-keyboard-response","134","655907","0.0-134.0","2A39186280D44F3FA5DA499DD20C4083","019d6675-2530-7314-a14c-62606dd9d1d8","019d6630-2071-75cb-8026-6699844a2719","","null","
                <div class=""stimulus-container"">
                    <img src=""images/schematic_sequence/supermarket_scheme/supermarket_scheme_7.png"" class=""exp-image"">
                    <div class=""question-area""></div> 
                </div>","null","","","","","","","","","","","","",""
"","","","","","html-button-response","135","656483","0.0-135.0","2A39186280D44F3FA5DA499DD20C4083","019d6675-2530-7314-a14c-62606dd9d1d8","019d6630-2071-75cb-8026-6699844a2719","","570","
                <div class=""stimulus-container"">
                    <img src=""images/schematic_sequence/supermarket_scheme/supermarket_scheme_7.png"" class=""exp-image"">
                    <div class=""question-area"">
                        <p style=""font-size: 20px; font-weight: bold; margin: 0;"">Is there a person in this image?</p>
                    </div>
                </div>","0","main_experiment_trial","7","supermarket_scheme","schematic_sequence","chronological","","","","","","","",""
"","","","","","html-keyboard-response","136","661488","0.0-136.0","2A39186280D44F3FA5DA499DD20C4083","019d6675-2530-7314-a14c-62606dd9d1d8","019d6630-2071-75cb-8026-6699844a2719","","null","
                <div class=""stimulus-container"">
                    <img src=""images/schematic_sequence/supermarket_scheme/supermarket_scheme_8.png"" class=""exp-image"">
                    <div class=""question-area""></div> 
                </div>","null","","","","","","","","","","","","",""
"","","","","","html-button-response","137","662133","0.0-137.0","2A39186280D44F3FA5DA499DD20C4083","019d6675-2530-7314-a14c-62606dd9d1d8","019d6630-2071-75cb-8026-6699844a2719","","638","
                <div class=""stimulus-container"">
                    <img src=""images/schematic_sequence/supermarket_scheme/supermarket_scheme_8.png"" class=""exp-image"">
                    <div class=""question-area"">
                        <p style=""font-size: 20px; font-weight: bold; margin: 0;"">Is there a person in this image?</p>
                    </div>
                </div>","0","main_experiment_trial","8","supermarket_scheme","schematic_sequence","chronological","","","","","","","",""
"","","","","","html-keyboard-response","138","667139","0.0-138.0","2A39186280D44F3FA5DA499DD20C4083","019d6675-2530-7314-a14c-62606dd9d1d8","019d6630-2071-75cb-8026-6699844a2719","","null","
                <div class=""stimulus-container"">
                    <img src=""images/schematic_sequence/supermarket_scheme/supermarket_scheme_9.png"" class=""exp-image"">
                    <div class=""question-area""></div> 
                </div>","null","","","","","","","","","","","","",""
"","","","","","html-button-response","139","667716","0.0-139.0","2A39186280D44F3FA5DA499DD20C4083","019d6675-2530-7314-a14c-62606dd9d1d8","019d6630-2071-75cb-8026-6699844a2719","","570","
                <div class=""stimulus-container"">
                    <img src=""images/schematic_sequence/supermarket_scheme/supermarket_scheme_9.png"" class=""exp-image"">
                    <div class=""question-area"">
                        <p style=""font-size: 20px; font-weight: bold; margin: 0;"">Is there a person in this image?</p>
                    </div>
                </div>","0","main_experiment_trial","9","supermarket_scheme","schematic_sequence","chronological","","","","","","","",""
"","","","","","html-keyboard-response","140","672721","0.0-140.0","2A39186280D44F3FA5DA499DD20C4083","019d6675-2530-7314-a14c-62606dd9d1d8","019d6630-2071-75cb-8026-6699844a2719","","null","
                <div class=""stimulus-container"">
                    <img src=""images/schematic_sequence/supermarket_scheme/supermarket_scheme_ten.png"" class=""exp-image"">
                    <div class=""question-area""></div> 
                </div>","null","","","","","","","","","","","","",""
"","","","","","html-button-response","141","673501","0.0-141.0","2A39186280D44F3FA5DA499DD20C4083","019d6675-2530-7314-a14c-62606dd9d1d8","019d6630-2071-75cb-8026-6699844a2719","","772","
                <div class=""stimulus-container"">
                    <img src=""images/schematic_sequence/supermarket_scheme/supermarket_scheme_ten.png"" class=""exp-image"">
                    <div class=""question-area"">
                        <p style=""font-size: 20px; font-weight: bold; margin: 0;"">Is there a person in this image?</p>
                    </div>
                </div>","1","main_experiment_trial","ten","supermarket_scheme","schematic_sequence","chronological","","","","","","","",""
"","","","","","html-keyboard-response","142","678502","0.0-142.0","2A39186280D44F3FA5DA499DD20C4083","019d6675-2530-7314-a14c-62606dd9d1d8","019d6630-2071-75cb-8026-6699844a2719","","null","<div style=""background-color: white; width: 100vw; height: 100vh;""></div>","null","","","","","","","","","","","","",""
"","","","","","html-keyboard-response","143","683509","0.0-143.0","2A39186280D44F3FA5DA499DD20C4083","019d6675-2530-7314-a14c-62606dd9d1d8","019d6630-2071-75cb-8026-6699844a2719","","null","
                <div class=""stimulus-container"">
                    <img src=""images/causal_sequence/the_performance_causal/the_performance_causal_1.png"" class=""exp-image"">
                    <div class=""question-area""></div> 
                </div>","null","","","","","","","","","","","","",""
"","","","","","html-button-response","144","684800","0.0-144.0","2A39186280D44F3FA5DA499DD20C4083","019d6675-2530-7314-a14c-62606dd9d1d8","019d6630-2071-75cb-8026-6699844a2719","","1284","
                <div class=""stimulus-container"">
                    <img src=""images/causal_sequence/the_performance_causal/the_performance_causal_1.png"" class=""exp-image"">
                    <div class=""question-area"">
                        <p style=""font-size: 20px; font-weight: bold; margin: 0;"">Is there a person in this image?</p>
                    </div>
                </div>","0","main_experiment_trial","1","the_performance_causal","causal_sequence","chronological","","","","","","","",""
"","","","","","html-keyboard-response","145","689805","0.0-145.0","2A39186280D44F3FA5DA499DD20C4083","019d6675-2530-7314-a14c-62606dd9d1d8","019d6630-2071-75cb-8026-6699844a2719","","null","
                <div class=""stimulus-container"">
                    <img src=""images/causal_sequence/the_performance_causal/the_performance_causal_2.png"" class=""exp-image"">
                    <div class=""question-area""></div> 
                </div>","null","","","","","","","","","","","","",""
"","","","","","html-button-response","146","690500","0.0-146.0","2A39186280D44F3FA5DA499DD20C4083","019d6675-2530-7314-a14c-62606dd9d1d8","019d6630-2071-75cb-8026-6699844a2719","","688","
                <div class=""stimulus-container"">
                    <img src=""images/causal_sequence/the_performance_causal/the_performance_causal_2.png"" class=""exp-image"">
                    <div class=""question-area"">
                        <p style=""font-size: 20px; font-weight: bold; margin: 0;"">Is there a person in this image?</p>
                    </div>
                </div>","0","main_experiment_trial","2","the_performance_causal","causal_sequence","chronological","","","","","","","",""
"","","","","","html-keyboard-response","147","695505","0.0-147.0","2A39186280D44F3FA5DA499DD20C4083","019d6675-2530-7314-a14c-62606dd9d1d8","019d6630-2071-75cb-8026-6699844a2719","","null","
                <div class=""stimulus-container"">
                    <img src=""images/causal_sequence/the_performance_causal/the_performance_causal_3.png"" class=""exp-image"">
                    <div class=""question-area""></div> 
                </div>","null","","","","","","","","","","","","",""
"","","","","","html-button-response","148","696132","0.0-148.0","2A39186280D44F3FA5DA499DD20C4083","019d6675-2530-7314-a14c-62606dd9d1d8","019d6630-2071-75cb-8026-6699844a2719","","619","
                <div class=""stimulus-container"">
                    <img src=""images/causal_sequence/the_performance_causal/the_performance_causal_3.png"" class=""exp-image"">
                    <div class=""question-area"">
                        <p style=""font-size: 20px; font-weight: bold; margin: 0;"">Is there a person in this image?</p>
                    </div>
                </div>","0","main_experiment_trial","3","the_performance_causal","causal_sequence","chronological","","","","","","","",""
"","","","","","html-keyboard-response","149","701137","0.0-149.0","2A39186280D44F3FA5DA499DD20C4083","019d6675-2530-7314-a14c-62606dd9d1d8","019d6630-2071-75cb-8026-6699844a2719","","null","
                <div class=""stimulus-container"">
                    <img src=""images/causal_sequence/the_performance_causal/the_performance_causal_4.png"" class=""exp-image"">
                    <div class=""question-area""></div> 
                </div>","null","","","","","","","","","","","","",""
"","","","","","html-button-response","150","701684","0.0-150.0","2A39186280D44F3FA5DA499DD20C4083","019d6675-2530-7314-a14c-62606dd9d1d8","019d6630-2071-75cb-8026-6699844a2719","","540","
                <div class=""stimulus-container"">
                    <img src=""images/causal_sequence/the_performance_causal/the_performance_causal_4.png"" class=""exp-image"">
                    <div class=""question-area"">
                        <p style=""font-size: 20px; font-weight: bold; margin: 0;"">Is there a person in this image?</p>
                    </div>
                </div>","0","main_experiment_trial","4","the_performance_causal","causal_sequence","chronological","","","","","","","",""
"","","","","","html-keyboard-response","151","706691","0.0-151.0","2A39186280D44F3FA5DA499DD20C4083","019d6675-2530-7314-a14c-62606dd9d1d8","019d6630-2071-75cb-8026-6699844a2719","","null","
                <div class=""stimulus-container"">
                    <img src=""images/causal_sequence/the_performance_causal/the_performance_causal_5.png"" class=""exp-image"">
                    <div class=""question-area""></div> 
                </div>","null","","","","","","","","","","","","",""
"","","","","","html-button-response","152","707317","0.0-152.0","2A39186280D44F3FA5DA499DD20C4083","019d6675-2530-7314-a14c-62606dd9d1d8","019d6630-2071-75cb-8026-6699844a2719","","620","
                <div class=""stimulus-container"">
                    <img src=""images/causal_sequence/the_performance_causal/the_performance_causal_5.png"" class=""exp-image"">
                    <div class=""question-area"">
                        <p style=""font-size: 20px; font-weight: bold; margin: 0;"">Is there a person in this image?</p>
                    </div>
                </div>","0","main_experiment_trial","5","the_performance_causal","causal_sequence","chronological","","","","","","","",""
"","","","","","html-keyboard-response","153","712322","0.0-153.0","2A39186280D44F3FA5DA499DD20C4083","019d6675-2530-7314-a14c-62606dd9d1d8","019d6630-2071-75cb-8026-6699844a2719","","null","
                <div class=""stimulus-container"">
                    <img src=""images/causal_sequence/the_performance_causal/the_performance_causal_6.png"" class=""exp-image"">
                    <div class=""question-area""></div> 
                </div>","null","","","","","","","","","","","","",""
"","","","","","html-button-response","154","712984","0.0-154.0","2A39186280D44F3FA5DA499DD20C4083","019d6675-2530-7314-a14c-62606dd9d1d8","019d6630-2071-75cb-8026-6699844a2719","","655","
                <div class=""stimulus-container"">
                    <img src=""images/causal_sequence/the_performance_causal/the_performance_causal_6.png"" class=""exp-image"">
                    <div class=""question-area"">
                        <p style=""font-size: 20px; font-weight: bold; margin: 0;"">Is there a person in this image?</p>
                    </div>
                </div>","0","main_experiment_trial","6","the_performance_causal","causal_sequence","chronological","","","","","","","",""
"","","","","","html-keyboard-response","155","717990","0.0-155.0","2A39186280D44F3FA5DA499DD20C4083","019d6675-2530-7314-a14c-62606dd9d1d8","019d6630-2071-75cb-8026-6699844a2719","","null","
                <div class=""stimulus-container"">
                    <img src=""images/causal_sequence/the_performance_causal/the_performance_causal_7.png"" class=""exp-image"">
                    <div class=""question-area""></div> 
                </div>","null","","","","","","","","","","","","",""
"","","","","","html-button-response","156","718518","0.0-156.0","2A39186280D44F3FA5DA499DD20C4083","019d6675-2530-7314-a14c-62606dd9d1d8","019d6630-2071-75cb-8026-6699844a2719","","520","
                <div class=""stimulus-container"">
                    <img src=""images/causal_sequence/the_performance_causal/the_performance_causal_7.png"" class=""exp-image"">
                    <div class=""question-area"">
                        <p style=""font-size: 20px; font-weight: bold; margin: 0;"">Is there a person in this image?</p>
                    </div>
                </div>","0","main_experiment_trial","7","the_performance_causal","causal_sequence","chronological","","","","","","","",""
"","","","","","html-keyboard-response","157","723522","0.0-157.0","2A39186280D44F3FA5DA499DD20C4083","019d6675-2530-7314-a14c-62606dd9d1d8","019d6630-2071-75cb-8026-6699844a2719","","null","
                <div class=""stimulus-container"">
                    <img src=""images/causal_sequence/the_performance_causal/the_performance_causal_8.png"" class=""exp-image"">
                    <div class=""question-area""></div> 
                </div>","null","","","","","","","","","","","","",""
"","","","","","html-button-response","158","724018","0.0-158.0","2A39186280D44F3FA5DA499DD20C4083","019d6675-2530-7314-a14c-62606dd9d1d8","019d6630-2071-75cb-8026-6699844a2719","","488","
                <div class=""stimulus-container"">
                    <img src=""images/causal_sequence/the_performance_causal/the_performance_causal_8.png"" class=""exp-image"">
                    <div class=""question-area"">
                        <p style=""font-size: 20px; font-weight: bold; margin: 0;"">Is there a person in this image?</p>
                    </div>
                </div>","0","main_experiment_trial","8","the_performance_causal","causal_sequence","chronological","","","","","","","",""
"","","","","","html-keyboard-response","159","729023","0.0-159.0","2A39186280D44F3FA5DA499DD20C4083","019d6675-2530-7314-a14c-62606dd9d1d8","019d6630-2071-75cb-8026-6699844a2719","","null","
                <div class=""stimulus-container"">
                    <img src=""images/causal_sequence/the_performance_causal/the_performance_causal_9.png"" class=""exp-image"">
                    <div class=""question-area""></div> 
                </div>","null","","","","","","","","","","","","",""
"","","","","","html-button-response","160","729701","0.0-160.0","2A39186280D44F3FA5DA499DD20C4083","019d6675-2530-7314-a14c-62606dd9d1d8","019d6630-2071-75cb-8026-6699844a2719","","671","
                <div class=""stimulus-container"">
                    <img src=""images/causal_sequence/the_performance_causal/the_performance_causal_9.png"" class=""exp-image"">
                    <div class=""question-area"">
                        <p style=""font-size: 20px; font-weight: bold; margin: 0;"">Is there a person in this image?</p>
                    </div>
                </div>","0","main_experiment_trial","9","the_performance_causal","causal_sequence","chronological","","","","","","","",""
"","","","","","html-keyboard-response","161","734707","0.0-161.0","2A39186280D44F3FA5DA499DD20C4083","019d6675-2530-7314-a14c-62606dd9d1d8","019d6630-2071-75cb-8026-6699844a2719","","null","
                <div class=""stimulus-container"">
                    <img src=""images/causal_sequence/the_performance_causal/the_performance_causal_ten.png"" class=""exp-image"">
                    <div class=""question-area""></div> 
                </div>","null","","","","","","","","","","","","",""
"","","","","","html-button-response","162","735384","0.0-162.0","2A39186280D44F3FA5DA499DD20C4083","019d6675-2530-7314-a14c-62606dd9d1d8","019d6630-2071-75cb-8026-6699844a2719","","670","
                <div class=""stimulus-container"">
                    <img src=""images/causal_sequence/the_performance_causal/the_performance_causal_ten.png"" class=""exp-image"">
                    <div class=""question-area"">
                        <p style=""font-size: 20px; font-weight: bold; margin: 0;"">Is there a person in this image?</p>
                    </div>
                </div>","0","main_experiment_trial","ten","the_performance_causal","causal_sequence","chronological","","","","","","","",""
"","","","","","html-keyboard-response","163","740386","0.0-163.0","2A39186280D44F3FA5DA499DD20C4083","019d6675-2530-7314-a14c-62606dd9d1d8","019d6630-2071-75cb-8026-6699844a2719","","null","<div style=""background-color: white; width: 100vw; height: 100vh;""></div>","null","","","","","","","","","","","","",""
"","","","","","html-keyboard-response","164","745394","0.0-164.0","2A39186280D44F3FA5DA499DD20C4083","019d6675-2530-7314-a14c-62606dd9d1d8","019d6630-2071-75cb-8026-6699844a2719","","null","
                <div class=""stimulus-container"">
                    <img src=""images/causal_sequence/package_causal/package_causal_1.png"" class=""exp-image"">
                    <div class=""question-area""></div> 
                </div>","null","","","","","","","","","","","","",""
"","","","","","html-button-response","165","745967","0.0-165.0","2A39186280D44F3FA5DA499DD20C4083","019d6675-2530-7314-a14c-62606dd9d1d8","019d6630-2071-75cb-8026-6699844a2719","","565","
                <div class=""stimulus-container"">
                    <img src=""images/causal_sequence/package_causal/package_causal_1.png"" class=""exp-image"">
                    <div class=""question-area"">
                        <p style=""font-size: 20px; font-weight: bold; margin: 0;"">Is there a person in this image?</p>
                    </div>
                </div>","0","main_experiment_trial","1","package_causal","causal_sequence","chronological","","","","","","","",""
"","","","","","html-keyboard-response","166","750971","0.0-166.0","2A39186280D44F3FA5DA499DD20C4083","019d6675-2530-7314-a14c-62606dd9d1d8","019d6630-2071-75cb-8026-6699844a2719","","null","
                <div class=""stimulus-container"">
                    <img src=""images/causal_sequence/package_causal/package_causal_2.png"" class=""exp-image"">
                    <div class=""question-area""></div> 
                </div>","null","","","","","","","","","","","","",""
"","","","","","html-button-response","167","751551","0.0-167.0","2A39186280D44F3FA5DA499DD20C4083","019d6675-2530-7314-a14c-62606dd9d1d8","019d6630-2071-75cb-8026-6699844a2719","","574","
                <div class=""stimulus-container"">
                    <img src=""images/causal_sequence/package_causal/package_causal_2.png"" class=""exp-image"">
                    <div class=""question-area"">
                        <p style=""font-size: 20px; font-weight: bold; margin: 0;"">Is there a person in this image?</p>
                    </div>
                </div>","0","main_experiment_trial","2","package_causal","causal_sequence","chronological","","","","","","","",""
"","","","","","html-keyboard-response","168","756557","0.0-168.0","2A39186280D44F3FA5DA499DD20C4083","019d6675-2530-7314-a14c-62606dd9d1d8","019d6630-2071-75cb-8026-6699844a2719","","null","
                <div class=""stimulus-container"">
                    <img src=""images/causal_sequence/package_causal/package_causal_3.png"" class=""exp-image"">
                    <div class=""question-area""></div> 
                </div>","null","","","","","","","","","","","","",""
"","","","","","html-button-response","169","757584","0.0-169.0","2A39186280D44F3FA5DA499DD20C4083","019d6675-2530-7314-a14c-62606dd9d1d8","019d6630-2071-75cb-8026-6699844a2719","","1019","
                <div class=""stimulus-container"">
                    <img src=""images/causal_sequence/package_causal/package_causal_3.png"" class=""exp-image"">
                    <div class=""question-area"">
                        <p style=""font-size: 20px; font-weight: bold; margin: 0;"">Is there a person in this image?</p>
                    </div>
                </div>","0","main_experiment_trial","3","package_causal","causal_sequence","chronological","","","","","","","",""
"","","","","","html-keyboard-response","170","762589","0.0-170.0","2A39186280D44F3FA5DA499DD20C4083","019d6675-2530-7314-a14c-62606dd9d1d8","019d6630-2071-75cb-8026-6699844a2719","","null","
                <div class=""stimulus-container"">
                    <img src=""images/causal_sequence/package_causal/package_causal_4.png"" class=""exp-image"">
                    <div class=""question-area""></div> 
                </div>","null","","","","","","","","","","","","",""
"","","","","","html-button-response","171","763219","0.0-171.0","2A39186280D44F3FA5DA499DD20C4083","019d6675-2530-7314-a14c-62606dd9d1d8","019d6630-2071-75cb-8026-6699844a2719","","623","
                <div class=""stimulus-container"">
                    <img src=""images/causal_sequence/package_causal/package_causal_4.png"" class=""exp-image"">
                    <div class=""question-area"">
                        <p style=""font-size: 20px; font-weight: bold; margin: 0;"">Is there a person in this image?</p>
                    </div>
                </div>","1","main_experiment_trial","4","package_causal","causal_sequence","chronological","","","","","","","",""
"","","","","","html-keyboard-response","172","768226","0.0-172.0","2A39186280D44F3FA5DA499DD20C4083","019d6675-2530-7314-a14c-62606dd9d1d8","019d6630-2071-75cb-8026-6699844a2719","","null","
                <div class=""stimulus-container"">
                    <img src=""images/causal_sequence/package_causal/package_causal_5.png"" class=""exp-image"">
                    <div class=""question-area""></div> 
                </div>","null","","","","","","","","","","","","",""
"","","","","","html-button-response","173","769702","0.0-173.0","2A39186280D44F3FA5DA499DD20C4083","019d6675-2530-7314-a14c-62606dd9d1d8","019d6630-2071-75cb-8026-6699844a2719","","1468","
                <div class=""stimulus-container"">
                    <img src=""images/causal_sequence/package_causal/package_causal_5.png"" class=""exp-image"">
                    <div class=""question-area"">
                        <p style=""font-size: 20px; font-weight: bold; margin: 0;"">Is there a person in this image?</p>
                    </div>
                </div>","0","main_experiment_trial","5","package_causal","causal_sequence","chronological","","","","","","","",""
"","","","","","html-keyboard-response","174","774709","0.0-174.0","2A39186280D44F3FA5DA499DD20C4083","019d6675-2530-7314-a14c-62606dd9d1d8","019d6630-2071-75cb-8026-6699844a2719","","null","
                <div class=""stimulus-container"">
                    <img src=""images/causal_sequence/package_causal/package_causal_6.png"" class=""exp-image"">
                    <div class=""question-area""></div> 
                </div>","null","","","","","","","","","","","","",""
"","","","","","html-button-response","175","775318","0.0-175.0","2A39186280D44F3FA5DA499DD20C4083","019d6675-2530-7314-a14c-62606dd9d1d8","019d6630-2071-75cb-8026-6699844a2719","","603","
                <div class=""stimulus-container"">
                    <img src=""images/causal_sequence/package_causal/package_causal_6.png"" class=""exp-image"">
                    <div class=""question-area"">
                        <p style=""font-size: 20px; font-weight: bold; margin: 0;"">Is there a person in this image?</p>
                    </div>
                </div>","0","main_experiment_trial","6","package_causal","causal_sequence","chronological","","","","","","","",""
"","","","","","html-keyboard-response","176","780324","0.0-176.0","2A39186280D44F3FA5DA499DD20C4083","019d6675-2530-7314-a14c-62606dd9d1d8","019d6630-2071-75cb-8026-6699844a2719","","null","
                <div class=""stimulus-container"">
                    <img src=""images/causal_sequence/package_causal/package_causal_7.png"" class=""exp-image"">
                    <div class=""question-area""></div> 
                </div>","null","","","","","","","","","","","","",""
"","","","","","html-button-response","177","781168","0.0-177.0","2A39186280D44F3FA5DA499DD20C4083","019d6675-2530-7314-a14c-62606dd9d1d8","019d6630-2071-75cb-8026-6699844a2719","","836","
                <div class=""stimulus-container"">
                    <img src=""images/causal_sequence/package_causal/package_causal_7.png"" class=""exp-image"">
