"success","timeout","failed_images","failed_audio","failed_video","trial_type","trial_index","time_elapsed","internal_node_id","subject_id","study_id","session_id","view_history","rt","stimulus","response","task","image_index","folder","sequence_type","valuable_image_index","reward_type","chosen_image_index","correct_choice"
"true","false","[]","[]","[]","preload","0","5779","0.0-0.0","7D0CC43EFF454085A097E314118598BA","019cee71-2062-7540-b397-0d16a1f97ba4","019cee5f-9f1f-7e58-80c1-9ba679249cc3","","","","","","","","","","","",""
"","","","","","instructions","1","7038","0.0-1.0","7D0CC43EFF454085A097E314118598BA","019cee71-2062-7540-b397-0d16a1f97ba4","019cee5f-9f1f-7e58-80c1-9ba679249cc3","[{""page_index"":0,""viewing_time"":1259}]","1259","","","","","","","","","",""
"","","","","","instructions","2","9008","0.0-2.0","7D0CC43EFF454085A097E314118598BA","019cee71-2062-7540-b397-0d16a1f97ba4","019cee5f-9f1f-7e58-80c1-9ba679249cc3","[{""page_index"":0,""viewing_time"":1970}]","1970","","","","","","","","","",""
"true","","","","","fullscreen","3","10990","0.0-3.0","7D0CC43EFF454085A097E314118598BA","019cee71-2062-7540-b397-0d16a1f97ba4","019cee5f-9f1f-7e58-80c1-9ba679249cc3","","980","","","","","","","","","",""
"","","","","","instructions","4","18580","0.0-4.0","7D0CC43EFF454085A097E314118598BA","019cee71-2062-7540-b397-0d16a1f97ba4","019cee5f-9f1f-7e58-80c1-9ba679249cc3","[{""page_index"":0,""viewing_time"":7589}]","7589","","","","","","","","","",""
"","","","","","instructions","5","27583","0.0-5.0","7D0CC43EFF454085A097E314118598BA","019cee71-2062-7540-b397-0d16a1f97ba4","019cee5f-9f1f-7e58-80c1-9ba679249cc3","[{""page_index"":0,""viewing_time"":9004}]","9004","","","","","","","","","",""
"","","","","","html-keyboard-response","6","31592","0.0-6.0","7D0CC43EFF454085A097E314118598BA","019cee71-2062-7540-b397-0d16a1f97ba4","019cee5f-9f1f-7e58-80c1-9ba679249cc3","","null","
                <div class=""stimulus-container"">
                    <img src=""images/instructions/movie_1.png"" class=""exp-image"">
                    <div class=""question-area""></div> 
                </div>","null","","","","","","","",""
"","","","","","html-button-response","7","33513","0.0-7.0","7D0CC43EFF454085A097E314118598BA","019cee71-2062-7540-b397-0d16a1f97ba4","019cee5f-9f1f-7e58-80c1-9ba679249cc3","","1920","
                <div class=""stimulus-container"">
                    <img src=""images/instructions/movie_1.png"" class=""exp-image"">
                    <div class=""question-area"">
                        <p style=""font-size: 20px; font-weight: bold; margin: 0;"">Was there a person in this image?</p>
                    </div>
                </div>","0","example_question","1","","","","","",""
"","","","","","html-keyboard-response","8","37515","0.0-8.0","7D0CC43EFF454085A097E314118598BA","019cee71-2062-7540-b397-0d16a1f97ba4","019cee5f-9f1f-7e58-80c1-9ba679249cc3","","null","
                <div class=""stimulus-container"">
                    <img src=""images/instructions/movie_2.png"" class=""exp-image"">
                    <div class=""question-area""></div> 
                </div>","null","","","","","","","",""
"","","","","","html-button-response","9","38550","0.0-9.0","7D0CC43EFF454085A097E314118598BA","019cee71-2062-7540-b397-0d16a1f97ba4","019cee5f-9f1f-7e58-80c1-9ba679249cc3","","1034","
                <div class=""stimulus-container"">
                    <img src=""images/instructions/movie_2.png"" class=""exp-image"">
                    <div class=""question-area"">
                        <p style=""font-size: 20px; font-weight: bold; margin: 0;"">Was there a person in this image?</p>
                    </div>
                </div>","0","example_question","2","","","","","",""
"","","","","","html-keyboard-response","10","42564","0.0-10.0","7D0CC43EFF454085A097E314118598BA","019cee71-2062-7540-b397-0d16a1f97ba4","019cee5f-9f1f-7e58-80c1-9ba679249cc3","","null","
                <div class=""stimulus-container"">
                    <img src=""images/instructions/movie_3.png"" class=""exp-image"">
                    <div class=""question-area""></div> 
                </div>","null","","","","","","","",""
"","","","","","html-button-response","11","43379","0.0-11.0","7D0CC43EFF454085A097E314118598BA","019cee71-2062-7540-b397-0d16a1f97ba4","019cee5f-9f1f-7e58-80c1-9ba679249cc3","","815","
                <div class=""stimulus-container"">
                    <img src=""images/instructions/movie_3.png"" class=""exp-image"">
                    <div class=""question-area"">
                        <p style=""font-size: 20px; font-weight: bold; margin: 0;"">Was there a person in this image?</p>
                    </div>
                </div>","0","example_question","3","","","","","",""
"","","","","","html-keyboard-response","12","47395","0.0-12.0","7D0CC43EFF454085A097E314118598BA","019cee71-2062-7540-b397-0d16a1f97ba4","019cee5f-9f1f-7e58-80c1-9ba679249cc3","","null","
                <div class=""stimulus-container"">
                    <img src=""images/instructions/movie_4.png"" class=""exp-image"">
                    <div class=""question-area""></div> 
                </div>","null","","","","","","","",""
"","","","","","html-button-response","13","48359","0.0-13.0","7D0CC43EFF454085A097E314118598BA","019cee71-2062-7540-b397-0d16a1f97ba4","019cee5f-9f1f-7e58-80c1-9ba679249cc3","","964","
                <div class=""stimulus-container"">
                    <img src=""images/instructions/movie_4.png"" class=""exp-image"">
                    <div class=""question-area"">
                        <p style=""font-size: 20px; font-weight: bold; margin: 0;"">Was there a person in this image?</p>
                    </div>
                </div>","0","example_question","4","","","","","",""
"","","","","","instructions","14","50074","0.0-14.0","7D0CC43EFF454085A097E314118598BA","019cee71-2062-7540-b397-0d16a1f97ba4","019cee5f-9f1f-7e58-80c1-9ba679249cc3","[{""page_index"":0,""viewing_time"":1714}]","1714","","","","","","","","","",""
"","","","","","instructions","15","56214","0.0-15.0","7D0CC43EFF454085A097E314118598BA","019cee71-2062-7540-b397-0d16a1f97ba4","019cee5f-9f1f-7e58-80c1-9ba679249cc3","[{""page_index"":0,""viewing_time"":6140}]","6140","","","","","","","","","",""
"","","","","","html-keyboard-response","16","57229","0.0-16.0","7D0CC43EFF454085A097E314118598BA","019cee71-2062-7540-b397-0d16a1f97ba4","019cee5f-9f1f-7e58-80c1-9ba679249cc3","","null","<div style=""background-color: white; width: 100vw; height: 100vh;""></div>","null","","","","","","","",""
"","","","","","html-keyboard-response","17","62231","0.0-17.0","7D0CC43EFF454085A097E314118598BA","019cee71-2062-7540-b397-0d16a1f97ba4","019cee5f-9f1f-7e58-80c1-9ba679249cc3","","null","
                <div class=""stimulus-container"">
                    <img src=""images/schematic_sequence/dinner_party_scheme/dinner_party_scheme_1.png"" class=""exp-image"">
                    <div class=""question-area""></div> 
                </div>","null","","","","","","","",""
"","","","","","html-button-response","18","63364","0.0-18.0","7D0CC43EFF454085A097E314118598BA","019cee71-2062-7540-b397-0d16a1f97ba4","019cee5f-9f1f-7e58-80c1-9ba679249cc3","","1132","
                <div class=""stimulus-container"">
                    <img src=""images/schematic_sequence/dinner_party_scheme/dinner_party_scheme_1.png"" class=""exp-image"">
                    <div class=""question-area"">
                        <p style=""font-size: 20px; font-weight: bold; margin: 0;"">Is there a person in this image?</p>
                    </div>
                </div>","0","main_experiment_trial","1","dinner_party_scheme","schematic_sequence","","","",""
"","","","","","html-keyboard-response","19","68364","0.0-19.0","7D0CC43EFF454085A097E314118598BA","019cee71-2062-7540-b397-0d16a1f97ba4","019cee5f-9f1f-7e58-80c1-9ba679249cc3","","null","
                <div class=""stimulus-container"">
                    <img src=""images/schematic_sequence/dinner_party_scheme/dinner_party_scheme_2.png"" class=""exp-image"">
                    <div class=""question-area""></div> 
                </div>","null","","","","","","","",""
"","","","","","html-button-response","20","69308","0.0-20.0","7D0CC43EFF454085A097E314118598BA","019cee71-2062-7540-b397-0d16a1f97ba4","019cee5f-9f1f-7e58-80c1-9ba679249cc3","","943","
                <div class=""stimulus-container"">
                    <img src=""images/schematic_sequence/dinner_party_scheme/dinner_party_scheme_2.png"" class=""exp-image"">
                    <div class=""question-area"">
                        <p style=""font-size: 20px; font-weight: bold; margin: 0;"">Is there a person in this image?</p>
                    </div>
                </div>","0","main_experiment_trial","2","dinner_party_scheme","schematic_sequence","","","",""
"","","","","","html-keyboard-response","21","74315","0.0-21.0","7D0CC43EFF454085A097E314118598BA","019cee71-2062-7540-b397-0d16a1f97ba4","019cee5f-9f1f-7e58-80c1-9ba679249cc3","","null","
                <div class=""stimulus-container"">
                    <img src=""images/schematic_sequence/dinner_party_scheme/dinner_party_scheme_3.png"" class=""exp-image"">
                    <div class=""question-area""></div> 
                </div>","null","","","","","","","",""
"","","","","","html-button-response","22","75100","0.0-22.0","7D0CC43EFF454085A097E314118598BA","019cee71-2062-7540-b397-0d16a1f97ba4","019cee5f-9f1f-7e58-80c1-9ba679249cc3","","784","
                <div class=""stimulus-container"">
                    <img src=""images/schematic_sequence/dinner_party_scheme/dinner_party_scheme_3.png"" class=""exp-image"">
                    <div class=""question-area"">
                        <p style=""font-size: 20px; font-weight: bold; margin: 0;"">Is there a person in this image?</p>
                    </div>
                </div>","0","main_experiment_trial","3","dinner_party_scheme","schematic_sequence","","","",""
"","","","","","html-keyboard-response","23","80106","0.0-23.0","7D0CC43EFF454085A097E314118598BA","019cee71-2062-7540-b397-0d16a1f97ba4","019cee5f-9f1f-7e58-80c1-9ba679249cc3","","null","
                <div class=""stimulus-container"">
                    <img src=""images/schematic_sequence/dinner_party_scheme/dinner_party_scheme_4.png"" class=""exp-image"">
                    <div class=""question-area""></div> 
                </div>","null","","","","","","","",""
"","","","","","html-button-response","24","80985","0.0-24.0","7D0CC43EFF454085A097E314118598BA","019cee71-2062-7540-b397-0d16a1f97ba4","019cee5f-9f1f-7e58-80c1-9ba679249cc3","","878","
                <div class=""stimulus-container"">
                    <img src=""images/schematic_sequence/dinner_party_scheme/dinner_party_scheme_4.png"" class=""exp-image"">
                    <div class=""question-area"">
                        <p style=""font-size: 20px; font-weight: bold; margin: 0;"">Is there a person in this image?</p>
                    </div>
                </div>","0","main_experiment_trial","4","dinner_party_scheme","schematic_sequence","","","",""
"","","","","","html-keyboard-response","25","85989","0.0-25.0","7D0CC43EFF454085A097E314118598BA","019cee71-2062-7540-b397-0d16a1f97ba4","019cee5f-9f1f-7e58-80c1-9ba679249cc3","","null","
                <div class=""stimulus-container"">
                    <img src=""images/schematic_sequence/dinner_party_scheme/dinner_party_scheme_5.png"" class=""exp-image"">
                    <div class=""question-area""></div> 
                </div>","null","","","","","","","",""
"","","","","","html-button-response","26","86631","0.0-26.0","7D0CC43EFF454085A097E314118598BA","019cee71-2062-7540-b397-0d16a1f97ba4","019cee5f-9f1f-7e58-80c1-9ba679249cc3","","641","
                <div class=""stimulus-container"">
                    <img src=""images/schematic_sequence/dinner_party_scheme/dinner_party_scheme_5.png"" class=""exp-image"">
                    <div class=""question-area"">
                        <p style=""font-size: 20px; font-weight: bold; margin: 0;"">Is there a person in this image?</p>
                    </div>
                </div>","0","main_experiment_trial","5","dinner_party_scheme","schematic_sequence","","","",""
"","","","","","html-keyboard-response","27","91636","0.0-27.0","7D0CC43EFF454085A097E314118598BA","019cee71-2062-7540-b397-0d16a1f97ba4","019cee5f-9f1f-7e58-80c1-9ba679249cc3","","null","
                <div class=""stimulus-container"">
                    <img src=""images/schematic_sequence/dinner_party_scheme/dinner_party_scheme_6.png"" class=""exp-image"">
                    <div class=""question-area""></div> 
                </div>","null","","","","","","","",""
"","","","","","html-button-response","28","92184","0.0-28.0","7D0CC43EFF454085A097E314118598BA","019cee71-2062-7540-b397-0d16a1f97ba4","019cee5f-9f1f-7e58-80c1-9ba679249cc3","","547","
                <div class=""stimulus-container"">
                    <img src=""images/schematic_sequence/dinner_party_scheme/dinner_party_scheme_6.png"" class=""exp-image"">
                    <div class=""question-area"">
                        <p style=""font-size: 20px; font-weight: bold; margin: 0;"">Is there a person in this image?</p>
                    </div>
                </div>","0","main_experiment_trial","6","dinner_party_scheme","schematic_sequence","","","",""
"","","","","","html-keyboard-response","29","97197","0.0-29.0","7D0CC43EFF454085A097E314118598BA","019cee71-2062-7540-b397-0d16a1f97ba4","019cee5f-9f1f-7e58-80c1-9ba679249cc3","","null","
                <div class=""stimulus-container"">
                    <img src=""images/schematic_sequence/dinner_party_scheme/dinner_party_scheme_7.png"" class=""exp-image"">
                    <div class=""question-area""></div> 
                </div>","null","","","","","","","",""
"","","","","","html-button-response","30","97588","0.0-30.0","7D0CC43EFF454085A097E314118598BA","019cee71-2062-7540-b397-0d16a1f97ba4","019cee5f-9f1f-7e58-80c1-9ba679249cc3","","390","
                <div class=""stimulus-container"">
                    <img src=""images/schematic_sequence/dinner_party_scheme/dinner_party_scheme_7.png"" class=""exp-image"">
                    <div class=""question-area"">
                        <p style=""font-size: 20px; font-weight: bold; margin: 0;"">Is there a person in this image?</p>
                    </div>
                </div>","0","main_experiment_trial","7","dinner_party_scheme","schematic_sequence","","","",""
"","","","","","html-keyboard-response","31","102590","0.0-31.0","7D0CC43EFF454085A097E314118598BA","019cee71-2062-7540-b397-0d16a1f97ba4","019cee5f-9f1f-7e58-80c1-9ba679249cc3","","null","
                <div class=""stimulus-container"">
                    <img src=""images/schematic_sequence/dinner_party_scheme/dinner_party_scheme_8.png"" class=""exp-image"">
                    <div class=""question-area""></div> 
                </div>","null","","","","","","","",""
"","","","","","html-button-response","32","103198","0.0-32.0","7D0CC43EFF454085A097E314118598BA","019cee71-2062-7540-b397-0d16a1f97ba4","019cee5f-9f1f-7e58-80c1-9ba679249cc3","","608","
                <div class=""stimulus-container"">
                    <img src=""images/schematic_sequence/dinner_party_scheme/dinner_party_scheme_8.png"" class=""exp-image"">
                    <div class=""question-area"">
                        <p style=""font-size: 20px; font-weight: bold; margin: 0;"">Is there a person in this image?</p>
                    </div>
                </div>","0","main_experiment_trial","8","dinner_party_scheme","schematic_sequence","","","",""
"","","","","","html-keyboard-response","33","108215","0.0-33.0","7D0CC43EFF454085A097E314118598BA","019cee71-2062-7540-b397-0d16a1f97ba4","019cee5f-9f1f-7e58-80c1-9ba679249cc3","","null","
                <div class=""stimulus-container"">
                    <img src=""images/schematic_sequence/dinner_party_scheme/dinner_party_scheme_9.png"" class=""exp-image"">
                    <div class=""question-area""></div> 
                </div>","null","","","","","","","",""
"","","","","","html-button-response","34","108976","0.0-34.0","7D0CC43EFF454085A097E314118598BA","019cee71-2062-7540-b397-0d16a1f97ba4","019cee5f-9f1f-7e58-80c1-9ba679249cc3","","761","
                <div class=""stimulus-container"">
                    <img src=""images/schematic_sequence/dinner_party_scheme/dinner_party_scheme_9.png"" class=""exp-image"">
                    <div class=""question-area"">
                        <p style=""font-size: 20px; font-weight: bold; margin: 0;"">Is there a person in this image?</p>
                    </div>
                </div>","0","main_experiment_trial","9","dinner_party_scheme","schematic_sequence","","","",""
"","","","","","html-keyboard-response","35","113991","0.0-35.0","7D0CC43EFF454085A097E314118598BA","019cee71-2062-7540-b397-0d16a1f97ba4","019cee5f-9f1f-7e58-80c1-9ba679249cc3","","null","
                <div class=""stimulus-container"">
                    <img src=""images/schematic_sequence/dinner_party_scheme/dinner_party_scheme_ten.png"" class=""exp-image"">
                    <div class=""question-area""></div> 
                </div>","null","","","","","","","",""
"","","","","","html-button-response","36","114444","0.0-36.0","7D0CC43EFF454085A097E314118598BA","019cee71-2062-7540-b397-0d16a1f97ba4","019cee5f-9f1f-7e58-80c1-9ba679249cc3","","452","
                <div class=""stimulus-container"">
                    <img src=""images/schematic_sequence/dinner_party_scheme/dinner_party_scheme_ten.png"" class=""exp-image"">
                    <div class=""question-area"">
                        <p style=""font-size: 20px; font-weight: bold; margin: 0;"">Is there a person in this image?</p>
                    </div>
                </div>","0","main_experiment_trial","ten","dinner_party_scheme","schematic_sequence","","","",""
"","","","","","html-keyboard-response","37","115459","0.0-37.0","7D0CC43EFF454085A097E314118598BA","019cee71-2062-7540-b397-0d16a1f97ba4","019cee5f-9f1f-7e58-80c1-9ba679249cc3","","null","<div style=""background-color: white; width: 100vw; height: 100vh;""></div>","null","","","","","","","",""
"","","","","","html-keyboard-response","38","120465","0.0-38.0","7D0CC43EFF454085A097E314118598BA","019cee71-2062-7540-b397-0d16a1f97ba4","019cee5f-9f1f-7e58-80c1-9ba679249cc3","","null","
                <div class=""stimulus-container"">
                    <img src=""images/schematic_sequence/hotel_scheme/hotel_scheme_1.png"" class=""exp-image"">
                    <div class=""question-area""></div> 
                </div>","null","","","","","","","",""
"","","","","","html-button-response","39","121523","0.0-39.0","7D0CC43EFF454085A097E314118598BA","019cee71-2062-7540-b397-0d16a1f97ba4","019cee5f-9f1f-7e58-80c1-9ba679249cc3","","1058","
                <div class=""stimulus-container"">
                    <img src=""images/schematic_sequence/hotel_scheme/hotel_scheme_1.png"" class=""exp-image"">
                    <div class=""question-area"">
                        <p style=""font-size: 20px; font-weight: bold; margin: 0;"">Is there a person in this image?</p>
                    </div>
                </div>","1","main_experiment_trial","1","hotel_scheme","schematic_sequence","","","",""
"","","","","","html-keyboard-response","40","126525","0.0-40.0","7D0CC43EFF454085A097E314118598BA","019cee71-2062-7540-b397-0d16a1f97ba4","019cee5f-9f1f-7e58-80c1-9ba679249cc3","","null","
                <div class=""stimulus-container"">
                    <img src=""images/schematic_sequence/hotel_scheme/hotel_scheme_2.png"" class=""exp-image"">
                    <div class=""question-area""></div> 
                </div>","null","","","","","","","",""
"","","","","","html-button-response","41","127345","0.0-41.0","7D0CC43EFF454085A097E314118598BA","019cee71-2062-7540-b397-0d16a1f97ba4","019cee5f-9f1f-7e58-80c1-9ba679249cc3","","820","
                <div class=""stimulus-container"">
                    <img src=""images/schematic_sequence/hotel_scheme/hotel_scheme_2.png"" class=""exp-image"">
                    <div class=""question-area"">
                        <p style=""font-size: 20px; font-weight: bold; margin: 0;"">Is there a person in this image?</p>
                    </div>
                </div>","0","main_experiment_trial","2","hotel_scheme","schematic_sequence","","","",""
"","","","","","html-keyboard-response","42","132357","0.0-42.0","7D0CC43EFF454085A097E314118598BA","019cee71-2062-7540-b397-0d16a1f97ba4","019cee5f-9f1f-7e58-80c1-9ba679249cc3","","null","
                <div class=""stimulus-container"">
                    <img src=""images/schematic_sequence/hotel_scheme/hotel_scheme_3.png"" class=""exp-image"">
                    <div class=""question-area""></div> 
                </div>","null","","","","","","","",""
"","","","","","html-button-response","43","132963","0.0-43.0","7D0CC43EFF454085A097E314118598BA","019cee71-2062-7540-b397-0d16a1f97ba4","019cee5f-9f1f-7e58-80c1-9ba679249cc3","","606","
                <div class=""stimulus-container"">
                    <img src=""images/schematic_sequence/hotel_scheme/hotel_scheme_3.png"" class=""exp-image"">
                    <div class=""question-area"">
                        <p style=""font-size: 20px; font-weight: bold; margin: 0;"">Is there a person in this image?</p>
                    </div>
                </div>","0","main_experiment_trial","3","hotel_scheme","schematic_sequence","","","",""
"","","","","","html-keyboard-response","44","137976","0.0-44.0","7D0CC43EFF454085A097E314118598BA","019cee71-2062-7540-b397-0d16a1f97ba4","019cee5f-9f1f-7e58-80c1-9ba679249cc3","","null","
                <div class=""stimulus-container"">
                    <img src=""images/schematic_sequence/hotel_scheme/hotel_scheme_4.png"" class=""exp-image"">
                    <div class=""question-area""></div> 
                </div>","null","","","","","","","",""
"","","","","","html-button-response","45","139902","0.0-45.0","7D0CC43EFF454085A097E314118598BA","019cee71-2062-7540-b397-0d16a1f97ba4","019cee5f-9f1f-7e58-80c1-9ba679249cc3","","1926","
                <div class=""stimulus-container"">
                    <img src=""images/schematic_sequence/hotel_scheme/hotel_scheme_4.png"" class=""exp-image"">
                    <div class=""question-area"">
                        <p style=""font-size: 20px; font-weight: bold; margin: 0;"">Is there a person in this image?</p>
                    </div>
                </div>","1","main_experiment_trial","4","hotel_scheme","schematic_sequence","","","",""
"","","","","","html-keyboard-response","46","144907","0.0-46.0","7D0CC43EFF454085A097E314118598BA","019cee71-2062-7540-b397-0d16a1f97ba4","019cee5f-9f1f-7e58-80c1-9ba679249cc3","","null","
                <div class=""stimulus-container"">
                    <img src=""images/schematic_sequence/hotel_scheme/hotel_scheme_5.png"" class=""exp-image"">
                    <div class=""question-area""></div> 
                </div>","null","","","","","","","",""
"","","","","","html-button-response","47","145643","0.0-47.0","7D0CC43EFF454085A097E314118598BA","019cee71-2062-7540-b397-0d16a1f97ba4","019cee5f-9f1f-7e58-80c1-9ba679249cc3","","736","
                <div class=""stimulus-container"">
                    <img src=""images/schematic_sequence/hotel_scheme/hotel_scheme_5.png"" class=""exp-image"">
                    <div class=""question-area"">
                        <p style=""font-size: 20px; font-weight: bold; margin: 0;"">Is there a person in this image?</p>
                    </div>
                </div>","0","main_experiment_trial","5","hotel_scheme","schematic_sequence","","","",""
"","","","","","html-keyboard-response","48","150652","0.0-48.0","7D0CC43EFF454085A097E314118598BA","019cee71-2062-7540-b397-0d16a1f97ba4","019cee5f-9f1f-7e58-80c1-9ba679249cc3","","null","
                <div class=""stimulus-container"">
                    <img src=""images/schematic_sequence/hotel_scheme/hotel_scheme_6.png"" class=""exp-image"">
                    <div class=""question-area""></div> 
                </div>","null","","","","","","","",""
"","","","","","html-button-response","49","151236","0.0-49.0","7D0CC43EFF454085A097E314118598BA","019cee71-2062-7540-b397-0d16a1f97ba4","019cee5f-9f1f-7e58-80c1-9ba679249cc3","","584","
                <div class=""stimulus-container"">
                    <img src=""images/schematic_sequence/hotel_scheme/hotel_scheme_6.png"" class=""exp-image"">
                    <div class=""question-area"">
                        <p style=""font-size: 20px; font-weight: bold; margin: 0;"">Is there a person in this image?</p>
                    </div>
                </div>","0","main_experiment_trial","6","hotel_scheme","schematic_sequence","","","",""
"","","","","","html-keyboard-response","50","156237","0.0-50.0","7D0CC43EFF454085A097E314118598BA","019cee71-2062-7540-b397-0d16a1f97ba4","019cee5f-9f1f-7e58-80c1-9ba679249cc3","","null","
                <div class=""stimulus-container"">
                    <img src=""images/schematic_sequence/hotel_scheme/hotel_scheme_7.png"" class=""exp-image"">
                    <div class=""question-area""></div> 
                </div>","null","","","","","","","",""
"","","","","","html-button-response","51","157580","0.0-51.0","7D0CC43EFF454085A097E314118598BA","019cee71-2062-7540-b397-0d16a1f97ba4","019cee5f-9f1f-7e58-80c1-9ba679249cc3","","1343","
                <div class=""stimulus-container"">
                    <img src=""images/schematic_sequence/hotel_scheme/hotel_scheme_7.png"" class=""exp-image"">
                    <div class=""question-area"">
                        <p style=""font-size: 20px; font-weight: bold; margin: 0;"">Is there a person in this image?</p>
                    </div>
                </div>","0","main_experiment_trial","7","hotel_scheme","schematic_sequence","","","",""
"","","","","","html-keyboard-response","52","162587","0.0-52.0","7D0CC43EFF454085A097E314118598BA","019cee71-2062-7540-b397-0d16a1f97ba4","019cee5f-9f1f-7e58-80c1-9ba679249cc3","","null","
                <div class=""stimulus-container"">
                    <img src=""images/schematic_sequence/hotel_scheme/hotel_scheme_8.png"" class=""exp-image"">
                    <div class=""question-area""></div> 
                </div>","null","","","","","","","",""
"","","","","","html-button-response","53","163351","0.0-53.0","7D0CC43EFF454085A097E314118598BA","019cee71-2062-7540-b397-0d16a1f97ba4","019cee5f-9f1f-7e58-80c1-9ba679249cc3","","763","
                <div class=""stimulus-container"">
                    <img src=""images/schematic_sequence/hotel_scheme/hotel_scheme_8.png"" class=""exp-image"">
                    <div class=""question-area"">
                        <p style=""font-size: 20px; font-weight: bold; margin: 0;"">Is there a person in this image?</p>
                    </div>
                </div>","0","main_experiment_trial","8","hotel_scheme","schematic_sequence","","","",""
"","","","","","html-keyboard-response","54","168364","0.0-54.0","7D0CC43EFF454085A097E314118598BA","019cee71-2062-7540-b397-0d16a1f97ba4","019cee5f-9f1f-7e58-80c1-9ba679249cc3","","null","
                <div class=""stimulus-container"">
                    <img src=""images/schematic_sequence/hotel_scheme/hotel_scheme_9.png"" class=""exp-image"">
                    <div class=""question-area""></div> 
                </div>","null","","","","","","","",""
"","","","","","html-button-response","55","168768","0.0-55.0","7D0CC43EFF454085A097E314118598BA","019cee71-2062-7540-b397-0d16a1f97ba4","019cee5f-9f1f-7e58-80c1-9ba679249cc3","","404","
                <div class=""stimulus-container"">
                    <img src=""images/schematic_sequence/hotel_scheme/hotel_scheme_9.png"" class=""exp-image"">
                    <div class=""question-area"">
                        <p style=""font-size: 20px; font-weight: bold; margin: 0;"">Is there a person in this image?</p>
                    </div>
                </div>","0","main_experiment_trial","9","hotel_scheme","schematic_sequence","","","",""
"","","","","","html-keyboard-response","56","173780","0.0-56.0","7D0CC43EFF454085A097E314118598BA","019cee71-2062-7540-b397-0d16a1f97ba4","019cee5f-9f1f-7e58-80c1-9ba679249cc3","","null","
                <div class=""stimulus-container"">
                    <img src=""images/schematic_sequence/hotel_scheme/hotel_scheme_ten.png"" class=""exp-image"">
                    <div class=""question-area""></div> 
                </div>","null","","","","","","","",""
"","","","","","html-button-response","57","174224","0.0-57.0","7D0CC43EFF454085A097E314118598BA","019cee71-2062-7540-b397-0d16a1f97ba4","019cee5f-9f1f-7e58-80c1-9ba679249cc3","","444","
                <div class=""stimulus-container"">
                    <img src=""images/schematic_sequence/hotel_scheme/hotel_scheme_ten.png"" class=""exp-image"">
                    <div class=""question-area"">
                        <p style=""font-size: 20px; font-weight: bold; margin: 0;"">Is there a person in this image?</p>
                    </div>
                </div>","0","main_experiment_trial","ten","hotel_scheme","schematic_sequence","","","",""
"","","","","","html-keyboard-response","58","175232","0.0-58.0","7D0CC43EFF454085A097E314118598BA","019cee71-2062-7540-b397-0d16a1f97ba4","019cee5f-9f1f-7e58-80c1-9ba679249cc3","","null","<div style=""background-color: white; width: 100vw; height: 100vh;""></div>","null","","","","","","","",""
"","","","","","html-keyboard-response","59","180238","0.0-59.0","7D0CC43EFF454085A097E314118598BA","019cee71-2062-7540-b397-0d16a1f97ba4","019cee5f-9f1f-7e58-80c1-9ba679249cc3","","null","
                <div class=""stimulus-container"">
                    <img src=""images/causal_sequence/dog_causal/dog_causal_1.png"" class=""exp-image"">
                    <div class=""question-area""></div> 
                </div>","null","","","","","","","",""
"","","","","","html-button-response","60","180961","0.0-60.0","7D0CC43EFF454085A097E314118598BA","019cee71-2062-7540-b397-0d16a1f97ba4","019cee5f-9f1f-7e58-80c1-9ba679249cc3","","723","
                <div class=""stimulus-container"">
                    <img src=""images/causal_sequence/dog_causal/dog_causal_1.png"" class=""exp-image"">
                    <div class=""question-area"">
                        <p style=""font-size: 20px; font-weight: bold; margin: 0;"">Is there a person in this image?</p>
                    </div>
                </div>","0","main_experiment_trial","1","dog_causal","causal_sequence","","","",""
"","","","","","html-keyboard-response","61","185962","0.0-61.0","7D0CC43EFF454085A097E314118598BA","019cee71-2062-7540-b397-0d16a1f97ba4","019cee5f-9f1f-7e58-80c1-9ba679249cc3","","null","
                <div class=""stimulus-container"">
                    <img src=""images/causal_sequence/dog_causal/dog_causal_2.png"" class=""exp-image"">
                    <div class=""question-area""></div> 
                </div>","null","","","","","","","",""
"","","","","","html-button-response","62","186728","0.0-62.0","7D0CC43EFF454085A097E314118598BA","019cee71-2062-7540-b397-0d16a1f97ba4","019cee5f-9f1f-7e58-80c1-9ba679249cc3","","765","
                <div class=""stimulus-container"">
                    <img src=""images/causal_sequence/dog_causal/dog_causal_2.png"" class=""exp-image"">
                    <div class=""question-area"">
                        <p style=""font-size: 20px; font-weight: bold; margin: 0;"">Is there a person in this image?</p>
                    </div>
                </div>","0","main_experiment_trial","2","dog_causal","causal_sequence","","","",""
"","","","","","html-keyboard-response","63","191733","0.0-63.0","7D0CC43EFF454085A097E314118598BA","019cee71-2062-7540-b397-0d16a1f97ba4","019cee5f-9f1f-7e58-80c1-9ba679249cc3","","null","
                <div class=""stimulus-container"">
                    <img src=""images/causal_sequence/dog_causal/dog_causal_3.png"" class=""exp-image"">
                    <div class=""question-area""></div> 
                </div>","null","","","","","","","",""
"","","","","","html-button-response","64","192408","0.0-64.0","7D0CC43EFF454085A097E314118598BA","019cee71-2062-7540-b397-0d16a1f97ba4","019cee5f-9f1f-7e58-80c1-9ba679249cc3","","675","
                <div class=""stimulus-container"">
                    <img src=""images/causal_sequence/dog_causal/dog_causal_3.png"" class=""exp-image"">
                    <div class=""question-area"">
                        <p style=""font-size: 20px; font-weight: bold; margin: 0;"">Is there a person in this image?</p>
                    </div>
                </div>","0","main_experiment_trial","3","dog_causal","causal_sequence","","","",""
"","","","","","html-keyboard-response","65","197413","0.0-65.0","7D0CC43EFF454085A097E314118598BA","019cee71-2062-7540-b397-0d16a1f97ba4","019cee5f-9f1f-7e58-80c1-9ba679249cc3","","null","
                <div class=""stimulus-container"">
                    <img src=""images/causal_sequence/dog_causal/dog_causal_4.png"" class=""exp-image"">
                    <div class=""question-area""></div> 
                </div>","null","","","","","","","",""
"","","","","","html-button-response","66","198337","0.0-66.0","7D0CC43EFF454085A097E314118598BA","019cee71-2062-7540-b397-0d16a1f97ba4","019cee5f-9f1f-7e58-80c1-9ba679249cc3","","923","
                <div class=""stimulus-container"">
                    <img src=""images/causal_sequence/dog_causal/dog_causal_4.png"" class=""exp-image"">
                    <div class=""question-area"">
                        <p style=""font-size: 20px; font-weight: bold; margin: 0;"">Is there a person in this image?</p>
                    </div>
                </div>","0","main_experiment_trial","4","dog_causal","causal_sequence","","","",""
"","","","","","html-keyboard-response","67","203338","0.0-67.0","7D0CC43EFF454085A097E314118598BA","019cee71-2062-7540-b397-0d16a1f97ba4","019cee5f-9f1f-7e58-80c1-9ba679249cc3","","null","
                <div class=""stimulus-container"">
                    <img src=""images/causal_sequence/dog_causal/dog_causal_5.png"" class=""exp-image"">
                    <div class=""question-area""></div> 
                </div>","null","","","","","","","",""
"","","","","","html-button-response","68","204343","0.0-68.0","7D0CC43EFF454085A097E314118598BA","019cee71-2062-7540-b397-0d16a1f97ba4","019cee5f-9f1f-7e58-80c1-9ba679249cc3","","1005","
                <div class=""stimulus-container"">
                    <img src=""images/causal_sequence/dog_causal/dog_causal_5.png"" class=""exp-image"">
                    <div class=""question-area"">
                        <p style=""font-size: 20px; font-weight: bold; margin: 0;"">Is there a person in this image?</p>
                    </div>
                </div>","0","main_experiment_trial","5","dog_causal","causal_sequence","","","",""
"","","","","","html-keyboard-response","69","209347","0.0-69.0","7D0CC43EFF454085A097E314118598BA","019cee71-2062-7540-b397-0d16a1f97ba4","019cee5f-9f1f-7e58-80c1-9ba679249cc3","","null","
                <div class=""stimulus-container"">
                    <img src=""images/causal_sequence/dog_causal/dog_causal_6.png"" class=""exp-image"">
                    <div class=""question-area""></div> 
                </div>","null","","","","","","","",""
"","","","","","html-button-response","70","209820","0.0-70.0","7D0CC43EFF454085A097E314118598BA","019cee71-2062-7540-b397-0d16a1f97ba4","019cee5f-9f1f-7e58-80c1-9ba679249cc3","","473","
                <div class=""stimulus-container"">
                    <img src=""images/causal_sequence/dog_causal/dog_causal_6.png"" class=""exp-image"">
                    <div class=""question-area"">
                        <p style=""font-size: 20px; font-weight: bold; margin: 0;"">Is there a person in this image?</p>
                    </div>
                </div>","0","main_experiment_trial","6","dog_causal","causal_sequence","","","",""
"","","","","","html-keyboard-response","71","214834","0.0-71.0","7D0CC43EFF454085A097E314118598BA","019cee71-2062-7540-b397-0d16a1f97ba4","019cee5f-9f1f-7e58-80c1-9ba679249cc3","","null","
                <div class=""stimulus-container"">
                    <img src=""images/causal_sequence/dog_causal/dog_causal_7.png"" class=""exp-image"">
                    <div class=""question-area""></div> 
                </div>","null","","","","","","","",""
"","","","","","html-button-response","72","215245","0.0-72.0","7D0CC43EFF454085A097E314118598BA","019cee71-2062-7540-b397-0d16a1f97ba4","019cee5f-9f1f-7e58-80c1-9ba679249cc3","","410","
                <div class=""stimulus-container"">
                    <img src=""images/causal_sequence/dog_causal/dog_causal_7.png"" class=""exp-image"">
                    <div class=""question-area"">
                        <p style=""font-size: 20px; font-weight: bold; margin: 0;"">Is there a person in this image?</p>
                    </div>
                </div>","0","main_experiment_trial","7","dog_causal","causal_sequence","","","",""
"","","","","","html-keyboard-response","73","220258","0.0-73.0","7D0CC43EFF454085A097E314118598BA","019cee71-2062-7540-b397-0d16a1f97ba4","019cee5f-9f1f-7e58-80c1-9ba679249cc3","","null","
                <div class=""stimulus-container"">
                    <img src=""images/causal_sequence/dog_causal/dog_causal_8.png"" class=""exp-image"">
                    <div class=""question-area""></div> 
                </div>","null","","","","","","","",""
"","","","","","html-button-response","74","221390","0.0-74.0","7D0CC43EFF454085A097E314118598BA","019cee71-2062-7540-b397-0d16a1f97ba4","019cee5f-9f1f-7e58-80c1-9ba679249cc3","","1132","
                <div class=""stimulus-container"">
                    <img src=""images/causal_sequence/dog_causal/dog_causal_8.png"" class=""exp-image"">
                    <div class=""question-area"">
                        <p style=""font-size: 20px; font-weight: bold; margin: 0;"">Is there a person in this image?</p>
                    </div>
                </div>","0","main_experiment_trial","8","dog_causal","causal_sequence","","","",""
"","","","","","html-keyboard-response","75","226401","0.0-75.0","7D0CC43EFF454085A097E314118598BA","019cee71-2062-7540-b397-0d16a1f97ba4","019cee5f-9f1f-7e58-80c1-9ba679249cc3","","null","
                <div class=""stimulus-container"">
                    <img src=""images/causal_sequence/dog_causal/dog_causal_9.png"" class=""exp-image"">
                    <div class=""question-area""></div> 
                </div>","null","","","","","","","",""
"","","","","","html-button-response","76","227071","0.0-76.0","7D0CC43EFF454085A097E314118598BA","019cee71-2062-7540-b397-0d16a1f97ba4","019cee5f-9f1f-7e58-80c1-9ba679249cc3","","669","
                <div class=""stimulus-container"">
                    <img src=""images/causal_sequence/dog_causal/dog_causal_9.png"" class=""exp-image"">
                    <div class=""question-area"">
                        <p style=""font-size: 20px; font-weight: bold; margin: 0;"">Is there a person in this image?</p>
                    </div>
                </div>","0","main_experiment_trial","9","dog_causal","causal_sequence","","","",""
"","","","","","html-keyboard-response","77","232078","0.0-77.0","7D0CC43EFF454085A097E314118598BA","019cee71-2062-7540-b397-0d16a1f97ba4","019cee5f-9f1f-7e58-80c1-9ba679249cc3","","null","
                <div class=""stimulus-container"">
                    <img src=""images/causal_sequence/dog_causal/dog_causal_ten.png"" class=""exp-image"">
                    <div class=""question-area""></div> 
                </div>","null","","","","","","","",""
"","","","","","html-button-response","78","232664","0.0-78.0","7D0CC43EFF454085A097E314118598BA","019cee71-2062-7540-b397-0d16a1f97ba4","019cee5f-9f1f-7e58-80c1-9ba679249cc3","","586","
                <div class=""stimulus-container"">
                    <img src=""images/causal_sequence/dog_causal/dog_causal_ten.png"" class=""exp-image"">
                    <div class=""question-area"">
                        <p style=""font-size: 20px; font-weight: bold; margin: 0;"">Is there a person in this image?</p>
                    </div>
                </div>","0","main_experiment_trial","ten","dog_causal","causal_sequence","","","",""
"","","","","","html-keyboard-response","79","233676","0.0-79.0","7D0CC43EFF454085A097E314118598BA","019cee71-2062-7540-b397-0d16a1f97ba4","019cee5f-9f1f-7e58-80c1-9ba679249cc3","","null","<div style=""background-color: white; width: 100vw; height: 100vh;""></div>","null","","","","","","","",""
"","","","","","html-keyboard-response","80","238688","0.0-80.0","7D0CC43EFF454085A097E314118598BA","019cee71-2062-7540-b397-0d16a1f97ba4","019cee5f-9f1f-7e58-80c1-9ba679249cc3","","null","
                <div class=""stimulus-container"">
                    <img src=""images/causal_sequence/museum_causal/museum_causal_1.png"" class=""exp-image"">
                    <div class=""question-area""></div> 
                </div>","null","","","","","","","",""
"","","","","","html-button-response","81","239636","0.0-81.0","7D0CC43EFF454085A097E314118598BA","019cee71-2062-7540-b397-0d16a1f97ba4","019cee5f-9f1f-7e58-80c1-9ba679249cc3","","947","
                <div class=""stimulus-container"">
                    <img src=""images/causal_sequence/museum_causal/museum_causal_1.png"" class=""exp-image"">
                    <div class=""question-area"">
                        <p style=""font-size: 20px; font-weight: bold; margin: 0;"">Is there a person in this image?</p>
                    </div>
                </div>","0","main_experiment_trial","1","museum_causal","causal_sequence","","","",""
"","","","","","html-keyboard-response","82","244652","0.0-82.0","7D0CC43EFF454085A097E314118598BA","019cee71-2062-7540-b397-0d16a1f97ba4","019cee5f-9f1f-7e58-80c1-9ba679249cc3","","null","
                <div class=""stimulus-container"">
                    <img src=""images/causal_sequence/museum_causal/museum_causal_2.png"" class=""exp-image"">
                    <div class=""question-area""></div> 
                </div>","null","","","","","","","",""
"","","","","","html-button-response","83","246432","0.0-83.0","7D0CC43EFF454085A097E314118598BA","019cee71-2062-7540-b397-0d16a1f97ba4","019cee5f-9f1f-7e58-80c1-9ba679249cc3","","1780","
                <div class=""stimulus-container"">
                    <img src=""images/causal_sequence/museum_causal/museum_causal_2.png"" class=""exp-image"">
                    <div class=""question-area"">
                        <p style=""font-size: 20px; font-weight: bold; margin: 0;"">Is there a person in this image?</p>
                    </div>
                </div>","1","main_experiment_trial","2","museum_causal","causal_sequence","","","",""
"","","","","","html-keyboard-response","84","251447","0.0-84.0","7D0CC43EFF454085A097E314118598BA","019cee71-2062-7540-b397-0d16a1f97ba4","019cee5f-9f1f-7e58-80c1-9ba679249cc3","","null","
                <div class=""stimulus-container"">
                    <img src=""images/causal_sequence/museum_causal/museum_causal_3.png"" class=""exp-image"">
                    <div class=""question-area""></div> 
                </div>","null","","","","","","","",""
"","","","","","html-button-response","85","252376","0.0-85.0","7D0CC43EFF454085A097E314118598BA","019cee71-2062-7540-b397-0d16a1f97ba4","019cee5f-9f1f-7e58-80c1-9ba679249cc3","","929","
                <div class=""stimulus-container"">
                    <img src=""images/causal_sequence/museum_causal/museum_causal_3.png"" class=""exp-image"">
                    <div class=""question-area"">
                        <p style=""font-size: 20px; font-weight: bold; margin: 0;"">Is there a person in this image?</p>
                    </div>
                </div>","0","main_experiment_trial","3","museum_causal","causal_sequence","","","",""
"","","","","","html-keyboard-response","86","257392","0.0-86.0","7D0CC43EFF454085A097E314118598BA","019cee71-2062-7540-b397-0d16a1f97ba4","019cee5f-9f1f-7e58-80c1-9ba679249cc3","","null","
                <div class=""stimulus-container"">
                    <img src=""images/causal_sequence/museum_causal/museum_causal_4.png"" class=""exp-image"">
                    <div class=""question-area""></div> 
                </div>","null","","","","","","","",""
"","","","","","html-button-response","87","258108","0.0-87.0","7D0CC43EFF454085A097E314118598BA","019cee71-2062-7540-b397-0d16a1f97ba4","019cee5f-9f1f-7e58-80c1-9ba679249cc3","","716","
                <div class=""stimulus-container"">
                    <img src=""images/causal_sequence/museum_causal/museum_causal_4.png"" class=""exp-image"">
                    <div class=""question-area"">
                        <p style=""font-size: 20px; font-weight: bold; margin: 0;"">Is there a person in this image?</p>
                    </div>
                </div>","1","main_experiment_trial","4","museum_causal","causal_sequence","","","",""
"","","","","","html-keyboard-response","88","263114","0.0-88.0","7D0CC43EFF454085A097E314118598BA","019cee71-2062-7540-b397-0d16a1f97ba4","019cee5f-9f1f-7e58-80c1-9ba679249cc3","","null","
                <div class=""stimulus-container"">
                    <img src=""images/causal_sequence/museum_causal/museum_causal_5.png"" class=""exp-image"">
                    <div class=""question-area""></div> 
                </div>","null","","","","","","","",""
"","","","","","html-button-response","89","263712","0.0-89.0","7D0CC43EFF454085A097E314118598BA","019cee71-2062-7540-b397-0d16a1f97ba4","019cee5f-9f1f-7e58-80c1-9ba679249cc3","","597","
                <div class=""stimulus-container"">
                    <img src=""images/causal_sequence/museum_causal/museum_causal_5.png"" class=""exp-image"">
                    <div class=""question-area"">
                        <p style=""font-size: 20px; font-weight: bold; margin: 0;"">Is there a person in this image?</p>
                    </div>
                </div>","0","main_experiment_trial","5","museum_causal","causal_sequence","","","",""
"","","","","","html-keyboard-response","90","268719","0.0-90.0","7D0CC43EFF454085A097E314118598BA","019cee71-2062-7540-b397-0d16a1f97ba4","019cee5f-9f1f-7e58-80c1-9ba679249cc3","","null","
                <div class=""stimulus-container"">
                    <img src=""images/causal_sequence/museum_causal/museum_causal_6.png"" class=""exp-image"">
                    <div class=""question-area""></div> 
                </div>","null","","","","","","","",""
"","","","","","html-button-response","91","269559","0.0-91.0","7D0CC43EFF454085A097E314118598BA","019cee71-2062-7540-b397-0d16a1f97ba4","019cee5f-9f1f-7e58-80c1-9ba679249cc3","","839","
                <div class=""stimulus-container"">
                    <img src=""images/causal_sequence/museum_causal/museum_causal_6.png"" class=""exp-image"">
                    <div class=""question-area"">
                        <p style=""font-size: 20px; font-weight: bold; margin: 0;"">Is there a person in this image?</p>
                    </div>
                </div>","0","main_experiment_trial","6","museum_causal","causal_sequence","","","",""
"","","","","","html-keyboard-response","92","274572","0.0-92.0","7D0CC43EFF454085A097E314118598BA","019cee71-2062-7540-b397-0d16a1f97ba4","019cee5f-9f1f-7e58-80c1-9ba679249cc3","","null","
                <div class=""stimulus-container"">
                    <img src=""images/causal_sequence/museum_causal/museum_causal_7.png"" class=""exp-image"">
                    <div class=""question-area""></div> 
                </div>","null","","","","","","","",""
"","","","","","html-button-response","93","275118","0.0-93.0","7D0CC43EFF454085A097E314118598BA","019cee71-2062-7540-b397-0d16a1f97ba4","019cee5f-9f1f-7e58-80c1-9ba679249cc3","","545","
                <div class=""stimulus-container"">
                    <img src=""images/causal_sequence/museum_causal/museum_causal_7.png"" class=""exp-image"">
                    <div class=""question-area"">
                        <p style=""font-size: 20px; font-weight: bold; margin: 0;"">Is there a person in this image?</p>
                    </div>
                </div>","1","main_experiment_trial","7","museum_causal","causal_sequence","","","",""
"","","","","","html-keyboard-response","94","280130","0.0-94.0","7D0CC43EFF454085A097E314118598BA","019cee71-2062-7540-b397-0d16a1f97ba4","019cee5f-9f1f-7e58-80c1-9ba679249cc3","","null","
                <div class=""stimulus-container"">
                    <img src=""images/causal_sequence/museum_causal/museum_causal_8.png"" class=""exp-image"">
                    <div class=""question-area""></div> 
                </div>","null","","","","","","","",""
"","","","","","html-button-response","95","280713","0.0-95.0","7D0CC43EFF454085A097E314118598BA","019cee71-2062-7540-b397-0d16a1f97ba4","019cee5f-9f1f-7e58-80c1-9ba679249cc3","","582","
                <div class=""stimulus-container"">
                    <img src=""images/causal_sequence/museum_causal/museum_causal_8.png"" class=""exp-image"">
                    <div class=""question-area"">
                        <p style=""font-size: 20px; font-weight: bold; margin: 0;"">Is there a person in this image?</p>
                    </div>
                </div>","0","main_experiment_trial","8","museum_causal","causal_sequence","","","",""
"","","","","","html-keyboard-response","96","285714","0.0-96.0","7D0CC43EFF454085A097E314118598BA","019cee71-2062-7540-b397-0d16a1f97ba4","019cee5f-9f1f-7e58-80c1-9ba679249cc3","","null","
                <div class=""stimulus-container"">
                    <img src=""images/causal_sequence/museum_causal/museum_causal_9.png"" class=""exp-image"">
                    <div class=""question-area""></div> 
                </div>","null","","","","","","","",""
"","","","","","html-button-response","97","286178","0.0-97.0","7D0CC43EFF454085A097E314118598BA","019cee71-2062-7540-b397-0d16a1f97ba4","019cee5f-9f1f-7e58-80c1-9ba679249cc3","","464","
                <div class=""stimulus-container"">
                    <img src=""images/causal_sequence/museum_causal/museum_causal_9.png"" class=""exp-image"">
                    <div class=""question-area"">
                        <p style=""font-size: 20px; font-weight: bold; margin: 0;"">Is there a person in this image?</p>
                    </div>
                </div>","1","main_experiment_trial","9","museum_causal","causal_sequence","","","",""
"","","","","","html-keyboard-response","98","291184","0.0-98.0","7D0CC43EFF454085A097E314118598BA","019cee71-2062-7540-b397-0d16a1f97ba4","019cee5f-9f1f-7e58-80c1-9ba679249cc3","","null","
                <div class=""stimulus-container"">
                    <img src=""images/causal_sequence/museum_causal/museum_causal_ten.png"" class=""exp-image"">
                    <div class=""question-area""></div> 
                </div>","null","","","","","","","",""
"","","","","","html-button-response","99","291968","0.0-99.0","7D0CC43EFF454085A097E314118598BA","019cee71-2062-7540-b397-0d16a1f97ba4","019cee5f-9f1f-7e58-80c1-9ba679249cc3","","783","
                <div class=""stimulus-container"">
                    <img src=""images/causal_sequence/museum_causal/museum_causal_ten.png"" class=""exp-image"">
                    <div class=""question-area"">
                        <p style=""font-size: 20px; font-weight: bold; margin: 0;"">Is there a person in this image?</p>
                    </div>
                </div>","0","main_experiment_trial","ten","museum_causal","causal_sequence","","","",""
"","","","","","html-keyboard-response","100","292974","0.0-100.0","7D0CC43EFF454085A097E314118598BA","019cee71-2062-7540-b397-0d16a1f97ba4","019cee5f-9f1f-7e58-80c1-9ba679249cc3","","null","<div style=""background-color: white; width: 100vw; height: 100vh;""></div>","null","","","","","","","",""
"","","","","","html-keyboard-response","101","297978","0.0-101.0","7D0CC43EFF454085A097E314118598BA","019cee71-2062-7540-b397-0d16a1f97ba4","019cee5f-9f1f-7e58-80c1-9ba679249cc3","","null","
                <div class=""stimulus-container"">
                    <img src=""images/schematic_sequence/interview_scheme/interview_scheme_1.png"" class=""exp-image"">
                    <div class=""question-area""></div> 
                </div>","null","","","","","","","",""
"","","","","","html-button-response","102","299337","0.0-102.0","7D0CC43EFF454085A097E314118598BA","019cee71-2062-7540-b397-0d16a1f97ba4","019cee5f-9f1f-7e58-80c1-9ba679249cc3","","1359","
                <div class=""stimulus-container"">
                    <img src=""images/schematic_sequence/interview_scheme/interview_scheme_1.png"" class=""exp-image"">
                    <div class=""question-area"">
                        <p style=""font-size: 20px; font-weight: bold; margin: 0;"">Is there a person in this image?</p>
                    </div>
                </div>","1","main_experiment_trial","1","interview_scheme","schematic_sequence","","","",""
"","","","","","html-keyboard-response","103","304346","0.0-103.0","7D0CC43EFF454085A097E314118598BA","019cee71-2062-7540-b397-0d16a1f97ba4","019cee5f-9f1f-7e58-80c1-9ba679249cc3","","null","
                <div class=""stimulus-container"">
                    <img src=""images/schematic_sequence/interview_scheme/interview_scheme_2.png"" class=""exp-image"">
                    <div class=""question-area""></div> 
                </div>","null","","","","","","","",""
"","","","","","html-button-response","104","306021","0.0-104.0","7D0CC43EFF454085A097E314118598BA","019cee71-2062-7540-b397-0d16a1f97ba4","019cee5f-9f1f-7e58-80c1-9ba679249cc3","","1673","
                <div class=""stimulus-container"">
                    <img src=""images/schematic_sequence/interview_scheme/interview_scheme_2.png"" class=""exp-image"">
                    <div class=""question-area"">
                        <p style=""font-size: 20px; font-weight: bold; margin: 0;"">Is there a person in this image?</p>
                    </div>
                </div>","0","main_experiment_trial","2","interview_scheme","schematic_sequence","","","",""
"","","","","","html-keyboard-response","105","311033","0.0-105.0","7D0CC43EFF454085A097E314118598BA","019cee71-2062-7540-b397-0d16a1f97ba4","019cee5f-9f1f-7e58-80c1-9ba679249cc3","","null","
                <div class=""stimulus-container"">
                    <img src=""images/schematic_sequence/interview_scheme/interview_scheme_3.png"" class=""exp-image"">
                    <div class=""question-area""></div> 
                </div>","null","","","","","","","",""
"","","","","","html-button-response","106","311767","0.0-106.0","7D0CC43EFF454085A097E314118598BA","019cee71-2062-7540-b397-0d16a1f97ba4","019cee5f-9f1f-7e58-80c1-9ba679249cc3","","734","
                <div class=""stimulus-container"">
                    <img src=""images/schematic_sequence/interview_scheme/interview_scheme_3.png"" class=""exp-image"">
                    <div class=""question-area"">
                        <p style=""font-size: 20px; font-weight: bold; margin: 0;"">Is there a person in this image?</p>
                    </div>
                </div>","1","main_experiment_trial","3","interview_scheme","schematic_sequence","","","",""
"","","","","","html-keyboard-response","107","316775","0.0-107.0","7D0CC43EFF454085A097E314118598BA","019cee71-2062-7540-b397-0d16a1f97ba4","019cee5f-9f1f-7e58-80c1-9ba679249cc3","","null","
                <div class=""stimulus-container"">
                    <img src=""images/schematic_sequence/interview_scheme/interview_scheme_4.png"" class=""exp-image"">
                    <div class=""question-area""></div> 
                </div>","null","","","","","","","",""
"","","","","","html-button-response","108","317399","0.0-108.0","7D0CC43EFF454085A097E314118598BA","019cee71-2062-7540-b397-0d16a1f97ba4","019cee5f-9f1f-7e58-80c1-9ba679249cc3","","623","
                <div class=""stimulus-container"">
                    <img src=""images/schematic_sequence/interview_scheme/interview_scheme_4.png"" class=""exp-image"">
                    <div class=""question-area"">
                        <p style=""font-size: 20px; font-weight: bold; margin: 0;"">Is there a person in this image?</p>
                    </div>
                </div>","1","main_experiment_trial","4","interview_scheme","schematic_sequence","","","",""
"","","","","","html-keyboard-response","109","322415","0.0-109.0","7D0CC43EFF454085A097E314118598BA","019cee71-2062-7540-b397-0d16a1f97ba4","019cee5f-9f1f-7e58-80c1-9ba679249cc3","","null","
                <div class=""stimulus-container"">
                    <img src=""images/schematic_sequence/interview_scheme/interview_scheme_5.png"" class=""exp-image"">
                    <div class=""question-area""></div> 
                </div>","null","","","","","","","",""
"","","","","","html-button-response","110","323389","0.0-110.0","7D0CC43EFF454085A097E314118598BA","019cee71-2062-7540-b397-0d16a1f97ba4","019cee5f-9f1f-7e58-80c1-9ba679249cc3","","974","
                <div class=""stimulus-container"">
                    <img src=""images/schematic_sequence/interview_scheme/interview_scheme_5.png"" class=""exp-image"">
                    <div class=""question-area"">
                        <p style=""font-size: 20px; font-weight: bold; margin: 0;"">Is there a person in this image?</p>
                    </div>
                </div>","0","main_experiment_trial","5","interview_scheme","schematic_sequence","","","",""
"","","","","","html-keyboard-response","111","328403","0.0-111.0","7D0CC43EFF454085A097E314118598BA","019cee71-2062-7540-b397-0d16a1f97ba4","019cee5f-9f1f-7e58-80c1-9ba679249cc3","","null","
                <div class=""stimulus-container"">
                    <img src=""images/schematic_sequence/interview_scheme/interview_scheme_6.png"" class=""exp-image"">
                    <div class=""question-area""></div> 
                </div>","null","","","","","","","",""
"","","","","","html-button-response","112","329081","0.0-112.0","7D0CC43EFF454085A097E314118598BA","019cee71-2062-7540-b397-0d16a1f97ba4","019cee5f-9f1f-7e58-80c1-9ba679249cc3","","678","
                <div class=""stimulus-container"">
                    <img src=""images/schematic_sequence/interview_scheme/interview_scheme_6.png"" class=""exp-image"">
                    <div class=""question-area"">
                        <p style=""font-size: 20px; font-weight: bold; margin: 0;"">Is there a person in this image?</p>
                    </div>
                </div>","0","main_experiment_trial","6","interview_scheme","schematic_sequence","","","",""
"","","","","","html-keyboard-response","113","334082","0.0-113.0","7D0CC43EFF454085A097E314118598BA","019cee71-2062-7540-b397-0d16a1f97ba4","019cee5f-9f1f-7e58-80c1-9ba679249cc3","","null","
                <div class=""stimulus-container"">
                    <img src=""images/schematic_sequence/interview_scheme/interview_scheme_7.png"" class=""exp-image"">
                    <div class=""question-area""></div> 
                </div>","null","","","","","","","",""
"","","","","","html-button-response","114","334640","0.0-114.0","7D0CC43EFF454085A097E314118598BA","019cee71-2062-7540-b397-0d16a1f97ba4","019cee5f-9f1f-7e58-80c1-9ba679249cc3","","557","
                <div class=""stimulus-container"">
                    <img src=""images/schematic_sequence/interview_scheme/interview_scheme_7.png"" class=""exp-image"">
                    <div class=""question-area"">
                        <p style=""font-size: 20px; font-weight: bold; margin: 0;"">Is there a person in this image?</p>
                    </div>
                </div>","0","main_experiment_trial","7","interview_scheme","schematic_sequence","","","",""
"","","","","","html-keyboard-response","115","339652","0.0-115.0","7D0CC43EFF454085A097E314118598BA","019cee71-2062-7540-b397-0d16a1f97ba4","019cee5f-9f1f-7e58-80c1-9ba679249cc3","","null","
                <div class=""stimulus-container"">
                    <img src=""images/schematic_sequence/interview_scheme/interview_scheme_8.png"" class=""exp-image"">
                    <div class=""question-area""></div> 
                </div>","null","","","","","","","",""
"","","","","","html-button-response","116","340365","0.0-116.0","7D0CC43EFF454085A097E314118598BA","019cee71-2062-7540-b397-0d16a1f97ba4","019cee5f-9f1f-7e58-80c1-9ba679249cc3","","712","
                <div class=""stimulus-container"">
                    <img src=""images/schematic_sequence/interview_scheme/interview_scheme_8.png"" class=""exp-image"">
                    <div class=""question-area"">
                        <p style=""font-size: 20px; font-weight: bold; margin: 0;"">Is there a person in this image?</p>
                    </div>
                </div>","0","main_experiment_trial","8","interview_scheme","schematic_sequence","","","",""
"","","","","","html-keyboard-response","117","345378","0.0-117.0","7D0CC43EFF454085A097E314118598BA","019cee71-2062-7540-b397-0d16a1f97ba4","019cee5f-9f1f-7e58-80c1-9ba679249cc3","","null","
                <div class=""stimulus-container"">
                    <img src=""images/schematic_sequence/interview_scheme/interview_scheme_9.png"" class=""exp-image"">
                    <div class=""question-area""></div> 
                </div>","null","","","","","","","",""
"","","","","","html-button-response","118","346156","0.0-118.0","7D0CC43EFF454085A097E314118598BA","019cee71-2062-7540-b397-0d16a1f97ba4","019cee5f-9f1f-7e58-80c1-9ba679249cc3","","777","
                <div class=""stimulus-container"">
                    <img src=""images/schematic_sequence/interview_scheme/interview_scheme_9.png"" class=""exp-image"">
                    <div class=""question-area"">
                        <p style=""font-size: 20px; font-weight: bold; margin: 0;"">Is there a person in this image?</p>
                    </div>
                </div>","0","main_experiment_trial","9","interview_scheme","schematic_sequence","","","",""
"","","","","","html-keyboard-response","119","351158","0.0-119.0","7D0CC43EFF454085A097E314118598BA","019cee71-2062-7540-b397-0d16a1f97ba4","019cee5f-9f1f-7e58-80c1-9ba679249cc3","","null","
                <div class=""stimulus-container"">
                    <img src=""images/schematic_sequence/interview_scheme/interview_scheme_ten.png"" class=""exp-image"">
                    <div class=""question-area""></div> 
                </div>","null","","","","","","","",""
"","","","","","html-button-response","120","351969","0.0-120.0","7D0CC43EFF454085A097E314118598BA","019cee71-2062-7540-b397-0d16a1f97ba4","019cee5f-9f1f-7e58-80c1-9ba679249cc3","","811","
                <div class=""stimulus-container"">
                    <img src=""images/schematic_sequence/interview_scheme/interview_scheme_ten.png"" class=""exp-image"">
                    <div class=""question-area"">
                        <p style=""font-size: 20px; font-weight: bold; margin: 0;"">Is there a person in this image?</p>
                    </div>
                </div>","0","main_experiment_trial","ten","interview_scheme","schematic_sequence","","","",""
"","","","","","html-keyboard-response","121","352978","0.0-121.0","7D0CC43EFF454085A097E314118598BA","019cee71-2062-7540-b397-0d16a1f97ba4","019cee5f-9f1f-7e58-80c1-9ba679249cc3","","null","<div style=""background-color: white; width: 100vw; height: 100vh;""></div>","null","","","","","","","",""
"","","","","","html-keyboard-response","122","357994","0.0-122.0","7D0CC43EFF454085A097E314118598BA","019cee71-2062-7540-b397-0d16a1f97ba4","019cee5f-9f1f-7e58-80c1-9ba679249cc3","","null","
                <div class=""stimulus-container"">
                    <img src=""images/causal_sequence/package_causal/package_causal_1.png"" class=""exp-image"">
                    <div class=""question-area""></div> 
                </div>","null","","","","","","","",""
"","","","","","html-button-response","123","359377","0.0-123.0","7D0CC43EFF454085A097E314118598BA","019cee71-2062-7540-b397-0d16a1f97ba4","019cee5f-9f1f-7e58-80c1-9ba679249cc3","","1383","
                <div class=""stimulus-container"">
                    <img src=""images/causal_sequence/package_causal/package_causal_1.png"" class=""exp-image"">
                    <div class=""question-area"">
                        <p style=""font-size: 20px; font-weight: bold; margin: 0;"">Is there a person in this image?</p>
                    </div>
                </div>","0","main_experiment_trial","1","package_causal","causal_sequence","","","",""
"","","","","","html-keyboard-response","124","364383","0.0-124.0","7D0CC43EFF454085A097E314118598BA","019cee71-2062-7540-b397-0d16a1f97ba4","019cee5f-9f1f-7e58-80c1-9ba679249cc3","","null","
                <div class=""stimulus-container"">
                    <img src=""images/causal_sequence/package_causal/package_causal_2.png"" class=""exp-image"">
                    <div class=""question-area""></div> 
                </div>","null","","","","","","","",""
"","","","","","html-button-response","125","365630","0.0-125.0","7D0CC43EFF454085A097E314118598BA","019cee71-2062-7540-b397-0d16a1f97ba4","019cee5f-9f1f-7e58-80c1-9ba679249cc3","","1247","
                <div class=""stimulus-container"">
                    <img src=""images/causal_sequence/package_causal/package_causal_2.png"" class=""exp-image"">
                    <div class=""question-area"">
                        <p style=""font-size: 20px; font-weight: bold; margin: 0;"">Is there a person in this image?</p>
                    </div>
                </div>","0","main_experiment_trial","2","package_causal","causal_sequence","","","",""
"","","","","","html-keyboard-response","126","370636","0.0-126.0","7D0CC43EFF454085A097E314118598BA","019cee71-2062-7540-b397-0d16a1f97ba4","019cee5f-9f1f-7e58-80c1-9ba679249cc3","","null","
                <div class=""stimulus-container"">
                    <img src=""images/causal_sequence/package_causal/package_causal_3.png"" class=""exp-image"">
                    <div class=""question-area""></div> 
                </div>","null","","","","","","","",""
"","","","","","html-button-response","127","371576","0.0-127.0","7D0CC43EFF454085A097E314118598BA","019cee71-2062-7540-b397-0d16a1f97ba4","019cee5f-9f1f-7e58-80c1-9ba679249cc3","","939","
                <div class=""stimulus-container"">
                    <img src=""images/causal_sequence/package_causal/package_causal_3.png"" class=""exp-image"">
                    <div class=""question-area"">
                        <p style=""font-size: 20px; font-weight: bold; margin: 0;"">Is there a person in this image?</p>
                    </div>
                </div>","0","main_experiment_trial","3","package_causal","causal_sequence","","","",""
"","","","","","html-keyboard-response","128","376581","0.0-128.0","7D0CC43EFF454085A097E314118598BA","019cee71-2062-7540-b397-0d16a1f97ba4","019cee5f-9f1f-7e58-80c1-9ba679249cc3","","null","
                <div class=""stimulus-container"">
                    <img src=""images/causal_sequence/package_causal/package_causal_4.png"" class=""exp-image"">
                    <div class=""question-area""></div> 
                </div>","null","","","","","","","",""
"","","","","","html-button-response","129","377328","0.0-129.0","7D0CC43EFF454085A097E314118598BA","019cee71-2062-7540-b397-0d16a1f97ba4","019cee5f-9f1f-7e58-80c1-9ba679249cc3","","746","
                <div class=""stimulus-container"">
                    <img src=""images/causal_sequence/package_causal/package_causal_4.png"" class=""exp-image"">
                    <div class=""question-area"">
                        <p style=""font-size: 20px; font-weight: bold; margin: 0;"">Is there a person in this image?</p>
                    </div>
                </div>","1","main_experiment_trial","4","package_causal","causal_sequence","","","",""
"","","","","","html-keyboard-response","130","382342","0.0-130.0","7D0CC43EFF454085A097E314118598BA","019cee71-2062-7540-b397-0d16a1f97ba4","019cee5f-9f1f-7e58-80c1-9ba679249cc3","","null","
                <div class=""stimulus-container"">
                    <img src=""images/causal_sequence/package_causal/package_causal_5.png"" class=""exp-image"">
                    <div class=""question-area""></div> 
                </div>","null","","","","","","","",""
"","","","","","html-button-response","131","383172","0.0-131.0","7D0CC43EFF454085A097E314118598BA","019cee71-2062-7540-b397-0d16a1f97ba4","019cee5f-9f1f-7e58-80c1-9ba679249cc3","","829","
                <div class=""stimulus-container"">
                    <img src=""images/causal_sequence/package_causal/package_causal_5.png"" class=""exp-image"">
                    <div class=""question-area"">
                        <p style=""font-size: 20px; font-weight: bold; margin: 0;"">Is there a person in this image?</p>
                    </div>
                </div>","0","main_experiment_trial","5","package_causal","causal_sequence","","","",""
"","","","","","html-keyboard-response","132","388180","0.0-132.0","7D0CC43EFF454085A097E314118598BA","019cee71-2062-7540-b397-0d16a1f97ba4","019cee5f-9f1f-7e58-80c1-9ba679249cc3","","null","
                <div class=""stimulus-container"">
                    <img src=""images/causal_sequence/package_causal/package_causal_6.png"" class=""exp-image"">
                    <div class=""question-area""></div> 
                </div>","null","","","","","","","",""
"","","","","","html-button-response","133","389049","0.0-133.0","7D0CC43EFF454085A097E314118598BA","019cee71-2062-7540-b397-0d16a1f97ba4","019cee5f-9f1f-7e58-80c1-9ba679249cc3","","869","
                <div class=""stimulus-container"">
                    <img src=""images/causal_sequence/package_causal/package_causal_6.png"" class=""exp-image"">
                    <div class=""question-area"">
                        <p style=""font-size: 20px; font-weight: bold; margin: 0;"">Is there a person in this image?</p>
                    </div>
                </div>","0","main_experiment_trial","6","package_causal","causal_sequence","","","",""
"","","","","","html-keyboard-response","134","394062","0.0-134.0","7D0CC43EFF454085A097E314118598BA","019cee71-2062-7540-b397-0d16a1f97ba4","019cee5f-9f1f-7e58-80c1-9ba679249cc3","","null","
                <div class=""stimulus-container"">
                    <img src=""images/causal_sequence/package_causal/package_causal_7.png"" class=""exp-image"">
                    <div class=""question-area""></div> 
                </div>","null","","","","","","","",""
"","","","","","html-button-response","135","395279","0.0-135.0","7D0CC43EFF454085A097E314118598BA","019cee71-2062-7540-b397-0d16a1f97ba4","019cee5f-9f1f-7e58-80c1-9ba679249cc3","","1216","
                <div class=""stimulus-container"">
                    <img src=""images/causal_sequence/package_causal/package_causal_7.png"" class=""exp-image"">
                    <div class=""question-area"">
                        <p style=""font-size: 20px; font-weight: bold; margin: 0;"">Is there a person in this image?</p>
                    </div>
                </div>","0","main_experiment_trial","7","package_causal","causal_sequence","","","",""
"","","","","","html-keyboard-response","136","400285","0.0-136.0","7D0CC43EFF454085A097E314118598BA","019cee71-2062-7540-b397-0d16a1f97ba4","019cee5f-9f1f-7e58-80c1-9ba679249cc3","","null","
                <div class=""stimulus-container"">
                    <img src=""images/causal_sequence/package_causal/package_causal_8.png"" class=""exp-image"">
                    <div class=""question-area""></div> 
                </div>","null","","","","","","","",""
"","","","","","html-button-response","137","401459","0.0-137.0","7D0CC43EFF454085A097E314118598BA","019cee71-2062-7540-b397-0d16a1f97ba4","019cee5f-9f1f-7e58-80c1-9ba679249cc3","","1174","
                <div class=""stimulus-container"">
                    <img src=""images/causal_sequence/package_causal/package_causal_8.png"" class=""exp-image"">
                    <div class=""question-area"">
                        <p style=""font-size: 20px; font-weight: bold; margin: 0;"">Is there a person in this image?</p>
                    </div>
                </div>","0","main_experiment_trial","8","package_causal","causal_sequence","","","",""
"","","","","","html-keyboard-response","138","406460","0.0-138.0","7D0CC43EFF454085A097E314118598BA","019cee71-2062-7540-b397-0d16a1f97ba4","019cee5f-9f1f-7e58-80c1-9ba679249cc3","","null","
                <div class=""stimulus-container"">
                    <img src=""images/causal_sequence/package_causal/package_causal_9.png"" class=""exp-image"">
                    <div class=""question-area""></div> 
                </div>","null","","","","","","","",""
"","","","","","html-button-response","139","407179","0.0-139.0","7D0CC43EFF454085A097E314118598BA","019cee71-2062-7540-b397-0d16a1f97ba4","019cee5f-9f1f-7e58-80c1-9ba679249cc3","","719","
                <div class=""stimulus-container"">
                    <img src=""images/causal_sequence/package_causal/package_causal_9.png"" class=""exp-image"">
                    <div class=""question-area"">
                        <p style=""font-size: 20px; font-weight: bold; margin: 0;"">Is there a person in this image?</p>
                    </div>
                </div>","0","main_experiment_trial","9","package_causal","causal_sequence","","","",""
"","","","","","html-keyboard-response","140","412183","0.0-140.0","7D0CC43EFF454085A097E314118598BA","019cee71-2062-7540-b397-0d16a1f97ba4","019cee5f-9f1f-7e58-80c1-9ba679249cc3","","null","
                <div class=""stimulus-container"">
                    <img src=""images/causal_sequence/package_causal/package_causal_ten.png"" class=""exp-image"">
                    <div class=""question-area""></div> 
                </div>","null","","","","","","","",""
"","","","","","html-button-response","141","412943","0.0-141.0","7D0CC43EFF454085A097E314118598BA","019cee71-2062-7540-b397-0d16a1f97ba4","019cee5f-9f1f-7e58-80c1-9ba679249cc3","","760","
                <div class=""stimulus-container"">
                    <img src=""images/causal_sequence/package_causal/package_causal_ten.png"" class=""exp-image"">
                    <div class=""question-area"">
                        <p style=""font-size: 20px; font-weight: bold; margin: 0;"">Is there a person in this image?</p>
                    </div>
                </div>","0","main_experiment_trial","ten","package_causal","causal_sequence","","","",""
"","","","","","html-keyboard-response","142","413959","0.0-142.0","7D0CC43EFF454085A097E314118598BA","019cee71-2062-7540-b397-0d16a1f97ba4","019cee5f-9f1f-7e58-80c1-9ba679249cc3","","null","<div style=""background-color: white; width: 100vw; height: 100vh;""></div>","null","","","","","","","",""
"","","","","","html-keyboard-response","143","418966","0.0-143.0","7D0CC43EFF454085A097E314118598BA","019cee71-2062-7540-b397-0d16a1f97ba4","019cee5f-9f1f-7e58-80c1-9ba679249cc3","","null","
                <div class=""stimulus-container"">
                    <img src=""images/schematic_sequence/restaurant_scheme/restaurant_scheme_1.png"" class=""exp-image"">
                    <div class=""question-area""></div> 
                </div>","null","","","","","","","",""
"","","","","","html-button-response","144","419730","0.0-144.0","7D0CC43EFF454085A097E314118598BA","019cee71-2062-7540-b397-0d16a1f97ba4","019cee5f-9f1f-7e58-80c1-9ba679249cc3","","763","
                <div class=""stimulus-container"">
                    <img src=""images/schematic_sequence/restaurant_scheme/restaurant_scheme_1.png"" class=""exp-image"">
                    <div class=""question-area"">
                        <p style=""font-size: 20px; font-weight: bold; margin: 0;"">Is there a person in this image?</p>
                    </div>
                </div>","0","main_experiment_trial","1","restaurant_scheme","schematic_sequence","","","",""
"","","","","","html-keyboard-response","145","424740","0.0-145.0","7D0CC43EFF454085A097E314118598BA","019cee71-2062-7540-b397-0d16a1f97ba4","019cee5f-9f1f-7e58-80c1-9ba679249cc3","","null","
                <div class=""stimulus-container"">
                    <img src=""images/schematic_sequence/restaurant_scheme/restaurant_scheme_2.png"" class=""exp-image"">
                    <div class=""question-area""></div> 
                </div>","null","","","","","","","",""
"","","","","","html-button-response","146","425860","0.0-146.0","7D0CC43EFF454085A097E314118598BA","019cee71-2062-7540-b397-0d16a1f97ba4","019cee5f-9f1f-7e58-80c1-9ba679249cc3","","1120","
                <div class=""stimulus-container"">
                    <img src=""images/schematic_sequence/restaurant_scheme/restaurant_scheme_2.png"" class=""exp-image"">
                    <div class=""question-area"">
                        <p style=""font-size: 20px; font-weight: bold; margin: 0;"">Is there a person in this image?</p>
                    </div>
                </div>","1","main_experiment_trial","2","restaurant_scheme","schematic_sequence","","","",""
"","","","","","html-keyboard-response","147","430862","0.0-147.0","7D0CC43EFF454085A097E314118598BA","019cee71-2062-7540-b397-0d16a1f97ba4","019cee5f-9f1f-7e58-80c1-9ba679249cc3","","null","
                <div class=""stimulus-container"">
                    <img src=""images/schematic_sequence/restaurant_scheme/restaurant_scheme_3.png"" class=""exp-image"">
                    <div class=""question-area""></div> 
                </div>","null","","","","","","","",""
"","","","","","html-button-response","148","431266","0.0-148.0","7D0CC43EFF454085A097E314118598BA","019cee71-2062-7540-b397-0d16a1f97ba4","019cee5f-9f1f-7e58-80c1-9ba679249cc3","","404","
                <div class=""stimulus-container"">
                    <img src=""images/schematic_sequence/restaurant_scheme/restaurant_scheme_3.png"" class=""exp-image"">
                    <div class=""question-area"">
                        <p style=""font-size: 20px; font-weight: bold; margin: 0;"">Is there a person in this image?</p>
                    </div>
                </div>","1","main_experiment_trial","3","restaurant_scheme","schematic_sequence","","","",""
"","","","","","html-keyboard-response","149","436267","0.0-149.0","7D0CC43EFF454085A097E314118598BA","019cee71-2062-7540-b397-0d16a1f97ba4","019cee5f-9f1f-7e58-80c1-9ba679249cc3","","null","
                <div class=""stimulus-container"">
                    <img src=""images/schematic_sequence/restaurant_scheme/restaurant_scheme_4.png"" class=""exp-image"">
                    <div class=""question-area""></div> 
                </div>","null","","","","","","","",""
"","","","","","html-button-response","150","436907","0.0-150.0","7D0CC43EFF454085A097E314118598BA","019cee71-2062-7540-b397-0d16a1f97ba4","019cee5f-9f1f-7e58-80c1-9ba679249cc3","","639","
                <div class=""stimulus-container"">
                    <img src=""images/schematic_sequence/restaurant_scheme/restaurant_scheme_4.png"" class=""exp-image"">
                    <div class=""question-area"">
                        <p style=""font-size: 20px; font-weight: bold; margin: 0;"">Is there a person in this image?</p>
                    </div>
                </div>","0","main_experiment_trial","4","restaurant_scheme","schematic_sequence","","","",""
"","","","","","html-keyboard-response","151","441908","0.0-151.0","7D0CC43EFF454085A097E314118598BA","019cee71-2062-7540-b397-0d16a1f97ba4","019cee5f-9f1f-7e58-80c1-9ba679249cc3","","null","
                <div class=""stimulus-container"">
                    <img src=""images/schematic_sequence/restaurant_scheme/restaurant_scheme_5.png"" class=""exp-image"">
                    <div class=""question-area""></div> 
                </div>","null","","","","","","","",""
"","","","","","html-button-response","152","442699","0.0-152.0","7D0CC43EFF454085A097E314118598BA","019cee71-2062-7540-b397-0d16a1f97ba4","019cee5f-9f1f-7e58-80c1-9ba679249cc3","","790","
                <div class=""stimulus-container"">
                    <img src=""images/schematic_sequence/restaurant_scheme/restaurant_scheme_5.png"" class=""exp-image"">
                    <div class=""question-area"">
                        <p style=""font-size: 20px; font-weight: bold; margin: 0;"">Is there a person in this image?</p>
                    </div>
                </div>","0","main_experiment_trial","5","restaurant_scheme","schematic_sequence","","","",""
"","","","","","html-keyboard-response","153","447709","0.0-153.0","7D0CC43EFF454085A097E314118598BA","019cee71-2062-7540-b397-0d16a1f97ba4","019cee5f-9f1f-7e58-80c1-9ba679249cc3","","null","
                <div class=""stimulus-container"">
                    <img src=""images/schematic_sequence/restaurant_scheme/restaurant_scheme_6.png"" class=""exp-image"">
                    <div class=""question-area""></div> 
                </div>","null","","","","","","","",""
"","","","","","html-button-response","154","448630","0.0-154.0","7D0CC43EFF454085A097E314118598BA","019cee71-2062-7540-b397-0d16a1f97ba4","019cee5f-9f1f-7e58-80c1-9ba679249cc3","","920","
                <div class=""stimulus-container"">
                    <img src=""images/schematic_sequence/restaurant_scheme/restaurant_scheme_6.png"" class=""exp-image"">
                    <div class=""question-area"">
                        <p style=""font-size: 20px; font-weight: bold; margin: 0;"">Is there a person in this image?</p>
                    </div>
                </div>","1","main_experiment_trial","6","restaurant_scheme","schematic_sequence","","","",""
"","","","","","html-keyboard-response","155","453638","0.0-155.0","7D0CC43EFF454085A097E314118598BA","019cee71-2062-7540-b397-0d16a1f97ba4","019cee5f-9f1f-7e58-80c1-9ba679249cc3","","null","
                <div class=""stimulus-container"">
                    <img src=""images/schematic_sequence/restaurant_scheme/restaurant_scheme_7.png"" class=""exp-image"">
                    <div class=""question-area""></div> 
                </div>","null","","","","","","","",""
"","","","","","html-button-response","156","454187","0.0-156.0","7D0CC43EFF454085A097E314118598BA","019cee71-2062-7540-b397-0d16a1f97ba4","019cee5f-9f1f-7e58-80c1-9ba679249cc3","","549","
                <div class=""stimulus-container"">
                    <img src=""images/schematic_sequence/restaurant_scheme/restaurant_scheme_7.png"" class=""exp-image"">
                    <div class=""question-area"">
                        <p style=""font-size: 20px; font-weight: bold; margin: 0;"">Is there a person in this image?</p>
                    </div>
                </div>","1","main_experiment_trial","7","restaurant_scheme","schematic_sequence","","","",""
"","","","","","html-keyboard-response","157","459196","0.0-157.0","7D0CC43EFF454085A097E314118598BA","019cee71-2062-7540-b397-0d16a1f97ba4","019cee5f-9f1f-7e58-80c1-9ba679249cc3","","null","
                <div class=""stimulus-container"">
                    <img src=""images/schematic_sequence/restaurant_scheme/restaurant_scheme_8.png"" class=""exp-image"">
                    <div class=""question-area""></div> 
                </div>","null","","","","","","","",""
"","","","","","html-button-response","158","460072","0.0-158.0","7D0CC43EFF454085A097E314118598BA","019cee71-2062-7540-b397-0d16a1f97ba4","019cee5f-9f1f-7e58-80c1-9ba679249cc3","","874","
                <div class=""stimulus-container"">
                    <img src=""images/schematic_sequence/restaurant_scheme/restaurant_scheme_8.png"" class=""exp-image"">
                    <div class=""question-area"">
                        <p style=""font-size: 20px; font-weight: bold; margin: 0;"">Is there a person in this image?</p>
                    </div>
                </div>","0","main_experiment_trial","8","restaurant_scheme","schematic_sequence","","","",""
"","","","","","html-keyboard-response","159","465073","0.0-159.0","7D0CC43EFF454085A097E314118598BA","019cee71-2062-7540-b397-0d16a1f97ba4","019cee5f-9f1f-7e58-80c1-9ba679249cc3","","null","
                <div class=""stimulus-container"">
                    <img src=""images/schematic_sequence/restaurant_scheme/restaurant_scheme_9.png"" class=""exp-image"">
                    <div class=""question-area""></div> 
                </div>","null","","","","","","","",""
"","","","","","html-button-response","160","465872","0.0-160.0","7D0CC43EFF454085A097E314118598BA","019cee71-2062-7540-b397-0d16a1f97ba4","019cee5f-9f1f-7e58-80c1-9ba679249cc3","","798","
                <div class=""stimulus-container"">
                    <img src=""images/schematic_sequence/restaurant_scheme/restaurant_scheme_9.png"" class=""exp-image"">
                    <div class=""question-area"">
                        <p style=""font-size: 20px; font-weight: bold; margin: 0;"">Is there a person in this image?</p>
                    </div>
                </div>","0","main_experiment_trial","9","restaurant_scheme","schematic_sequence","","","",""
"","","","","","html-keyboard-response","161","470886","0.0-161.0","7D0CC43EFF454085A097E314118598BA","019cee71-2062-7540-b397-0d16a1f97ba4","019cee5f-9f1f-7e58-80c1-9ba679249cc3","","null","
                <div class=""stimulus-container"">
                    <img src=""images/schematic_sequence/restaurant_scheme/restaurant_scheme_ten.png"" class=""exp-image"">
                    <div class=""question-area""></div> 
                </div>","null","","","","","","","",""
"","","","","","html-button-response","162","471627","0.0-162.0","7D0CC43EFF454085A097E314118598BA","019cee71-2062-7540-b397-0d16a1f97ba4","019cee5f-9f1f-7e58-80c1-9ba679249cc3","","741","
                <div class=""stimulus-container"">
                    <img src=""images/schematic_sequence/restaurant_scheme/restaurant_scheme_ten.png"" class=""exp-image"">
                    <div class=""question-area"">
                        <p style=""font-size: 20px; font-weight: bold; margin: 0;"">Is there a person in this image?</p>
                    </div>
                </div>","0","main_experiment_trial","ten","restaurant_scheme","schematic_sequence","","","",""
"","","","","","html-keyboard-response","163","472641","0.0-163.0","7D0CC43EFF454085A097E314118598BA","019cee71-2062-7540-b397-0d16a1f97ba4","019cee5f-9f1f-7e58-80c1-9ba679249cc3","","null","<div style=""background-color: white; width: 100vw; height: 100vh;""></div>","null","","","","","","","",""
"","","","","","html-keyboard-response","164","477644","0.0-164.0","7D0CC43EFF454085A097E314118598BA","019cee71-2062-7540-b397-0d16a1f97ba4","019cee5f-9f1f-7e58-80c1-9ba679249cc3","","null","
                <div class=""stimulus-container"">
                    <img src=""images/schematic_sequence/flight_scheme/flight_scheme_1.png"" class=""exp-image"">
                    <div class=""question-area""></div> 
                </div>","null","","","","","","","",""
"","","","","","html-button-response","165","478662","0.0-165.0","7D0CC43EFF454085A097E314118598BA","019cee71-2062-7540-b397-0d16a1f97ba4","019cee5f-9f1f-7e58-80c1-9ba679249cc3","","1017","
                <div class=""stimulus-container"">
                    <img src=""images/schematic_sequence/flight_scheme/flight_scheme_1.png"" class=""exp-image"">
                    <div class=""question-area"">
                        <p style=""font-size: 20px; font-weight: bold; margin: 0;"">Is there a person in this image?</p>
                    </div>
                </div>","0","main_experiment_trial","1","flight_scheme","schematic_sequence","","","",""
"","","","","","html-keyboard-response","166","483665","0.0-166.0","7D0CC43EFF454085A097E314118598BA","019cee71-2062-7540-b397-0d16a1f97ba4","019cee5f-9f1f-7e58-80c1-9ba679249cc3","","null","
                <div class=""stimulus-container"">
                    <img src=""images/schematic_sequence/flight_scheme/flight_scheme_2.png"" class=""exp-image"">
                    <div class=""question-area""></div> 
                </div>","null","","","","","","","",""
"","","","","","html-button-response","167","484245","0.0-167.0","7D0CC43EFF454085A097E314118598BA","019cee71-2062-7540-b397-0d16a1f97ba4","019cee5f-9f1f-7e58-80c1-9ba679249cc3","","579","
                <div class=""stimulus-container"">
                    <img src=""images/schematic_sequence/flight_scheme/flight_scheme_2.png"" class=""exp-image"">
                    <div class=""question-area"">
                        <p style=""font-size: 20px; font-weight: bold; margin: 0;"">Is there a person in this image?</p>
                    </div>
                </div>","1","main_experiment_trial","2","flight_scheme","schematic_sequence","","","",""
"","","","","","html-keyboard-response","168","489255","0.0-168.0","7D0CC43EFF454085A097E314118598BA","019cee71-2062-7540-b397-0d16a1f97ba4","019cee5f-9f1f-7e58-80c1-9ba679249cc3","","null","
                <div class=""stimulus-container"">
                    <img src=""images/schematic_sequence/flight_scheme/flight_scheme_3.png"" class=""exp-image"">
                    <div class=""question-area""></div> 
                </div>","null","","","","","","","",""
"","","","","","html-button-response","169","490122","0.0-169.0","7D0CC43EFF454085A097E314118598BA","019cee71-2062-7540-b397-0d16a1f97ba4","019cee5f-9f1f-7e58-80c1-9ba679249cc3","","867","
                <div class=""stimulus-container"">
                    <img src=""images/schematic_sequence/flight_scheme/flight_scheme_3.png"" class=""exp-image"">
                    <div class=""question-area"">
                        <p style=""font-size: 20px; font-weight: bold; margin: 0;"">Is there a person in this image?</p>
                    </div>
                </div>","0","main_experiment_trial","3","flight_scheme","schematic_sequence","","","",""
"","","","","","html-keyboard-response","170","495138","0.0-170.0","7D0CC43EFF454085A097E314118598BA","019cee71-2062-7540-b397-0d16a1f97ba4","019cee5f-9f1f-7e58-80c1-9ba679249cc3","","null","
                <div class=""stimulus-container"">
                    <img src=""images/schematic_sequence/flight_scheme/flight_scheme_4.png"" class=""exp-image"">
                    <div class=""question-area""></div> 
                </div>","null","","","","","","","",""
"","","","","","html-button-response","171","495702","0.0-171.0","7D0CC43EFF454085A097E314118598BA","019cee71-2062-7540-b397-0d16a1f97ba4","019cee5f-9f1f-7e58-80c1-9ba679249cc3","","564","
                <div class=""stimulus-container"">
                    <img src=""images/schematic_sequence/flight_scheme/flight_scheme_4.png"" class=""exp-image"">
                    <div class=""question-area"">
                        <p style=""font-size: 20px; font-weight: bold; margin: 0;"">Is there a person in this image?</p>
                    </div>
                </div>","0","main_experiment_trial","4","flight_scheme","schematic_sequence","","","",""
"","","","","","html-keyboard-response","172","500715","0.0-172.0","7D0CC43EFF454085A097E314118598BA","019cee71-2062-7540-b397-0d16a1f97ba4","019cee5f-9f1f-7e58-80c1-9ba679249cc3","","null","
                <div class=""stimulus-container"">
                    <img src=""images/schematic_sequence/flight_scheme/flight_scheme_5.png"" class=""exp-image"">
                    <div class=""question-area""></div> 
                </div>","null","","","","","","","",""
"","","","","","html-button-response","173","501375","0.0-173.0","7D0CC43EFF454085A097E314118598BA","019cee71-2062-7540-b397-0d16a1f97ba4","019cee5f-9f1f-7e58-80c1-9ba679249cc3","","660","
                <div class=""stimulus-container"">
                    <img src=""images/schematic_sequence/flight_scheme/flight_scheme_5.png"" class=""exp-image"">
                    <div class=""question-area"">
                        <p style=""font-size: 20px; font-weight: bold; margin: 0;"">Is there a person in this image?</p>
                    </div>
                </div>","0","main_experiment_trial","5","flight_scheme","schematic_sequence","","","",""
"","","","","","html-keyboard-response","174","506379","0.0-174.0","7D0CC43EFF454085A097E314118598BA","019cee71-2062-7540-b397-0d16a1f97ba4","019cee5f-9f1f-7e58-80c1-9ba679249cc3","","null","
                <div class=""stimulus-container"">
                    <img src=""images/schematic_sequence/flight_scheme/flight_scheme_6.png"" class=""exp-image"">
                    <div class=""question-area""></div> 
                </div>","null","","","","","","","",""
"","","","","","html-button-response","175","507398","0.0-175.0","7D0CC43EFF454085A097E314118598BA","019cee71-2062-7540-b397-0d16a1f97ba4","019cee5f-9f1f-7e58-80c1-9ba679249cc3","","1019","
                <div class=""stimulus-container"">
                    <img src=""images/schematic_sequence/flight_scheme/flight_scheme_6.png"" class=""exp-image"">
                    <div class=""question-area"">
                        <p style=""font-size: 20px; font-weight: bold; margin: 0;"">Is there a person in this image?</p>
                    </div>
                </div>","1","main_experiment_trial","6","flight_scheme","schematic_sequence","","","",""
"","","","","","html-keyboard-response","176","512404","0.0-176.0","7D0CC43EFF454085A097E314118598BA","019cee71-2062-7540-b397-0d16a1f97ba4","019cee5f-9f1f-7e58-80c1-9ba679249cc3","","null","
                <div class=""stimulus-container"">
                    <img src=""images/schematic_sequence/flight_scheme/flight_scheme_7.png"" class=""exp-image"">
                    <div class=""question-area""></div> 
                </div>","null","","","","","","","",""
"","","","","","html-button-response","177","513985","0.0-177.0","7D0CC43EFF454085A097E314118598BA","019cee71-2062-7540-b397-0d16a1f97ba4","019cee5f-9f1f-7e58-80c1-9ba679249cc3","","1580","
                <div class=""stimulus-container"">
                    <img src=""images/schematic_sequence/flight_scheme/flight_scheme_7.png"" class=""exp-image"">
                    <div class=""question-area"">
                        <p style=""font-size: 20px; font-weight: bold; margin: 0;"">Is there a person in this image?</p>
                    </div>
                </div>","1","main_experiment_trial","7","flight_scheme","schematic_sequence","","","",""
"","","","","","html-keyboard-response","178","518992","0.0-178.0","7D0CC43EFF454085A097E314118598BA","019cee71-2062-7540-b397-0d16a1f97ba4","019cee5f-9f1f-7e58-80c1-9ba679249cc3","","null","
                <div class=""stimulus-container"">
                    <img src=""images/schematic_sequence/flight_scheme/flight_scheme_8.png"" class=""exp-image"">
                    <div class=""question-area""></div> 
                </div>","null","","","","","","","",""
"","","","","","html-button-response","179","519999","0.0-179.0","7D0CC43EFF454085A097E314118598BA","019cee71-2062-7540-b397-0d16a1f97ba4","019cee5f-9f1f-7e58-80c1-9ba679249cc3","","1007","
                <div class=""stimulus-container"">
                    <img src=""images/schematic_sequence/flight_scheme/flight_scheme_8.png"" class=""exp-image"">
                    <div class=""question-area"">
                        <p style=""font-size: 20px; font-weight: bold; margin: 0;"">Is there a person in this image?</p>
                    </div>
                </div>","1","main_experiment_trial","8","flight_scheme","schematic_sequence","","","",""
"","","","","","html-keyboard-response","180","525009","0.0-180.0","7D0CC43EFF454085A097E314118598BA","019cee71-2062-7540-b397-0d16a1f97ba4","019cee5f-9f1f-7e58-80c1-9ba679249cc3","","null","
                <div class=""stimulus-container"">
                    <img src=""images/schematic_sequence/flight_scheme/flight_scheme_9.png"" class=""exp-image"">
                    <div class=""question-area""></div> 
                </div>","null","","","","","","","",""
"","","","","","html-button-response","181","525897","0.0-181.0","7D0CC43EFF454085A097E314118598BA","019cee71-2062-7540-b397-0d16a1f97ba4","019cee5f-9f1f-7e58-80c1-9ba679249cc3","","888","
                <div class=""stimulus-container"">
                    <img src=""images/schematic_sequence/flight_scheme/flight_scheme_9.png"" class=""exp-image"">
                    <div class=""question-area"">
                        <p style=""font-size: 20px; font-weight: bold; margin: 0;"">Is there a person in this image?</p>
                    </div>
                </div>","0","main_experiment_trial","9","flight_scheme","schematic_sequence","","","",""
"","","","","","html-keyboard-response","182","530904","0.0-182.0","7D0CC43EFF454085A097E314118598BA","019cee71-2062-7540-b397-0d16a1f97ba4","019cee5f-9f1f-7e58-80c1-9ba679249cc3","","null","
                <div class=""stimulus-container"">
                    <img src=""images/schematic_sequence/flight_scheme/flight_scheme_ten.png"" class=""exp-image"">
                    <div class=""question-area""></div> 
                </div>","null","","","","","","","",""
"","","","","","html-button-response","183","531772","0.0-183.0","7D0CC43EFF454085A097E314118598BA","019cee71-2062-7540-b397-0d16a1f97ba4","019cee5f-9f1f-7e58-80c1-9ba679249cc3","","868","
                <div class=""stimulus-container"">
                    <img src=""images/schematic_sequence/flight_scheme/flight_scheme_ten.png"" class=""exp-image"">
                    <div class=""question-area"">
                        <p style=""font-size: 20px; font-weight: bold; margin: 0;"">Is there a person in this image?</p>
                    </div>
                </div>","0","main_experiment_trial","ten","flight_scheme","schematic_sequence","","","",""
"","","","","","html-keyboard-response","184","532788","0.0-184.0","7D0CC43EFF454085A097E314118598BA","019cee71-2062-7540-b397-0d16a1f97ba4","019cee5f-9f1f-7e58-80c1-9ba679249cc3","","null","<div style=""background-color: white; width: 100vw; height: 100vh;""></div>","null","","","","","","","",""
"","","","","","html-keyboard-response","185","537790","0.0-185.0","7D0CC43EFF454085A097E314118598BA","019cee71-2062-7540-b397-0d16a1f97ba4","019cee5f-9f1f-7e58-80c1-9ba679249cc3","","null","
                <div class=""stimulus-container"">
                    <img src=""images/schematic_sequence/supermarket_scheme/supermarket_scheme_1.png"" class=""exp-image"">
                    <div class=""question-area""></div> 
                </div>","null","","","","","","","",""
