"success","timeout","failed_images","failed_audio","failed_video","trial_type","trial_index","time_elapsed","internal_node_id","subject_id","study_id","session_id","view_history","rt","stimulus","response","task","image_index","folder","sequence_type","valuable_image_index","reward_type","chosen_image_index","target_X","correct_choice"
"true","false","[]","[]","[]","preload","0","59771","0.0-0.0","56AFE7B42E814473B4ACED9DBDF9FD10","019cf0c7-6c49-7d26-8640-2461163e017b","019cf037-5203-781a-b900-108ccb1cab86","","","","","","","","","","","","",""
"","","","","","instructions","1","66153","0.0-1.0","56AFE7B42E814473B4ACED9DBDF9FD10","019cf0c7-6c49-7d26-8640-2461163e017b","019cf037-5203-781a-b900-108ccb1cab86","[{""page_index"":0,""viewing_time"":6381}]","6381","","","","","","","","","","",""
"","","","","","instructions","2","118624","0.0-2.0","56AFE7B42E814473B4ACED9DBDF9FD10","019cf0c7-6c49-7d26-8640-2461163e017b","019cf037-5203-781a-b900-108ccb1cab86","[{""page_index"":0,""viewing_time"":52470}]","52471","","","","","","","","","","",""
"true","","","","","fullscreen","3","125028","0.0-3.0","56AFE7B42E814473B4ACED9DBDF9FD10","019cf0c7-6c49-7d26-8640-2461163e017b","019cf037-5203-781a-b900-108ccb1cab86","","5392","","","","","","","","","","",""
"","","","","","instructions","4","163313","0.0-4.0","56AFE7B42E814473B4ACED9DBDF9FD10","019cf0c7-6c49-7d26-8640-2461163e017b","019cf037-5203-781a-b900-108ccb1cab86","[{""page_index"":0,""viewing_time"":38284}]","38284","","","","","","","","","","",""
"","","","","","instructions","5","184431","0.0-5.0","56AFE7B42E814473B4ACED9DBDF9FD10","019cf0c7-6c49-7d26-8640-2461163e017b","019cf037-5203-781a-b900-108ccb1cab86","[{""page_index"":0,""viewing_time"":21117}]","21118","","","","","","","","","","",""
"","","","","","html-keyboard-response","6","188444","0.0-6.0","56AFE7B42E814473B4ACED9DBDF9FD10","019cf0c7-6c49-7d26-8640-2461163e017b","019cf037-5203-781a-b900-108ccb1cab86","","null","
                <div class=""stimulus-container"">
                    <img src=""images/instructions/movie_1.png"" class=""exp-image"">
                    <div class=""question-area""></div> 
                </div>","null","","","","","","","","",""
"","","","","","html-button-response","7","191447","0.0-7.0","56AFE7B42E814473B4ACED9DBDF9FD10","019cf0c7-6c49-7d26-8640-2461163e017b","019cf037-5203-781a-b900-108ccb1cab86","","null","
                <div class=""stimulus-container"">
                    <img src=""images/instructions/movie_1.png"" class=""exp-image"">
                    <div class=""question-area"">
                        <p style=""font-size: 20px; font-weight: bold; margin: 0;"">Was there a person in this image?</p>
                    </div>
                </div>","null","example_question","1","","","","","","",""
"","","","","","html-keyboard-response","8","195463","0.0-8.0","56AFE7B42E814473B4ACED9DBDF9FD10","019cf0c7-6c49-7d26-8640-2461163e017b","019cf037-5203-781a-b900-108ccb1cab86","","null","
                <div class=""stimulus-container"">
                    <img src=""images/instructions/movie_2.png"" class=""exp-image"">
                    <div class=""question-area""></div> 
                </div>","null","","","","","","","","",""
"","","","","","html-button-response","9","198465","0.0-9.0","56AFE7B42E814473B4ACED9DBDF9FD10","019cf0c7-6c49-7d26-8640-2461163e017b","019cf037-5203-781a-b900-108ccb1cab86","","null","
                <div class=""stimulus-container"">
                    <img src=""images/instructions/movie_2.png"" class=""exp-image"">
                    <div class=""question-area"">
                        <p style=""font-size: 20px; font-weight: bold; margin: 0;"">Was there a person in this image?</p>
                    </div>
                </div>","null","example_question","2","","","","","","",""
"","","","","","html-keyboard-response","10","202475","0.0-10.0","56AFE7B42E814473B4ACED9DBDF9FD10","019cf0c7-6c49-7d26-8640-2461163e017b","019cf037-5203-781a-b900-108ccb1cab86","","null","
                <div class=""stimulus-container"">
                    <img src=""images/instructions/movie_3.png"" class=""exp-image"">
                    <div class=""question-area""></div> 
                </div>","null","","","","","","","","",""
"","","","","","html-button-response","11","205488","0.0-11.0","56AFE7B42E814473B4ACED9DBDF9FD10","019cf0c7-6c49-7d26-8640-2461163e017b","019cf037-5203-781a-b900-108ccb1cab86","","null","
                <div class=""stimulus-container"">
                    <img src=""images/instructions/movie_3.png"" class=""exp-image"">
                    <div class=""question-area"">
                        <p style=""font-size: 20px; font-weight: bold; margin: 0;"">Was there a person in this image?</p>
                    </div>
                </div>","null","example_question","3","","","","","","",""
"","","","","","html-keyboard-response","12","209497","0.0-12.0","56AFE7B42E814473B4ACED9DBDF9FD10","019cf0c7-6c49-7d26-8640-2461163e017b","019cf037-5203-781a-b900-108ccb1cab86","","null","
                <div class=""stimulus-container"">
                    <img src=""images/instructions/movie_4.png"" class=""exp-image"">
                    <div class=""question-area""></div> 
                </div>","null","","","","","","","","",""
"","","","","","html-button-response","13","212407","0.0-13.0","56AFE7B42E814473B4ACED9DBDF9FD10","019cf0c7-6c49-7d26-8640-2461163e017b","019cf037-5203-781a-b900-108ccb1cab86","","2907","
                <div class=""stimulus-container"">
                    <img src=""images/instructions/movie_4.png"" class=""exp-image"">
                    <div class=""question-area"">
                        <p style=""font-size: 20px; font-weight: bold; margin: 0;"">Was there a person in this image?</p>
                    </div>
                </div>","0","example_question","4","","","","","","",""
"","","","","","instructions","14","219291","0.0-14.0","56AFE7B42E814473B4ACED9DBDF9FD10","019cf0c7-6c49-7d26-8640-2461163e017b","019cf037-5203-781a-b900-108ccb1cab86","[{""page_index"":0,""viewing_time"":6884}]","6884","","","","","","","","","","",""
"","","","","","instructions","15","240656","0.0-15.0","56AFE7B42E814473B4ACED9DBDF9FD10","019cf0c7-6c49-7d26-8640-2461163e017b","019cf037-5203-781a-b900-108ccb1cab86","[{""page_index"":0,""viewing_time"":21363}]","21363","","","","","","","","","","",""
"","","","","","html-keyboard-response","16","241670","0.0-16.0","56AFE7B42E814473B4ACED9DBDF9FD10","019cf0c7-6c49-7d26-8640-2461163e017b","019cf037-5203-781a-b900-108ccb1cab86","","null","<div style=""background-color: white; width: 100vw; height: 100vh;""></div>","null","","","","","","","","",""
"","","","","","html-keyboard-response","17","246685","0.0-17.0","56AFE7B42E814473B4ACED9DBDF9FD10","019cf0c7-6c49-7d26-8640-2461163e017b","019cf037-5203-781a-b900-108ccb1cab86","","null","
                <div class=""stimulus-container"">
                    <img src=""images/causal_sequence/package_causal/package_causal_1.png"" class=""exp-image"">
                    <div class=""question-area""></div> 
                </div>","null","","","","","","","","",""
"","","","","","html-button-response","18","248749","0.0-18.0","56AFE7B42E814473B4ACED9DBDF9FD10","019cf0c7-6c49-7d26-8640-2461163e017b","019cf037-5203-781a-b900-108ccb1cab86","","2063","
                <div class=""stimulus-container"">
                    <img src=""images/causal_sequence/package_causal/package_causal_1.png"" class=""exp-image"">
                    <div class=""question-area"">
                        <p style=""font-size: 20px; font-weight: bold; margin: 0;"">Is there a person in this image?</p>
                    </div>
                </div>","1","main_experiment_trial","1","package_causal","causal_sequence","","","","",""
"","","","","","html-keyboard-response","19","253754","0.0-19.0","56AFE7B42E814473B4ACED9DBDF9FD10","019cf0c7-6c49-7d26-8640-2461163e017b","019cf037-5203-781a-b900-108ccb1cab86","","null","
                <div class=""stimulus-container"">
                    <img src=""images/causal_sequence/package_causal/package_causal_2.png"" class=""exp-image"">
                    <div class=""question-area""></div> 
                </div>","null","","","","","","","","",""
"","","","","","html-button-response","20","255758","0.0-20.0","56AFE7B42E814473B4ACED9DBDF9FD10","019cf0c7-6c49-7d26-8640-2461163e017b","019cf037-5203-781a-b900-108ccb1cab86","","2002","
                <div class=""stimulus-container"">
                    <img src=""images/causal_sequence/package_causal/package_causal_2.png"" class=""exp-image"">
                    <div class=""question-area"">
                        <p style=""font-size: 20px; font-weight: bold; margin: 0;"">Is there a person in this image?</p>
                    </div>
                </div>","1","main_experiment_trial","2","package_causal","causal_sequence","","","","",""
"","","","","","html-keyboard-response","21","260761","0.0-21.0","56AFE7B42E814473B4ACED9DBDF9FD10","019cf0c7-6c49-7d26-8640-2461163e017b","019cf037-5203-781a-b900-108ccb1cab86","","null","
                <div class=""stimulus-container"">
                    <img src=""images/causal_sequence/package_causal/package_causal_3.png"" class=""exp-image"">
                    <div class=""question-area""></div> 
                </div>","null","","","","","","","","",""
"","","","","","html-button-response","22","262980","0.0-22.0","56AFE7B42E814473B4ACED9DBDF9FD10","019cf0c7-6c49-7d26-8640-2461163e017b","019cf037-5203-781a-b900-108ccb1cab86","","2217","
                <div class=""stimulus-container"">
                    <img src=""images/causal_sequence/package_causal/package_causal_3.png"" class=""exp-image"">
                    <div class=""question-area"">
                        <p style=""font-size: 20px; font-weight: bold; margin: 0;"">Is there a person in this image?</p>
                    </div>
                </div>","0","main_experiment_trial","3","package_causal","causal_sequence","","","","",""
"","","","","","html-keyboard-response","23","267984","0.0-23.0","56AFE7B42E814473B4ACED9DBDF9FD10","019cf0c7-6c49-7d26-8640-2461163e017b","019cf037-5203-781a-b900-108ccb1cab86","","null","
                <div class=""stimulus-container"">
                    <img src=""images/causal_sequence/package_causal/package_causal_4.png"" class=""exp-image"">
                    <div class=""question-area""></div> 
                </div>","null","","","","","","","","",""
"","","","","","html-button-response","24","270454","0.0-24.0","56AFE7B42E814473B4ACED9DBDF9FD10","019cf0c7-6c49-7d26-8640-2461163e017b","019cf037-5203-781a-b900-108ccb1cab86","","2469","
                <div class=""stimulus-container"">
                    <img src=""images/causal_sequence/package_causal/package_causal_4.png"" class=""exp-image"">
                    <div class=""question-area"">
                        <p style=""font-size: 20px; font-weight: bold; margin: 0;"">Is there a person in this image?</p>
                    </div>
                </div>","1","main_experiment_trial","4","package_causal","causal_sequence","","","","",""
"","","","","","html-keyboard-response","25","275468","0.0-25.0","56AFE7B42E814473B4ACED9DBDF9FD10","019cf0c7-6c49-7d26-8640-2461163e017b","019cf037-5203-781a-b900-108ccb1cab86","","null","
                <div class=""stimulus-container"">
                    <img src=""images/causal_sequence/package_causal/package_causal_5.png"" class=""exp-image"">
                    <div class=""question-area""></div> 
                </div>","null","","","","","","","","",""
"","","","","","html-button-response","26","277448","0.0-26.0","56AFE7B42E814473B4ACED9DBDF9FD10","019cf0c7-6c49-7d26-8640-2461163e017b","019cf037-5203-781a-b900-108ccb1cab86","","1977","
                <div class=""stimulus-container"">
                    <img src=""images/causal_sequence/package_causal/package_causal_5.png"" class=""exp-image"">
                    <div class=""question-area"">
                        <p style=""font-size: 20px; font-weight: bold; margin: 0;"">Is there a person in this image?</p>
                    </div>
                </div>","0","main_experiment_trial","5","package_causal","causal_sequence","","","","",""
"","","","","","html-keyboard-response","27","282452","0.0-27.0","56AFE7B42E814473B4ACED9DBDF9FD10","019cf0c7-6c49-7d26-8640-2461163e017b","019cf037-5203-781a-b900-108ccb1cab86","","null","
                <div class=""stimulus-container"">
                    <img src=""images/causal_sequence/package_causal/package_causal_6.png"" class=""exp-image"">
                    <div class=""question-area""></div> 
                </div>","null","","","","","","","","",""
"","","","","","html-button-response","28","285304","0.0-28.0","56AFE7B42E814473B4ACED9DBDF9FD10","019cf0c7-6c49-7d26-8640-2461163e017b","019cf037-5203-781a-b900-108ccb1cab86","","2851","
                <div class=""stimulus-container"">
                    <img src=""images/causal_sequence/package_causal/package_causal_6.png"" class=""exp-image"">
                    <div class=""question-area"">
                        <p style=""font-size: 20px; font-weight: bold; margin: 0;"">Is there a person in this image?</p>
                    </div>
                </div>","0","main_experiment_trial","6","package_causal","causal_sequence","","","","",""
"","","","","","html-keyboard-response","29","290317","0.0-29.0","56AFE7B42E814473B4ACED9DBDF9FD10","019cf0c7-6c49-7d26-8640-2461163e017b","019cf037-5203-781a-b900-108ccb1cab86","","null","
                <div class=""stimulus-container"">
                    <img src=""images/causal_sequence/package_causal/package_causal_7.png"" class=""exp-image"">
                    <div class=""question-area""></div> 
                </div>","null","","","","","","","","",""
"","","","","","html-button-response","30","292487","0.0-30.0","56AFE7B42E814473B4ACED9DBDF9FD10","019cf0c7-6c49-7d26-8640-2461163e017b","019cf037-5203-781a-b900-108ccb1cab86","","2169","
                <div class=""stimulus-container"">
                    <img src=""images/causal_sequence/package_causal/package_causal_7.png"" class=""exp-image"">
                    <div class=""question-area"">
                        <p style=""font-size: 20px; font-weight: bold; margin: 0;"">Is there a person in this image?</p>
                    </div>
                </div>","1","main_experiment_trial","7","package_causal","causal_sequence","","","","",""
"","","","","","html-keyboard-response","31","297490","0.0-31.0","56AFE7B42E814473B4ACED9DBDF9FD10","019cf0c7-6c49-7d26-8640-2461163e017b","019cf037-5203-781a-b900-108ccb1cab86","","null","
                <div class=""stimulus-container"">
                    <img src=""images/causal_sequence/package_causal/package_causal_8.png"" class=""exp-image"">
                    <div class=""question-area""></div> 
                </div>","null","","","","","","","","",""
"","","","","","html-button-response","32","298962","0.0-32.0","56AFE7B42E814473B4ACED9DBDF9FD10","019cf0c7-6c49-7d26-8640-2461163e017b","019cf037-5203-781a-b900-108ccb1cab86","","1470","
                <div class=""stimulus-container"">
                    <img src=""images/causal_sequence/package_causal/package_causal_8.png"" class=""exp-image"">
                    <div class=""question-area"">
                        <p style=""font-size: 20px; font-weight: bold; margin: 0;"">Is there a person in this image?</p>
                    </div>
                </div>","1","main_experiment_trial","8","package_causal","causal_sequence","","","","",""
"","","","","","html-keyboard-response","33","303963","0.0-33.0","56AFE7B42E814473B4ACED9DBDF9FD10","019cf0c7-6c49-7d26-8640-2461163e017b","019cf037-5203-781a-b900-108ccb1cab86","","null","
                <div class=""stimulus-container"">
                    <img src=""images/causal_sequence/package_causal/package_causal_9.png"" class=""exp-image"">
                    <div class=""question-area""></div> 
                </div>","null","","","","","","","","",""
"","","","","","html-button-response","34","305477","0.0-34.0","56AFE7B42E814473B4ACED9DBDF9FD10","019cf0c7-6c49-7d26-8640-2461163e017b","019cf037-5203-781a-b900-108ccb1cab86","","1513","
                <div class=""stimulus-container"">
                    <img src=""images/causal_sequence/package_causal/package_causal_9.png"" class=""exp-image"">
                    <div class=""question-area"">
                        <p style=""font-size: 20px; font-weight: bold; margin: 0;"">Is there a person in this image?</p>
                    </div>
                </div>","1","main_experiment_trial","9","package_causal","causal_sequence","","","","",""
"","","","","","html-keyboard-response","35","310483","0.0-35.0","56AFE7B42E814473B4ACED9DBDF9FD10","019cf0c7-6c49-7d26-8640-2461163e017b","019cf037-5203-781a-b900-108ccb1cab86","","null","
                <div class=""stimulus-container"">
                    <img src=""images/causal_sequence/package_causal/package_causal_ten.png"" class=""exp-image"">
                    <div class=""question-area""></div> 
                </div>","null","","","","","","","","",""
"","","","","","html-button-response","36","311444","0.0-36.0","56AFE7B42E814473B4ACED9DBDF9FD10","019cf0c7-6c49-7d26-8640-2461163e017b","019cf037-5203-781a-b900-108ccb1cab86","","959","
                <div class=""stimulus-container"">
                    <img src=""images/causal_sequence/package_causal/package_causal_ten.png"" class=""exp-image"">
                    <div class=""question-area"">
                        <p style=""font-size: 20px; font-weight: bold; margin: 0;"">Is there a person in this image?</p>
                    </div>
                </div>","1","main_experiment_trial","ten","package_causal","causal_sequence","","","","",""
"","","","","","html-keyboard-response","37","312446","0.0-37.0","56AFE7B42E814473B4ACED9DBDF9FD10","019cf0c7-6c49-7d26-8640-2461163e017b","019cf037-5203-781a-b900-108ccb1cab86","","null","<div style=""background-color: white; width: 100vw; height: 100vh;""></div>","null","","","","","","","","",""
"","","","","","html-keyboard-response","38","317447","0.0-38.0","56AFE7B42E814473B4ACED9DBDF9FD10","019cf0c7-6c49-7d26-8640-2461163e017b","019cf037-5203-781a-b900-108ccb1cab86","","null","
                <div class=""stimulus-container"">
                    <img src=""images/schematic_sequence/interview_scheme/interview_scheme_1.png"" class=""exp-image"">
                    <div class=""question-area""></div> 
                </div>","null","","","","","","","","",""
"","","","","","html-button-response","39","319394","0.0-39.0","56AFE7B42E814473B4ACED9DBDF9FD10","019cf0c7-6c49-7d26-8640-2461163e017b","019cf037-5203-781a-b900-108ccb1cab86","","1945","
                <div class=""stimulus-container"">
                    <img src=""images/schematic_sequence/interview_scheme/interview_scheme_1.png"" class=""exp-image"">
                    <div class=""question-area"">
                        <p style=""font-size: 20px; font-weight: bold; margin: 0;"">Is there a person in this image?</p>
                    </div>
                </div>","1","main_experiment_trial","1","interview_scheme","schematic_sequence","","","","",""
"","","","","","html-keyboard-response","40","324398","0.0-40.0","56AFE7B42E814473B4ACED9DBDF9FD10","019cf0c7-6c49-7d26-8640-2461163e017b","019cf037-5203-781a-b900-108ccb1cab86","","null","
                <div class=""stimulus-container"">
                    <img src=""images/schematic_sequence/interview_scheme/interview_scheme_2.png"" class=""exp-image"">
                    <div class=""question-area""></div> 
                </div>","null","","","","","","","","",""
"","","","","","html-button-response","41","326178","0.0-41.0","56AFE7B42E814473B4ACED9DBDF9FD10","019cf0c7-6c49-7d26-8640-2461163e017b","019cf037-5203-781a-b900-108ccb1cab86","","1778","
                <div class=""stimulus-container"">
                    <img src=""images/schematic_sequence/interview_scheme/interview_scheme_2.png"" class=""exp-image"">
                    <div class=""question-area"">
                        <p style=""font-size: 20px; font-weight: bold; margin: 0;"">Is there a person in this image?</p>
                    </div>
                </div>","1","main_experiment_trial","2","interview_scheme","schematic_sequence","","","","",""
"","","","","","html-keyboard-response","42","331185","0.0-42.0","56AFE7B42E814473B4ACED9DBDF9FD10","019cf0c7-6c49-7d26-8640-2461163e017b","019cf037-5203-781a-b900-108ccb1cab86","","null","
                <div class=""stimulus-container"">
                    <img src=""images/schematic_sequence/interview_scheme/interview_scheme_3.png"" class=""exp-image"">
                    <div class=""question-area""></div> 
                </div>","null","","","","","","","","",""
"","","","","","html-button-response","43","332844","0.0-43.0","56AFE7B42E814473B4ACED9DBDF9FD10","019cf0c7-6c49-7d26-8640-2461163e017b","019cf037-5203-781a-b900-108ccb1cab86","","1657","
                <div class=""stimulus-container"">
                    <img src=""images/schematic_sequence/interview_scheme/interview_scheme_3.png"" class=""exp-image"">
                    <div class=""question-area"">
                        <p style=""font-size: 20px; font-weight: bold; margin: 0;"">Is there a person in this image?</p>
                    </div>
                </div>","1","main_experiment_trial","3","interview_scheme","schematic_sequence","","","","",""
"","","","","","html-keyboard-response","44","337848","0.0-44.0","56AFE7B42E814473B4ACED9DBDF9FD10","019cf0c7-6c49-7d26-8640-2461163e017b","019cf037-5203-781a-b900-108ccb1cab86","","null","
                <div class=""stimulus-container"">
                    <img src=""images/schematic_sequence/interview_scheme/interview_scheme_4.png"" class=""exp-image"">
                    <div class=""question-area""></div> 
                </div>","null","","","","","","","","",""
"","","","","","html-button-response","45","339518","0.0-45.0","56AFE7B42E814473B4ACED9DBDF9FD10","019cf0c7-6c49-7d26-8640-2461163e017b","019cf037-5203-781a-b900-108ccb1cab86","","1668","
                <div class=""stimulus-container"">
                    <img src=""images/schematic_sequence/interview_scheme/interview_scheme_4.png"" class=""exp-image"">
                    <div class=""question-area"">
                        <p style=""font-size: 20px; font-weight: bold; margin: 0;"">Is there a person in this image?</p>
                    </div>
                </div>","1","main_experiment_trial","4","interview_scheme","schematic_sequence","","","","",""
"","","","","","html-keyboard-response","46","344524","0.0-46.0","56AFE7B42E814473B4ACED9DBDF9FD10","019cf0c7-6c49-7d26-8640-2461163e017b","019cf037-5203-781a-b900-108ccb1cab86","","null","
                <div class=""stimulus-container"">
                    <img src=""images/schematic_sequence/interview_scheme/interview_scheme_5.png"" class=""exp-image"">
                    <div class=""question-area""></div> 
                </div>","null","","","","","","","","",""
"","","","","","html-button-response","47","346202","0.0-47.0","56AFE7B42E814473B4ACED9DBDF9FD10","019cf0c7-6c49-7d26-8640-2461163e017b","019cf037-5203-781a-b900-108ccb1cab86","","1676","
                <div class=""stimulus-container"">
                    <img src=""images/schematic_sequence/interview_scheme/interview_scheme_5.png"" class=""exp-image"">
                    <div class=""question-area"">
                        <p style=""font-size: 20px; font-weight: bold; margin: 0;"">Is there a person in this image?</p>
                    </div>
                </div>","0","main_experiment_trial","5","interview_scheme","schematic_sequence","","","","",""
"","","","","","html-keyboard-response","48","351218","0.0-48.0","56AFE7B42E814473B4ACED9DBDF9FD10","019cf0c7-6c49-7d26-8640-2461163e017b","019cf037-5203-781a-b900-108ccb1cab86","","null","
                <div class=""stimulus-container"">
                    <img src=""images/schematic_sequence/interview_scheme/interview_scheme_6.png"" class=""exp-image"">
                    <div class=""question-area""></div> 
                </div>","null","","","","","","","","",""
"","","","","","html-button-response","49","352843","0.0-49.0","56AFE7B42E814473B4ACED9DBDF9FD10","019cf0c7-6c49-7d26-8640-2461163e017b","019cf037-5203-781a-b900-108ccb1cab86","","1623","
                <div class=""stimulus-container"">
                    <img src=""images/schematic_sequence/interview_scheme/interview_scheme_6.png"" class=""exp-image"">
                    <div class=""question-area"">
                        <p style=""font-size: 20px; font-weight: bold; margin: 0;"">Is there a person in this image?</p>
                    </div>
                </div>","1","main_experiment_trial","6","interview_scheme","schematic_sequence","","","","",""
"","","","","","html-keyboard-response","50","357850","0.0-50.0","56AFE7B42E814473B4ACED9DBDF9FD10","019cf0c7-6c49-7d26-8640-2461163e017b","019cf037-5203-781a-b900-108ccb1cab86","","null","
                <div class=""stimulus-container"">
                    <img src=""images/schematic_sequence/interview_scheme/interview_scheme_7.png"" class=""exp-image"">
                    <div class=""question-area""></div> 
                </div>","null","","","","","","","","",""
"","","","","","html-button-response","51","359159","0.0-51.0","56AFE7B42E814473B4ACED9DBDF9FD10","019cf0c7-6c49-7d26-8640-2461163e017b","019cf037-5203-781a-b900-108ccb1cab86","","1308","
                <div class=""stimulus-container"">
                    <img src=""images/schematic_sequence/interview_scheme/interview_scheme_7.png"" class=""exp-image"">
                    <div class=""question-area"">
                        <p style=""font-size: 20px; font-weight: bold; margin: 0;"">Is there a person in this image?</p>
                    </div>
                </div>","0","main_experiment_trial","7","interview_scheme","schematic_sequence","","","","",""
"","","","","","html-keyboard-response","52","364167","0.0-52.0","56AFE7B42E814473B4ACED9DBDF9FD10","019cf0c7-6c49-7d26-8640-2461163e017b","019cf037-5203-781a-b900-108ccb1cab86","","null","
                <div class=""stimulus-container"">
                    <img src=""images/schematic_sequence/interview_scheme/interview_scheme_8.png"" class=""exp-image"">
                    <div class=""question-area""></div> 
                </div>","null","","","","","","","","",""
"","","","","","html-button-response","53","365667","0.0-53.0","56AFE7B42E814473B4ACED9DBDF9FD10","019cf0c7-6c49-7d26-8640-2461163e017b","019cf037-5203-781a-b900-108ccb1cab86","","1498","
                <div class=""stimulus-container"">
                    <img src=""images/schematic_sequence/interview_scheme/interview_scheme_8.png"" class=""exp-image"">
                    <div class=""question-area"">
                        <p style=""font-size: 20px; font-weight: bold; margin: 0;"">Is there a person in this image?</p>
                    </div>
                </div>","1","main_experiment_trial","8","interview_scheme","schematic_sequence","","","","",""
"","","","","","html-keyboard-response","54","370676","0.0-54.0","56AFE7B42E814473B4ACED9DBDF9FD10","019cf0c7-6c49-7d26-8640-2461163e017b","019cf037-5203-781a-b900-108ccb1cab86","","null","
                <div class=""stimulus-container"">
                    <img src=""images/schematic_sequence/interview_scheme/interview_scheme_9.png"" class=""exp-image"">
                    <div class=""question-area""></div> 
                </div>","null","","","","","","","","",""
"","","","","","html-button-response","55","373225","0.0-55.0","56AFE7B42E814473B4ACED9DBDF9FD10","019cf0c7-6c49-7d26-8640-2461163e017b","019cf037-5203-781a-b900-108ccb1cab86","","2547","
                <div class=""stimulus-container"">
                    <img src=""images/schematic_sequence/interview_scheme/interview_scheme_9.png"" class=""exp-image"">
                    <div class=""question-area"">
                        <p style=""font-size: 20px; font-weight: bold; margin: 0;"">Is there a person in this image?</p>
                    </div>
                </div>","1","main_experiment_trial","9","interview_scheme","schematic_sequence","","","","",""
"","","","","","html-keyboard-response","56","378239","0.0-56.0","56AFE7B42E814473B4ACED9DBDF9FD10","019cf0c7-6c49-7d26-8640-2461163e017b","019cf037-5203-781a-b900-108ccb1cab86","","null","
                <div class=""stimulus-container"">
                    <img src=""images/schematic_sequence/interview_scheme/interview_scheme_ten.png"" class=""exp-image"">
                    <div class=""question-area""></div> 
                </div>","null","","","","","","","","",""
"","","","","","html-button-response","57","381247","0.0-57.0","56AFE7B42E814473B4ACED9DBDF9FD10","019cf0c7-6c49-7d26-8640-2461163e017b","019cf037-5203-781a-b900-108ccb1cab86","","null","
                <div class=""stimulus-container"">
                    <img src=""images/schematic_sequence/interview_scheme/interview_scheme_ten.png"" class=""exp-image"">
                    <div class=""question-area"">
                        <p style=""font-size: 20px; font-weight: bold; margin: 0;"">Is there a person in this image?</p>
                    </div>
                </div>","null","main_experiment_trial","ten","interview_scheme","schematic_sequence","","","","",""
"","","","","","html-keyboard-response","58","382253","0.0-58.0","56AFE7B42E814473B4ACED9DBDF9FD10","019cf0c7-6c49-7d26-8640-2461163e017b","019cf037-5203-781a-b900-108ccb1cab86","","null","<div style=""background-color: white; width: 100vw; height: 100vh;""></div>","null","","","","","","","","",""
"","","","","","html-keyboard-response","59","387261","0.0-59.0","56AFE7B42E814473B4ACED9DBDF9FD10","019cf0c7-6c49-7d26-8640-2461163e017b","019cf037-5203-781a-b900-108ccb1cab86","","null","
                <div class=""stimulus-container"">
                    <img src=""images/schematic_sequence/flight_scheme/flight_scheme_1.png"" class=""exp-image"">
                    <div class=""question-area""></div> 
                </div>","null","","","","","","","","",""
"","","","","","html-button-response","60","388982","0.0-60.0","56AFE7B42E814473B4ACED9DBDF9FD10","019cf0c7-6c49-7d26-8640-2461163e017b","019cf037-5203-781a-b900-108ccb1cab86","","1719","
                <div class=""stimulus-container"">
                    <img src=""images/schematic_sequence/flight_scheme/flight_scheme_1.png"" class=""exp-image"">
                    <div class=""question-area"">
                        <p style=""font-size: 20px; font-weight: bold; margin: 0;"">Is there a person in this image?</p>
                    </div>
                </div>","1","main_experiment_trial","1","flight_scheme","schematic_sequence","","","","",""
"","","","","","html-keyboard-response","61","393986","0.0-61.0","56AFE7B42E814473B4ACED9DBDF9FD10","019cf0c7-6c49-7d26-8640-2461163e017b","019cf037-5203-781a-b900-108ccb1cab86","","null","
                <div class=""stimulus-container"">
                    <img src=""images/schematic_sequence/flight_scheme/flight_scheme_2.png"" class=""exp-image"">
                    <div class=""question-area""></div> 
                </div>","null","","","","","","","","",""
"","","","","","html-button-response","62","395717","0.0-62.0","56AFE7B42E814473B4ACED9DBDF9FD10","019cf0c7-6c49-7d26-8640-2461163e017b","019cf037-5203-781a-b900-108ccb1cab86","","1729","
                <div class=""stimulus-container"">
                    <img src=""images/schematic_sequence/flight_scheme/flight_scheme_2.png"" class=""exp-image"">
                    <div class=""question-area"">
                        <p style=""font-size: 20px; font-weight: bold; margin: 0;"">Is there a person in this image?</p>
                    </div>
                </div>","1","main_experiment_trial","2","flight_scheme","schematic_sequence","","","","",""
"","","","","","html-keyboard-response","63","400730","0.0-63.0","56AFE7B42E814473B4ACED9DBDF9FD10","019cf0c7-6c49-7d26-8640-2461163e017b","019cf037-5203-781a-b900-108ccb1cab86","","null","
                <div class=""stimulus-container"">
                    <img src=""images/schematic_sequence/flight_scheme/flight_scheme_3.png"" class=""exp-image"">
                    <div class=""question-area""></div> 
                </div>","null","","","","","","","","",""
"","","","","","html-button-response","64","402924","0.0-64.0","56AFE7B42E814473B4ACED9DBDF9FD10","019cf0c7-6c49-7d26-8640-2461163e017b","019cf037-5203-781a-b900-108ccb1cab86","","2192","
                <div class=""stimulus-container"">
                    <img src=""images/schematic_sequence/flight_scheme/flight_scheme_3.png"" class=""exp-image"">
                    <div class=""question-area"">
                        <p style=""font-size: 20px; font-weight: bold; margin: 0;"">Is there a person in this image?</p>
                    </div>
                </div>","1","main_experiment_trial","3","flight_scheme","schematic_sequence","","","","",""
"","","","","","html-keyboard-response","65","407927","0.0-65.0","56AFE7B42E814473B4ACED9DBDF9FD10","019cf0c7-6c49-7d26-8640-2461163e017b","019cf037-5203-781a-b900-108ccb1cab86","","null","
                <div class=""stimulus-container"">
                    <img src=""images/schematic_sequence/flight_scheme/flight_scheme_4.png"" class=""exp-image"">
                    <div class=""question-area""></div> 
                </div>","null","","","","","","","","",""
"","","","","","html-button-response","66","409590","0.0-66.0","56AFE7B42E814473B4ACED9DBDF9FD10","019cf0c7-6c49-7d26-8640-2461163e017b","019cf037-5203-781a-b900-108ccb1cab86","","1662","
                <div class=""stimulus-container"">
                    <img src=""images/schematic_sequence/flight_scheme/flight_scheme_4.png"" class=""exp-image"">
                    <div class=""question-area"">
                        <p style=""font-size: 20px; font-weight: bold; margin: 0;"">Is there a person in this image?</p>
                    </div>
                </div>","1","main_experiment_trial","4","flight_scheme","schematic_sequence","","","","",""
"","","","","","html-keyboard-response","67","414603","0.0-67.0","56AFE7B42E814473B4ACED9DBDF9FD10","019cf0c7-6c49-7d26-8640-2461163e017b","019cf037-5203-781a-b900-108ccb1cab86","","null","
                <div class=""stimulus-container"">
                    <img src=""images/schematic_sequence/flight_scheme/flight_scheme_5.png"" class=""exp-image"">
                    <div class=""question-area""></div> 
                </div>","null","","","","","","","","",""
"","","","","","html-button-response","68","416000","0.0-68.0","56AFE7B42E814473B4ACED9DBDF9FD10","019cf0c7-6c49-7d26-8640-2461163e017b","019cf037-5203-781a-b900-108ccb1cab86","","1396","
                <div class=""stimulus-container"">
                    <img src=""images/schematic_sequence/flight_scheme/flight_scheme_5.png"" class=""exp-image"">
                    <div class=""question-area"">
                        <p style=""font-size: 20px; font-weight: bold; margin: 0;"">Is there a person in this image?</p>
                    </div>
                </div>","1","main_experiment_trial","5","flight_scheme","schematic_sequence","","","","",""
"","","","","","html-keyboard-response","69","421014","0.0-69.0","56AFE7B42E814473B4ACED9DBDF9FD10","019cf0c7-6c49-7d26-8640-2461163e017b","019cf037-5203-781a-b900-108ccb1cab86","","null","
                <div class=""stimulus-container"">
                    <img src=""images/schematic_sequence/flight_scheme/flight_scheme_6.png"" class=""exp-image"">
                    <div class=""question-area""></div> 
                </div>","null","","","","","","","","",""
"","","","","","html-button-response","70","422581","0.0-70.0","56AFE7B42E814473B4ACED9DBDF9FD10","019cf0c7-6c49-7d26-8640-2461163e017b","019cf037-5203-781a-b900-108ccb1cab86","","1565","
                <div class=""stimulus-container"">
                    <img src=""images/schematic_sequence/flight_scheme/flight_scheme_6.png"" class=""exp-image"">
                    <div class=""question-area"">
                        <p style=""font-size: 20px; font-weight: bold; margin: 0;"">Is there a person in this image?</p>
                    </div>
                </div>","1","main_experiment_trial","6","flight_scheme","schematic_sequence","","","","",""
"","","","","","html-keyboard-response","71","427585","0.0-71.0","56AFE7B42E814473B4ACED9DBDF9FD10","019cf0c7-6c49-7d26-8640-2461163e017b","019cf037-5203-781a-b900-108ccb1cab86","","null","
                <div class=""stimulus-container"">
                    <img src=""images/schematic_sequence/flight_scheme/flight_scheme_7.png"" class=""exp-image"">
                    <div class=""question-area""></div> 
                </div>","null","","","","","","","","",""
"","","","","","html-button-response","72","430602","0.0-72.0","56AFE7B42E814473B4ACED9DBDF9FD10","019cf0c7-6c49-7d26-8640-2461163e017b","019cf037-5203-781a-b900-108ccb1cab86","","null","
                <div class=""stimulus-container"">
                    <img src=""images/schematic_sequence/flight_scheme/flight_scheme_7.png"" class=""exp-image"">
                    <div class=""question-area"">
                        <p style=""font-size: 20px; font-weight: bold; margin: 0;"">Is there a person in this image?</p>
                    </div>
                </div>","null","main_experiment_trial","7","flight_scheme","schematic_sequence","","","","",""
"","","","","","html-keyboard-response","73","435609","0.0-73.0","56AFE7B42E814473B4ACED9DBDF9FD10","019cf0c7-6c49-7d26-8640-2461163e017b","019cf037-5203-781a-b900-108ccb1cab86","","null","
                <div class=""stimulus-container"">
                    <img src=""images/schematic_sequence/flight_scheme/flight_scheme_8.png"" class=""exp-image"">
                    <div class=""question-area""></div> 
                </div>","null","","","","","","","","",""
"","","","","","html-button-response","74","437372","0.0-74.0","56AFE7B42E814473B4ACED9DBDF9FD10","019cf0c7-6c49-7d26-8640-2461163e017b","019cf037-5203-781a-b900-108ccb1cab86","","1761","
                <div class=""stimulus-container"">
                    <img src=""images/schematic_sequence/flight_scheme/flight_scheme_8.png"" class=""exp-image"">
                    <div class=""question-area"">
                        <p style=""font-size: 20px; font-weight: bold; margin: 0;"">Is there a person in this image?</p>
                    </div>
                </div>","1","main_experiment_trial","8","flight_scheme","schematic_sequence","","","","",""
"","","","","","html-keyboard-response","75","442378","0.0-75.0","56AFE7B42E814473B4ACED9DBDF9FD10","019cf0c7-6c49-7d26-8640-2461163e017b","019cf037-5203-781a-b900-108ccb1cab86","","null","
                <div class=""stimulus-container"">
                    <img src=""images/schematic_sequence/flight_scheme/flight_scheme_9.png"" class=""exp-image"">
                    <div class=""question-area""></div> 
                </div>","null","","","","","","","","",""
"","","","","","html-button-response","76","444164","0.0-76.0","56AFE7B42E814473B4ACED9DBDF9FD10","019cf0c7-6c49-7d26-8640-2461163e017b","019cf037-5203-781a-b900-108ccb1cab86","","1785","
                <div class=""stimulus-container"">
                    <img src=""images/schematic_sequence/flight_scheme/flight_scheme_9.png"" class=""exp-image"">
                    <div class=""question-area"">
                        <p style=""font-size: 20px; font-weight: bold; margin: 0;"">Is there a person in this image?</p>
                    </div>
                </div>","1","main_experiment_trial","9","flight_scheme","schematic_sequence","","","","",""
"","","","","","html-keyboard-response","77","449166","0.0-77.0","56AFE7B42E814473B4ACED9DBDF9FD10","019cf0c7-6c49-7d26-8640-2461163e017b","019cf037-5203-781a-b900-108ccb1cab86","","null","
                <div class=""stimulus-container"">
                    <img src=""images/schematic_sequence/flight_scheme/flight_scheme_ten.png"" class=""exp-image"">
                    <div class=""question-area""></div> 
                </div>","null","","","","","","","","",""
"","","","","","html-button-response","78","450412","0.0-78.0","56AFE7B42E814473B4ACED9DBDF9FD10","019cf0c7-6c49-7d26-8640-2461163e017b","019cf037-5203-781a-b900-108ccb1cab86","","1245","
                <div class=""stimulus-container"">
                    <img src=""images/schematic_sequence/flight_scheme/flight_scheme_ten.png"" class=""exp-image"">
                    <div class=""question-area"">
                        <p style=""font-size: 20px; font-weight: bold; margin: 0;"">Is there a person in this image?</p>
                    </div>
                </div>","1","main_experiment_trial","ten","flight_scheme","schematic_sequence","","","","",""
"","","","","","html-keyboard-response","79","451418","0.0-79.0","56AFE7B42E814473B4ACED9DBDF9FD10","019cf0c7-6c49-7d26-8640-2461163e017b","019cf037-5203-781a-b900-108ccb1cab86","","null","<div style=""background-color: white; width: 100vw; height: 100vh;""></div>","null","","","","","","","","",""
"","","","","","html-keyboard-response","80","456432","0.0-80.0","56AFE7B42E814473B4ACED9DBDF9FD10","019cf0c7-6c49-7d26-8640-2461163e017b","019cf037-5203-781a-b900-108ccb1cab86","","null","
                <div class=""stimulus-container"">
                    <img src=""images/causal_sequence/saving_a_cat_causal/saving_a_cat_causal_1.png"" class=""exp-image"">
                    <div class=""question-area""></div> 
                </div>","null","","","","","","","","",""
"","","","","","html-button-response","81","458063","0.0-81.0","56AFE7B42E814473B4ACED9DBDF9FD10","019cf0c7-6c49-7d26-8640-2461163e017b","019cf037-5203-781a-b900-108ccb1cab86","","1629","
                <div class=""stimulus-container"">
                    <img src=""images/causal_sequence/saving_a_cat_causal/saving_a_cat_causal_1.png"" class=""exp-image"">
                    <div class=""question-area"">
                        <p style=""font-size: 20px; font-weight: bold; margin: 0;"">Is there a person in this image?</p>
                    </div>
                </div>","0","main_experiment_trial","1","saving_a_cat_causal","causal_sequence","","","","",""
"","","","","","html-keyboard-response","82","463065","0.0-82.0","56AFE7B42E814473B4ACED9DBDF9FD10","019cf0c7-6c49-7d26-8640-2461163e017b","019cf037-5203-781a-b900-108ccb1cab86","","null","
                <div class=""stimulus-container"">
                    <img src=""images/causal_sequence/saving_a_cat_causal/saving_a_cat_causal_2.png"" class=""exp-image"">
                    <div class=""question-area""></div> 
                </div>","null","","","","","","","","",""
"","","","","","html-button-response","83","464970","0.0-83.0","56AFE7B42E814473B4ACED9DBDF9FD10","019cf0c7-6c49-7d26-8640-2461163e017b","019cf037-5203-781a-b900-108ccb1cab86","","1903","
                <div class=""stimulus-container"">
                    <img src=""images/causal_sequence/saving_a_cat_causal/saving_a_cat_causal_2.png"" class=""exp-image"">
                    <div class=""question-area"">
                        <p style=""font-size: 20px; font-weight: bold; margin: 0;"">Is there a person in this image?</p>
                    </div>
                </div>","1","main_experiment_trial","2","saving_a_cat_causal","causal_sequence","","","","",""
"","","","","","html-keyboard-response","84","469985","0.0-84.0","56AFE7B42E814473B4ACED9DBDF9FD10","019cf0c7-6c49-7d26-8640-2461163e017b","019cf037-5203-781a-b900-108ccb1cab86","","null","
                <div class=""stimulus-container"">
                    <img src=""images/causal_sequence/saving_a_cat_causal/saving_a_cat_causal_3.png"" class=""exp-image"">
                    <div class=""question-area""></div> 
                </div>","null","","","","","","","","",""
"","","","","","html-button-response","85","471562","0.0-85.0","56AFE7B42E814473B4ACED9DBDF9FD10","019cf0c7-6c49-7d26-8640-2461163e017b","019cf037-5203-781a-b900-108ccb1cab86","","1576","
                <div class=""stimulus-container"">
                    <img src=""images/causal_sequence/saving_a_cat_causal/saving_a_cat_causal_3.png"" class=""exp-image"">
                    <div class=""question-area"">
                        <p style=""font-size: 20px; font-weight: bold; margin: 0;"">Is there a person in this image?</p>
                    </div>
                </div>","1","main_experiment_trial","3","saving_a_cat_causal","causal_sequence","","","","",""
"","","","","","html-keyboard-response","86","476572","0.0-86.0","56AFE7B42E814473B4ACED9DBDF9FD10","019cf0c7-6c49-7d26-8640-2461163e017b","019cf037-5203-781a-b900-108ccb1cab86","","null","
                <div class=""stimulus-container"">
                    <img src=""images/causal_sequence/saving_a_cat_causal/saving_a_cat_causal_4.png"" class=""exp-image"">
                    <div class=""question-area""></div> 
                </div>","null","","","","","","","","",""
"","","","","","html-button-response","87","478438","0.0-87.0","56AFE7B42E814473B4ACED9DBDF9FD10","019cf0c7-6c49-7d26-8640-2461163e017b","019cf037-5203-781a-b900-108ccb1cab86","","1864","
                <div class=""stimulus-container"">
                    <img src=""images/causal_sequence/saving_a_cat_causal/saving_a_cat_causal_4.png"" class=""exp-image"">
                    <div class=""question-area"">
                        <p style=""font-size: 20px; font-weight: bold; margin: 0;"">Is there a person in this image?</p>
                    </div>
                </div>","0","main_experiment_trial","4","saving_a_cat_causal","causal_sequence","","","","",""
"","","","","","html-keyboard-response","88","483442","0.0-88.0","56AFE7B42E814473B4ACED9DBDF9FD10","019cf0c7-6c49-7d26-8640-2461163e017b","019cf037-5203-781a-b900-108ccb1cab86","","null","
                <div class=""stimulus-container"">
                    <img src=""images/causal_sequence/saving_a_cat_causal/saving_a_cat_causal_5.png"" class=""exp-image"">
                    <div class=""question-area""></div> 
                </div>","null","","","","","","","","",""
"","","","","","html-button-response","89","485279","0.0-89.0","56AFE7B42E814473B4ACED9DBDF9FD10","019cf0c7-6c49-7d26-8640-2461163e017b","019cf037-5203-781a-b900-108ccb1cab86","","1836","
                <div class=""stimulus-container"">
                    <img src=""images/causal_sequence/saving_a_cat_causal/saving_a_cat_causal_5.png"" class=""exp-image"">
                    <div class=""question-area"">
                        <p style=""font-size: 20px; font-weight: bold; margin: 0;"">Is there a person in this image?</p>
                    </div>
                </div>","0","main_experiment_trial","5","saving_a_cat_causal","causal_sequence","","","","",""
"","","","","","html-keyboard-response","90","490295","0.0-90.0","56AFE7B42E814473B4ACED9DBDF9FD10","019cf0c7-6c49-7d26-8640-2461163e017b","019cf037-5203-781a-b900-108ccb1cab86","","null","
                <div class=""stimulus-container"">
                    <img src=""images/causal_sequence/saving_a_cat_causal/saving_a_cat_causal_6.png"" class=""exp-image"">
                    <div class=""question-area""></div> 
                </div>","null","","","","","","","","",""
"","","","","","html-button-response","91","492028","0.0-91.0","56AFE7B42E814473B4ACED9DBDF9FD10","019cf0c7-6c49-7d26-8640-2461163e017b","019cf037-5203-781a-b900-108ccb1cab86","","1732","
                <div class=""stimulus-container"">
                    <img src=""images/causal_sequence/saving_a_cat_causal/saving_a_cat_causal_6.png"" class=""exp-image"">
                    <div class=""question-area"">
                        <p style=""font-size: 20px; font-weight: bold; margin: 0;"">Is there a person in this image?</p>
                    </div>
                </div>","1","main_experiment_trial","6","saving_a_cat_causal","causal_sequence","","","","",""
"","","","","","html-keyboard-response","92","497045","0.0-92.0","56AFE7B42E814473B4ACED9DBDF9FD10","019cf0c7-6c49-7d26-8640-2461163e017b","019cf037-5203-781a-b900-108ccb1cab86","","null","
                <div class=""stimulus-container"">
                    <img src=""images/causal_sequence/saving_a_cat_causal/saving_a_cat_causal_7.png"" class=""exp-image"">
                    <div class=""question-area""></div> 
                </div>","null","","","","","","","","",""
"","","","","","html-button-response","93","498359","0.0-93.0","56AFE7B42E814473B4ACED9DBDF9FD10","019cf0c7-6c49-7d26-8640-2461163e017b","019cf037-5203-781a-b900-108ccb1cab86","","1313","
                <div class=""stimulus-container"">
                    <img src=""images/causal_sequence/saving_a_cat_causal/saving_a_cat_causal_7.png"" class=""exp-image"">
                    <div class=""question-area"">
                        <p style=""font-size: 20px; font-weight: bold; margin: 0;"">Is there a person in this image?</p>
                    </div>
                </div>","1","main_experiment_trial","7","saving_a_cat_causal","causal_sequence","","","","",""
"","","","","","html-keyboard-response","94","503364","0.0-94.0","56AFE7B42E814473B4ACED9DBDF9FD10","019cf0c7-6c49-7d26-8640-2461163e017b","019cf037-5203-781a-b900-108ccb1cab86","","null","
                <div class=""stimulus-container"">
                    <img src=""images/causal_sequence/saving_a_cat_causal/saving_a_cat_causal_8.png"" class=""exp-image"">
                    <div class=""question-area""></div> 
                </div>","null","","","","","","","","",""
"","","","","","html-button-response","95","505594","0.0-95.0","56AFE7B42E814473B4ACED9DBDF9FD10","019cf0c7-6c49-7d26-8640-2461163e017b","019cf037-5203-781a-b900-108ccb1cab86","","2229","
                <div class=""stimulus-container"">
                    <img src=""images/causal_sequence/saving_a_cat_causal/saving_a_cat_causal_8.png"" class=""exp-image"">
                    <div class=""question-area"">
                        <p style=""font-size: 20px; font-weight: bold; margin: 0;"">Is there a person in this image?</p>
                    </div>
                </div>","1","main_experiment_trial","8","saving_a_cat_causal","causal_sequence","","","","",""
"","","","","","html-keyboard-response","96","510603","0.0-96.0","56AFE7B42E814473B4ACED9DBDF9FD10","019cf0c7-6c49-7d26-8640-2461163e017b","019cf037-5203-781a-b900-108ccb1cab86","","null","
                <div class=""stimulus-container"">
                    <img src=""images/causal_sequence/saving_a_cat_causal/saving_a_cat_causal_9.png"" class=""exp-image"">
                    <div class=""question-area""></div> 
                </div>","null","","","","","","","","",""
"","","","","","html-button-response","97","512027","0.0-97.0","56AFE7B42E814473B4ACED9DBDF9FD10","019cf0c7-6c49-7d26-8640-2461163e017b","019cf037-5203-781a-b900-108ccb1cab86","","1422","
                <div class=""stimulus-container"">
                    <img src=""images/causal_sequence/saving_a_cat_causal/saving_a_cat_causal_9.png"" class=""exp-image"">
                    <div class=""question-area"">
                        <p style=""font-size: 20px; font-weight: bold; margin: 0;"">Is there a person in this image?</p>
                    </div>
                </div>","0","main_experiment_trial","9","saving_a_cat_causal","causal_sequence","","","","",""
"","","","","","html-keyboard-response","98","517043","0.0-98.0","56AFE7B42E814473B4ACED9DBDF9FD10","019cf0c7-6c49-7d26-8640-2461163e017b","019cf037-5203-781a-b900-108ccb1cab86","","null","
                <div class=""stimulus-container"">
                    <img src=""images/causal_sequence/saving_a_cat_causal/saving_a_cat_causal_ten.png"" class=""exp-image"">
                    <div class=""question-area""></div> 
                </div>","null","","","","","","","","",""
"","","","","","html-button-response","99","519351","0.0-99.0","56AFE7B42E814473B4ACED9DBDF9FD10","019cf0c7-6c49-7d26-8640-2461163e017b","019cf037-5203-781a-b900-108ccb1cab86","","2306","
                <div class=""stimulus-container"">
                    <img src=""images/causal_sequence/saving_a_cat_causal/saving_a_cat_causal_ten.png"" class=""exp-image"">
                    <div class=""question-area"">
                        <p style=""font-size: 20px; font-weight: bold; margin: 0;"">Is there a person in this image?</p>
                    </div>
                </div>","0","main_experiment_trial","ten","saving_a_cat_causal","causal_sequence","","","","",""
"","","","","","html-keyboard-response","100","520359","0.0-100.0","56AFE7B42E814473B4ACED9DBDF9FD10","019cf0c7-6c49-7d26-8640-2461163e017b","019cf037-5203-781a-b900-108ccb1cab86","","null","<div style=""background-color: white; width: 100vw; height: 100vh;""></div>","null","","","","","","","","",""
"","","","","","html-keyboard-response","101","525363","0.0-101.0","56AFE7B42E814473B4ACED9DBDF9FD10","019cf0c7-6c49-7d26-8640-2461163e017b","019cf037-5203-781a-b900-108ccb1cab86","","null","
                <div class=""stimulus-container"">
                    <img src=""images/causal_sequence/dog_causal/dog_causal_1.png"" class=""exp-image"">
                    <div class=""question-area""></div> 
                </div>","null","","","","","","","","",""
"","","","","","html-button-response","102","526797","0.0-102.0","56AFE7B42E814473B4ACED9DBDF9FD10","019cf0c7-6c49-7d26-8640-2461163e017b","019cf037-5203-781a-b900-108ccb1cab86","","1432","
                <div class=""stimulus-container"">
                    <img src=""images/causal_sequence/dog_causal/dog_causal_1.png"" class=""exp-image"">
                    <div class=""question-area"">
                        <p style=""font-size: 20px; font-weight: bold; margin: 0;"">Is there a person in this image?</p>
                    </div>
                </div>","0","main_experiment_trial","1","dog_causal","causal_sequence","","","","",""
"","","","","","html-keyboard-response","103","531803","0.0-103.0","56AFE7B42E814473B4ACED9DBDF9FD10","019cf0c7-6c49-7d26-8640-2461163e017b","019cf037-5203-781a-b900-108ccb1cab86","","null","
                <div class=""stimulus-container"">
                    <img src=""images/causal_sequence/dog_causal/dog_causal_2.png"" class=""exp-image"">
                    <div class=""question-area""></div> 
                </div>","null","","","","","","","","",""
"","","","","","html-button-response","104","534814","0.0-104.0","56AFE7B42E814473B4ACED9DBDF9FD10","019cf0c7-6c49-7d26-8640-2461163e017b","019cf037-5203-781a-b900-108ccb1cab86","","null","
                <div class=""stimulus-container"">
                    <img src=""images/causal_sequence/dog_causal/dog_causal_2.png"" class=""exp-image"">
                    <div class=""question-area"">
                        <p style=""font-size: 20px; font-weight: bold; margin: 0;"">Is there a person in this image?</p>
                    </div>
                </div>","null","main_experiment_trial","2","dog_causal","causal_sequence","","","","",""
"","","","","","html-keyboard-response","105","539830","0.0-105.0","56AFE7B42E814473B4ACED9DBDF9FD10","019cf0c7-6c49-7d26-8640-2461163e017b","019cf037-5203-781a-b900-108ccb1cab86","","null","
                <div class=""stimulus-container"">
                    <img src=""images/causal_sequence/dog_causal/dog_causal_3.png"" class=""exp-image"">
                    <div class=""question-area""></div> 
                </div>","null","","","","","","","","",""
"","","","","","html-button-response","106","542837","0.0-106.0","56AFE7B42E814473B4ACED9DBDF9FD10","019cf0c7-6c49-7d26-8640-2461163e017b","019cf037-5203-781a-b900-108ccb1cab86","","null","
                <div class=""stimulus-container"">
                    <img src=""images/causal_sequence/dog_causal/dog_causal_3.png"" class=""exp-image"">
                    <div class=""question-area"">
                        <p style=""font-size: 20px; font-weight: bold; margin: 0;"">Is there a person in this image?</p>
                    </div>
                </div>","null","main_experiment_trial","3","dog_causal","causal_sequence","","","","",""
"","","","","","html-keyboard-response","107","547841","0.0-107.0","56AFE7B42E814473B4ACED9DBDF9FD10","019cf0c7-6c49-7d26-8640-2461163e017b","019cf037-5203-781a-b900-108ccb1cab86","","null","
                <div class=""stimulus-container"">
                    <img src=""images/causal_sequence/dog_causal/dog_causal_4.png"" class=""exp-image"">
                    <div class=""question-area""></div> 
                </div>","null","","","","","","","","",""
"","","","","","html-button-response","108","549409","0.0-108.0","56AFE7B42E814473B4ACED9DBDF9FD10","019cf0c7-6c49-7d26-8640-2461163e017b","019cf037-5203-781a-b900-108ccb1cab86","","1566","
                <div class=""stimulus-container"">
                    <img src=""images/causal_sequence/dog_causal/dog_causal_4.png"" class=""exp-image"">
                    <div class=""question-area"">
                        <p style=""font-size: 20px; font-weight: bold; margin: 0;"">Is there a person in this image?</p>
                    </div>
                </div>","0","main_experiment_trial","4","dog_causal","causal_sequence","","","","",""
"","","","","","html-keyboard-response","109","554412","0.0-109.0","56AFE7B42E814473B4ACED9DBDF9FD10","019cf0c7-6c49-7d26-8640-2461163e017b","019cf037-5203-781a-b900-108ccb1cab86","","null","
                <div class=""stimulus-container"">
                    <img src=""images/causal_sequence/dog_causal/dog_causal_5.png"" class=""exp-image"">
                    <div class=""question-area""></div> 
                </div>","null","","","","","","","","",""
"","","","","","html-button-response","110","556009","0.0-110.0","56AFE7B42E814473B4ACED9DBDF9FD10","019cf0c7-6c49-7d26-8640-2461163e017b","019cf037-5203-781a-b900-108ccb1cab86","","1595","
                <div class=""stimulus-container"">
                    <img src=""images/causal_sequence/dog_causal/dog_causal_5.png"" class=""exp-image"">
                    <div class=""question-area"">
                        <p style=""font-size: 20px; font-weight: bold; margin: 0;"">Is there a person in this image?</p>
                    </div>
                </div>","0","main_experiment_trial","5","dog_causal","causal_sequence","","","","",""
"","","","","","html-keyboard-response","111","561011","0.0-111.0","56AFE7B42E814473B4ACED9DBDF9FD10","019cf0c7-6c49-7d26-8640-2461163e017b","019cf037-5203-781a-b900-108ccb1cab86","","null","
                <div class=""stimulus-container"">
                    <img src=""images/causal_sequence/dog_causal/dog_causal_6.png"" class=""exp-image"">
                    <div class=""question-area""></div> 
                </div>","null","","","","","","","","",""
"","","","","","html-button-response","112","562449","0.0-112.0","56AFE7B42E814473B4ACED9DBDF9FD10","019cf0c7-6c49-7d26-8640-2461163e017b","019cf037-5203-781a-b900-108ccb1cab86","","1436","
                <div class=""stimulus-container"">
                    <img src=""images/causal_sequence/dog_causal/dog_causal_6.png"" class=""exp-image"">
                    <div class=""question-area"">
                        <p style=""font-size: 20px; font-weight: bold; margin: 0;"">Is there a person in this image?</p>
                    </div>
                </div>","1","main_experiment_trial","6","dog_causal","causal_sequence","","","","",""
"","","","","","html-keyboard-response","113","567454","0.0-113.0","56AFE7B42E814473B4ACED9DBDF9FD10","019cf0c7-6c49-7d26-8640-2461163e017b","019cf037-5203-781a-b900-108ccb1cab86","","null","
                <div class=""stimulus-container"">
                    <img src=""images/causal_sequence/dog_causal/dog_causal_7.png"" class=""exp-image"">
                    <div class=""question-area""></div> 
                </div>","null","","","","","","","","",""
"","","","","","html-button-response","114","570456","0.0-114.0","56AFE7B42E814473B4ACED9DBDF9FD10","019cf0c7-6c49-7d26-8640-2461163e017b","019cf037-5203-781a-b900-108ccb1cab86","","null","
                <div class=""stimulus-container"">
                    <img src=""images/causal_sequence/dog_causal/dog_causal_7.png"" class=""exp-image"">
                    <div class=""question-area"">
                        <p style=""font-size: 20px; font-weight: bold; margin: 0;"">Is there a person in this image?</p>
                    </div>
                </div>","null","main_experiment_trial","7","dog_causal","causal_sequence","","","","",""
"","","","","","html-keyboard-response","115","575458","0.0-115.0","56AFE7B42E814473B4ACED9DBDF9FD10","019cf0c7-6c49-7d26-8640-2461163e017b","019cf037-5203-781a-b900-108ccb1cab86","","null","
                <div class=""stimulus-container"">
                    <img src=""images/causal_sequence/dog_causal/dog_causal_8.png"" class=""exp-image"">
                    <div class=""question-area""></div> 
                </div>","null","","","","","","","","",""
"","","","","","html-button-response","116","576750","0.0-116.0","56AFE7B42E814473B4ACED9DBDF9FD10","019cf0c7-6c49-7d26-8640-2461163e017b","019cf037-5203-781a-b900-108ccb1cab86","","1290","
                <div class=""stimulus-container"">
                    <img src=""images/causal_sequence/dog_causal/dog_causal_8.png"" class=""exp-image"">
                    <div class=""question-area"">
                        <p style=""font-size: 20px; font-weight: bold; margin: 0;"">Is there a person in this image?</p>
                    </div>
                </div>","1","main_experiment_trial","8","dog_causal","causal_sequence","","","","",""
"","","","","","html-keyboard-response","117","581756","0.0-117.0","56AFE7B42E814473B4ACED9DBDF9FD10","019cf0c7-6c49-7d26-8640-2461163e017b","019cf037-5203-781a-b900-108ccb1cab86","","null","
                <div class=""stimulus-container"">
                    <img src=""images/causal_sequence/dog_causal/dog_causal_9.png"" class=""exp-image"">
                    <div class=""question-area""></div> 
                </div>","null","","","","","","","","",""
"","","","","","html-button-response","118","583123","0.0-118.0","56AFE7B42E814473B4ACED9DBDF9FD10","019cf0c7-6c49-7d26-8640-2461163e017b","019cf037-5203-781a-b900-108ccb1cab86","","1366","
                <div class=""stimulus-container"">
                    <img src=""images/causal_sequence/dog_causal/dog_causal_9.png"" class=""exp-image"">
                    <div class=""question-area"">
                        <p style=""font-size: 20px; font-weight: bold; margin: 0;"">Is there a person in this image?</p>
                    </div>
                </div>","0","main_experiment_trial","9","dog_causal","causal_sequence","","","","",""
"","","","","","html-keyboard-response","119","588135","0.0-119.0","56AFE7B42E814473B4ACED9DBDF9FD10","019cf0c7-6c49-7d26-8640-2461163e017b","019cf037-5203-781a-b900-108ccb1cab86","","null","
                <div class=""stimulus-container"">
                    <img src=""images/causal_sequence/dog_causal/dog_causal_ten.png"" class=""exp-image"">
                    <div class=""question-area""></div> 
                </div>","null","","","","","","","","",""
"","","","","","html-button-response","120","589607","0.0-120.0","56AFE7B42E814473B4ACED9DBDF9FD10","019cf0c7-6c49-7d26-8640-2461163e017b","019cf037-5203-781a-b900-108ccb1cab86","","1470","
                <div class=""stimulus-container"">
                    <img src=""images/causal_sequence/dog_causal/dog_causal_ten.png"" class=""exp-image"">
                    <div class=""question-area"">
                        <p style=""font-size: 20px; font-weight: bold; margin: 0;"">Is there a person in this image?</p>
                    </div>
                </div>","0","main_experiment_trial","ten","dog_causal","causal_sequence","","","","",""
"","","","","","html-keyboard-response","121","590611","0.0-121.0","56AFE7B42E814473B4ACED9DBDF9FD10","019cf0c7-6c49-7d26-8640-2461163e017b","019cf037-5203-781a-b900-108ccb1cab86","","null","<div style=""background-color: white; width: 100vw; height: 100vh;""></div>","null","","","","","","","","",""
"","","","","","html-keyboard-response","122","595625","0.0-122.0","56AFE7B42E814473B4ACED9DBDF9FD10","019cf0c7-6c49-7d26-8640-2461163e017b","019cf037-5203-781a-b900-108ccb1cab86","","null","
                <div class=""stimulus-container"">
                    <img src=""images/schematic_sequence/hotel_scheme/hotel_scheme_1.png"" class=""exp-image"">
                    <div class=""question-area""></div> 
                </div>","null","","","","","","","","",""
"","","","","","html-button-response","123","597273","0.0-123.0","56AFE7B42E814473B4ACED9DBDF9FD10","019cf0c7-6c49-7d26-8640-2461163e017b","019cf037-5203-781a-b900-108ccb1cab86","","1646","
                <div class=""stimulus-container"">
                    <img src=""images/schematic_sequence/hotel_scheme/hotel_scheme_1.png"" class=""exp-image"">
                    <div class=""question-area"">
                        <p style=""font-size: 20px; font-weight: bold; margin: 0;"">Is there a person in this image?</p>
                    </div>
                </div>","1","main_experiment_trial","1","hotel_scheme","schematic_sequence","","","","",""
"","","","","","html-keyboard-response","124","602280","0.0-124.0","56AFE7B42E814473B4ACED9DBDF9FD10","019cf0c7-6c49-7d26-8640-2461163e017b","019cf037-5203-781a-b900-108ccb1cab86","","null","
                <div class=""stimulus-container"">
                    <img src=""images/schematic_sequence/hotel_scheme/hotel_scheme_2.png"" class=""exp-image"">
                    <div class=""question-area""></div> 
                </div>","null","","","","","","","","",""
"","","","","","html-button-response","125","603690","0.0-125.0","56AFE7B42E814473B4ACED9DBDF9FD10","019cf0c7-6c49-7d26-8640-2461163e017b","019cf037-5203-781a-b900-108ccb1cab86","","1408","
                <div class=""stimulus-container"">
                    <img src=""images/schematic_sequence/hotel_scheme/hotel_scheme_2.png"" class=""exp-image"">
                    <div class=""question-area"">
                        <p style=""font-size: 20px; font-weight: bold; margin: 0;"">Is there a person in this image?</p>
                    </div>
                </div>","0","main_experiment_trial","2","hotel_scheme","schematic_sequence","","","","",""
"","","","","","html-keyboard-response","126","608696","0.0-126.0","56AFE7B42E814473B4ACED9DBDF9FD10","019cf0c7-6c49-7d26-8640-2461163e017b","019cf037-5203-781a-b900-108ccb1cab86","","null","
                <div class=""stimulus-container"">
                    <img src=""images/schematic_sequence/hotel_scheme/hotel_scheme_3.png"" class=""exp-image"">
                    <div class=""question-area""></div> 
                </div>","null","","","","","","","","",""
"","","","","","html-button-response","127","610198","0.0-127.0","56AFE7B42E814473B4ACED9DBDF9FD10","019cf0c7-6c49-7d26-8640-2461163e017b","019cf037-5203-781a-b900-108ccb1cab86","","1500","
                <div class=""stimulus-container"">
                    <img src=""images/schematic_sequence/hotel_scheme/hotel_scheme_3.png"" class=""exp-image"">
                    <div class=""question-area"">
                        <p style=""font-size: 20px; font-weight: bold; margin: 0;"">Is there a person in this image?</p>
                    </div>
                </div>","1","main_experiment_trial","3","hotel_scheme","schematic_sequence","","","","",""
"","","","","","html-keyboard-response","128","615202","0.0-128.0","56AFE7B42E814473B4ACED9DBDF9FD10","019cf0c7-6c49-7d26-8640-2461163e017b","019cf037-5203-781a-b900-108ccb1cab86","","null","
                <div class=""stimulus-container"">
                    <img src=""images/schematic_sequence/hotel_scheme/hotel_scheme_4.png"" class=""exp-image"">
                    <div class=""question-area""></div> 
                </div>","null","","","","","","","","",""
"","","","","","html-button-response","129","617848","0.0-129.0","56AFE7B42E814473B4ACED9DBDF9FD10","019cf0c7-6c49-7d26-8640-2461163e017b","019cf037-5203-781a-b900-108ccb1cab86","","2644","
                <div class=""stimulus-container"">
                    <img src=""images/schematic_sequence/hotel_scheme/hotel_scheme_4.png"" class=""exp-image"">
                    <div class=""question-area"">
                        <p style=""font-size: 20px; font-weight: bold; margin: 0;"">Is there a person in this image?</p>
                    </div>
                </div>","1","main_experiment_trial","4","hotel_scheme","schematic_sequence","","","","",""
"","","","","","html-keyboard-response","130","622854","0.0-130.0","56AFE7B42E814473B4ACED9DBDF9FD10","019cf0c7-6c49-7d26-8640-2461163e017b","019cf037-5203-781a-b900-108ccb1cab86","","null","
                <div class=""stimulus-container"">
                    <img src=""images/schematic_sequence/hotel_scheme/hotel_scheme_5.png"" class=""exp-image"">
                    <div class=""question-area""></div> 
                </div>","null","","","","","","","","",""
"","","","","","html-button-response","131","624415","0.0-131.0","56AFE7B42E814473B4ACED9DBDF9FD10","019cf0c7-6c49-7d26-8640-2461163e017b","019cf037-5203-781a-b900-108ccb1cab86","","1559","
                <div class=""stimulus-container"">
                    <img src=""images/schematic_sequence/hotel_scheme/hotel_scheme_5.png"" class=""exp-image"">
                    <div class=""question-area"">
                        <p style=""font-size: 20px; font-weight: bold; margin: 0;"">Is there a person in this image?</p>
                    </div>
                </div>","0","main_experiment_trial","5","hotel_scheme","schematic_sequence","","","","",""
"","","","","","html-keyboard-response","132","629421","0.0-132.0","56AFE7B42E814473B4ACED9DBDF9FD10","019cf0c7-6c49-7d26-8640-2461163e017b","019cf037-5203-781a-b900-108ccb1cab86","","null","
                <div class=""stimulus-container"">
                    <img src=""images/schematic_sequence/hotel_scheme/hotel_scheme_6.png"" class=""exp-image"">
                    <div class=""question-area""></div> 
                </div>","null","","","","","","","","",""
"","","","","","html-button-response","133","630988","0.0-133.0","56AFE7B42E814473B4ACED9DBDF9FD10","019cf0c7-6c49-7d26-8640-2461163e017b","019cf037-5203-781a-b900-108ccb1cab86","","1565","
                <div class=""stimulus-container"">
                    <img src=""images/schematic_sequence/hotel_scheme/hotel_scheme_6.png"" class=""exp-image"">
                    <div class=""question-area"">
                        <p style=""font-size: 20px; font-weight: bold; margin: 0;"">Is there a person in this image?</p>
                    </div>
                </div>","1","main_experiment_trial","6","hotel_scheme","schematic_sequence","","","","",""
"","","","","","html-keyboard-response","134","635995","0.0-134.0","56AFE7B42E814473B4ACED9DBDF9FD10","019cf0c7-6c49-7d26-8640-2461163e017b","019cf037-5203-781a-b900-108ccb1cab86","","null","
                <div class=""stimulus-container"">
                    <img src=""images/schematic_sequence/hotel_scheme/hotel_scheme_7.png"" class=""exp-image"">
                    <div class=""question-area""></div> 
                </div>","null","","","","","","","","",""
"","","","","","html-button-response","135","637630","0.0-135.0","56AFE7B42E814473B4ACED9DBDF9FD10","019cf0c7-6c49-7d26-8640-2461163e017b","019cf037-5203-781a-b900-108ccb1cab86","","1634","
                <div class=""stimulus-container"">
                    <img src=""images/schematic_sequence/hotel_scheme/hotel_scheme_7.png"" class=""exp-image"">
                    <div class=""question-area"">
                        <p style=""font-size: 20px; font-weight: bold; margin: 0;"">Is there a person in this image?</p>
                    </div>
                </div>","0","main_experiment_trial","7","hotel_scheme","schematic_sequence","","","","",""
"","","","","","html-keyboard-response","136","642637","0.0-136.0","56AFE7B42E814473B4ACED9DBDF9FD10","019cf0c7-6c49-7d26-8640-2461163e017b","019cf037-5203-781a-b900-108ccb1cab86","","null","
                <div class=""stimulus-container"">
                    <img src=""images/schematic_sequence/hotel_scheme/hotel_scheme_8.png"" class=""exp-image"">
                    <div class=""question-area""></div> 
                </div>","null","","","","","","","","",""
"","","","","","html-button-response","137","644914","0.0-137.0","56AFE7B42E814473B4ACED9DBDF9FD10","019cf0c7-6c49-7d26-8640-2461163e017b","019cf037-5203-781a-b900-108ccb1cab86","","2275","
                <div class=""stimulus-container"">
                    <img src=""images/schematic_sequence/hotel_scheme/hotel_scheme_8.png"" class=""exp-image"">
                    <div class=""question-area"">
                        <p style=""font-size: 20px; font-weight: bold; margin: 0;"">Is there a person in this image?</p>
                    </div>
                </div>","1","main_experiment_trial","8","hotel_scheme","schematic_sequence","","","","",""
"","","","","","html-keyboard-response","138","649917","0.0-138.0","56AFE7B42E814473B4ACED9DBDF9FD10","019cf0c7-6c49-7d26-8640-2461163e017b","019cf037-5203-781a-b900-108ccb1cab86","","null","
                <div class=""stimulus-container"">
                    <img src=""images/schematic_sequence/hotel_scheme/hotel_scheme_9.png"" class=""exp-image"">
                    <div class=""question-area""></div> 
                </div>","null","","","","","","","","",""
"","","","","","html-button-response","139","651503","0.0-139.0","56AFE7B42E814473B4ACED9DBDF9FD10","019cf0c7-6c49-7d26-8640-2461163e017b","019cf037-5203-781a-b900-108ccb1cab86","","1585","
                <div class=""stimulus-container"">
                    <img src=""images/schematic_sequence/hotel_scheme/hotel_scheme_9.png"" class=""exp-image"">
                    <div class=""question-area"">
                        <p style=""font-size: 20px; font-weight: bold; margin: 0;"">Is there a person in this image?</p>
                    </div>
                </div>","1","main_experiment_trial","9","hotel_scheme","schematic_sequence","","","","",""
"","","","","","html-keyboard-response","140","656507","0.0-140.0","56AFE7B42E814473B4ACED9DBDF9FD10","019cf0c7-6c49-7d26-8640-2461163e017b","019cf037-5203-781a-b900-108ccb1cab86","","null","
                <div class=""stimulus-container"">
                    <img src=""images/schematic_sequence/hotel_scheme/hotel_scheme_ten.png"" class=""exp-image"">
                    <div class=""question-area""></div> 
                </div>","null","","","","","","","","",""
"","","","","","html-button-response","141","658094","0.0-141.0","56AFE7B42E814473B4ACED9DBDF9FD10","019cf0c7-6c49-7d26-8640-2461163e017b","019cf037-5203-781a-b900-108ccb1cab86","","1587","
                <div class=""stimulus-container"">
                    <img src=""images/schematic_sequence/hotel_scheme/hotel_scheme_ten.png"" class=""exp-image"">
                    <div class=""question-area"">
                        <p style=""font-size: 20px; font-weight: bold; margin: 0;"">Is there a person in this image?</p>
                    </div>
                </div>","1","main_experiment_trial","ten","hotel_scheme","schematic_sequence","","","","",""
"","","","","","html-keyboard-response","142","659109","0.0-142.0","56AFE7B42E814473B4ACED9DBDF9FD10","019cf0c7-6c49-7d26-8640-2461163e017b","019cf037-5203-781a-b900-108ccb1cab86","","null","<div style=""background-color: white; width: 100vw; height: 100vh;""></div>","null","","","","","","","","",""
"","","","","","html-keyboard-response","143","664124","0.0-143.0","56AFE7B42E814473B4ACED9DBDF9FD10","019cf0c7-6c49-7d26-8640-2461163e017b","019cf037-5203-781a-b900-108ccb1cab86","","null","
                <div class=""stimulus-container"">
                    <img src=""images/schematic_sequence/restaurant_scheme/restaurant_scheme_1.png"" class=""exp-image"">
                    <div class=""question-area""></div> 
                </div>","null","","","","","","","","",""
"","","","","","html-button-response","144","667028","0.0-144.0","56AFE7B42E814473B4ACED9DBDF9FD10","019cf0c7-6c49-7d26-8640-2461163e017b","019cf037-5203-781a-b900-108ccb1cab86","","2903","
                <div class=""stimulus-container"">
                    <img src=""images/schematic_sequence/restaurant_scheme/restaurant_scheme_1.png"" class=""exp-image"">
                    <div class=""question-area"">
                        <p style=""font-size: 20px; font-weight: bold; margin: 0;"">Is there a person in this image?</p>
                    </div>
                </div>","1","main_experiment_trial","1","restaurant_scheme","schematic_sequence","","","","",""
"","","","","","html-keyboard-response","145","672031","0.0-145.0","56AFE7B42E814473B4ACED9DBDF9FD10","019cf0c7-6c49-7d26-8640-2461163e017b","019cf037-5203-781a-b900-108ccb1cab86","","null","
                <div class=""stimulus-container"">
                    <img src=""images/schematic_sequence/restaurant_scheme/restaurant_scheme_2.png"" class=""exp-image"">
                    <div class=""question-area""></div> 
                </div>","null","","","","","","","","",""
"","","","","","html-button-response","146","674279","0.0-146.0","56AFE7B42E814473B4ACED9DBDF9FD10","019cf0c7-6c49-7d26-8640-2461163e017b","019cf037-5203-781a-b900-108ccb1cab86","","2246","
                <div class=""stimulus-container"">
                    <img src=""images/schematic_sequence/restaurant_scheme/restaurant_scheme_2.png"" class=""exp-image"">
                    <div class=""question-area"">
                        <p style=""font-size: 20px; font-weight: bold; margin: 0;"">Is there a person in this image?</p>
                    </div>
                </div>","1","main_experiment_trial","2","restaurant_scheme","schematic_sequence","","","","",""
"","","","","","html-keyboard-response","147","679288","0.0-147.0","56AFE7B42E814473B4ACED9DBDF9FD10","019cf0c7-6c49-7d26-8640-2461163e017b","019cf037-5203-781a-b900-108ccb1cab86","","null","
                <div class=""stimulus-container"">
                    <img src=""images/schematic_sequence/restaurant_scheme/restaurant_scheme_3.png"" class=""exp-image"">
                    <div class=""question-area""></div> 
                </div>","null","","","","","","","","",""
"","","","","","html-button-response","148","680845","0.0-148.0","56AFE7B42E814473B4ACED9DBDF9FD10","019cf0c7-6c49-7d26-8640-2461163e017b","019cf037-5203-781a-b900-108ccb1cab86","","1555","
                <div class=""stimulus-container"">
                    <img src=""images/schematic_sequence/restaurant_scheme/restaurant_scheme_3.png"" class=""exp-image"">
                    <div class=""question-area"">
                        <p style=""font-size: 20px; font-weight: bold; margin: 0;"">Is there a person in this image?</p>
                    </div>
                </div>","1","main_experiment_trial","3","restaurant_scheme","schematic_sequence","","","","",""
"","","","","","html-keyboard-response","149","685846","0.0-149.0","56AFE7B42E814473B4ACED9DBDF9FD10","019cf0c7-6c49-7d26-8640-2461163e017b","019cf037-5203-781a-b900-108ccb1cab86","","null","
                <div class=""stimulus-container"">
                    <img src=""images/schematic_sequence/restaurant_scheme/restaurant_scheme_4.png"" class=""exp-image"">
                    <div class=""question-area""></div> 
                </div>","null","","","","","","","","",""
"","","","","","html-button-response","150","687874","0.0-150.0","56AFE7B42E814473B4ACED9DBDF9FD10","019cf0c7-6c49-7d26-8640-2461163e017b","019cf037-5203-781a-b900-108ccb1cab86","","2028","
                <div class=""stimulus-container"">
                    <img src=""images/schematic_sequence/restaurant_scheme/restaurant_scheme_4.png"" class=""exp-image"">
                    <div class=""question-area"">
                        <p style=""font-size: 20px; font-weight: bold; margin: 0;"">Is there a person in this image?</p>
                    </div>
                </div>","1","main_experiment_trial","4","restaurant_scheme","schematic_sequence","","","","",""
"","","","","","html-keyboard-response","151","692887","0.0-151.0","56AFE7B42E814473B4ACED9DBDF9FD10","019cf0c7-6c49-7d26-8640-2461163e017b","019cf037-5203-781a-b900-108ccb1cab86","","null","
                <div class=""stimulus-container"">
                    <img src=""images/schematic_sequence/restaurant_scheme/restaurant_scheme_5.png"" class=""exp-image"">
                    <div class=""question-area""></div> 
                </div>","null","","","","","","","","",""
"","","","","","html-button-response","152","694321","0.0-152.0","56AFE7B42E814473B4ACED9DBDF9FD10","019cf0c7-6c49-7d26-8640-2461163e017b","019cf037-5203-781a-b900-108ccb1cab86","","1432","
                <div class=""stimulus-container"">
                    <img src=""images/schematic_sequence/restaurant_scheme/restaurant_scheme_5.png"" class=""exp-image"">
                    <div class=""question-area"">
                        <p style=""font-size: 20px; font-weight: bold; margin: 0;"">Is there a person in this image?</p>
                    </div>
                </div>","1","main_experiment_trial","5","restaurant_scheme","schematic_sequence","","","","",""
"","","","","","html-keyboard-response","153","699332","0.0-153.0","56AFE7B42E814473B4ACED9DBDF9FD10","019cf0c7-6c49-7d26-8640-2461163e017b","019cf037-5203-781a-b900-108ccb1cab86","","null","
                <div class=""stimulus-container"">
                    <img src=""images/schematic_sequence/restaurant_scheme/restaurant_scheme_6.png"" class=""exp-image"">
                    <div class=""question-area""></div> 
                </div>","null","","","","","","","","",""
"","","","","","html-button-response","154","700720","0.0-154.0","56AFE7B42E814473B4ACED9DBDF9FD10","019cf0c7-6c49-7d26-8640-2461163e017b","019cf037-5203-781a-b900-108ccb1cab86","","1386","
                <div class=""stimulus-container"">
                    <img src=""images/schematic_sequence/restaurant_scheme/restaurant_scheme_6.png"" class=""exp-image"">
                    <div class=""question-area"">
                        <p style=""font-size: 20px; font-weight: bold; margin: 0;"">Is there a person in this image?</p>
                    </div>
                </div>","1","main_experiment_trial","6","restaurant_scheme","schematic_sequence","","","","",""
"","","","","","html-keyboard-response","155","705733","0.0-155.0","56AFE7B42E814473B4ACED9DBDF9FD10","019cf0c7-6c49-7d26-8640-2461163e017b","019cf037-5203-781a-b900-108ccb1cab86","","null","
                <div class=""stimulus-container"">
                    <img src=""images/schematic_sequence/restaurant_scheme/restaurant_scheme_7.png"" class=""exp-image"">
                    <div class=""question-area""></div> 
                </div>","null","","","","","","","","",""
"","","","","","html-button-response","156","707036","0.0-156.0","56AFE7B42E814473B4ACED9DBDF9FD10","019cf0c7-6c49-7d26-8640-2461163e017b","019cf037-5203-781a-b900-108ccb1cab86","","1301","
                <div class=""stimulus-container"">
                    <img src=""images/schematic_sequence/restaurant_scheme/restaurant_scheme_7.png"" class=""exp-image"">
                    <div class=""question-area"">
                        <p style=""font-size: 20px; font-weight: bold; margin: 0;"">Is there a person in this image?</p>
                    </div>
                </div>","1","main_experiment_trial","7","restaurant_scheme","schematic_sequence","","","","",""
"","","","","","html-keyboard-response","157","712042","0.0-157.0","56AFE7B42E814473B4ACED9DBDF9FD10","019cf0c7-6c49-7d26-8640-2461163e017b","019cf037-5203-781a-b900-108ccb1cab86","","null","
                <div class=""stimulus-container"">
                    <img src=""images/schematic_sequence/restaurant_scheme/restaurant_scheme_8.png"" class=""exp-image"">
                    <div class=""question-area""></div> 
                </div>","null","","","","","","","","",""
"","","","","","html-button-response","158","714112","0.0-158.0","56AFE7B42E814473B4ACED9DBDF9FD10","019cf0c7-6c49-7d26-8640-2461163e017b","019cf037-5203-781a-b900-108ccb1cab86","","2068","
                <div class=""stimulus-container"">
                    <img src=""images/schematic_sequence/restaurant_scheme/restaurant_scheme_8.png"" class=""exp-image"">
                    <div class=""question-area"">
                        <p style=""font-size: 20px; font-weight: bold; margin: 0;"">Is there a person in this image?</p>
                    </div>
                </div>","1","main_experiment_trial","8","restaurant_scheme","schematic_sequence","","","","",""
"","","","","","html-keyboard-response","159","719119","0.0-159.0","56AFE7B42E814473B4ACED9DBDF9FD10","019cf0c7-6c49-7d26-8640-2461163e017b","019cf037-5203-781a-b900-108ccb1cab86","","null","
                <div class=""stimulus-container"">
                    <img src=""images/schematic_sequence/restaurant_scheme/restaurant_scheme_9.png"" class=""exp-image"">
                    <div class=""question-area""></div> 
                </div>","null","","","","","","","","",""
"","","","","","html-button-response","160","721286","0.0-160.0","56AFE7B42E814473B4ACED9DBDF9FD10","019cf0c7-6c49-7d26-8640-2461163e017b","019cf037-5203-781a-b900-108ccb1cab86","","2165","
                <div class=""stimulus-container"">
                    <img src=""images/schematic_sequence/restaurant_scheme/restaurant_scheme_9.png"" class=""exp-image"">
                    <div class=""question-area"">
                        <p style=""font-size: 20px; font-weight: bold; margin: 0;"">Is there a person in this image?</p>
                    </div>
                </div>","1","main_experiment_trial","9","restaurant_scheme","schematic_sequence","","","","",""
"","","","","","html-keyboard-response","161","726302","0.0-161.0","56AFE7B42E814473B4ACED9DBDF9FD10","019cf0c7-6c49-7d26-8640-2461163e017b","019cf037-5203-781a-b900-108ccb1cab86","","null","
                <div class=""stimulus-container"">
                    <img src=""images/schematic_sequence/restaurant_scheme/restaurant_scheme_ten.png"" class=""exp-image"">
                    <div class=""question-area""></div> 
                </div>","null","","","","","","","","",""
"","","","","","html-button-response","162","729319","0.0-162.0","56AFE7B42E814473B4ACED9DBDF9FD10","019cf0c7-6c49-7d26-8640-2461163e017b","019cf037-5203-781a-b900-108ccb1cab86","","null","
                <div class=""stimulus-container"">
                    <img src=""images/schematic_sequence/restaurant_scheme/restaurant_scheme_ten.png"" class=""exp-image"">
                    <div class=""question-area"">
                        <p style=""font-size: 20px; font-weight: bold; margin: 0;"">Is there a person in this image?</p>
                    </div>
                </div>","null","main_experiment_trial","ten","restaurant_scheme","schematic_sequence","","","","",""
"","","","","","html-keyboard-response","163","730325","0.0-163.0","56AFE7B42E814473B4ACED9DBDF9FD10","019cf0c7-6c49-7d26-8640-2461163e017b","019cf037-5203-781a-b900-108ccb1cab86","","null","<div style=""background-color: white; width: 100vw; height: 100vh;""></div>","null","","","","","","","","",""
"","","","","","html-keyboard-response","164","735330","0.0-164.0","56AFE7B42E814473B4ACED9DBDF9FD10","019cf0c7-6c49-7d26-8640-2461163e017b","019cf037-5203-781a-b900-108ccb1cab86","","null","
                <div class=""stimulus-container"">
                    <img src=""images/schematic_sequence/dinner_party_scheme/dinner_party_scheme_1.png"" class=""exp-image"">
                    <div class=""question-area""></div> 
                </div>","null","","","","","","","","",""
"","","","","","html-button-response","165","736789","0.0-165.0","56AFE7B42E814473B4ACED9DBDF9FD10","019cf0c7-6c49-7d26-8640-2461163e017b","019cf037-5203-781a-b900-108ccb1cab86","","1457","
                <div class=""stimulus-container"">
                    <img src=""images/schematic_sequence/dinner_party_scheme/dinner_party_scheme_1.png"" class=""exp-image"">
                    <div class=""question-area"">
                        <p style=""font-size: 20px; font-weight: bold; margin: 0;"">Is there a person in this image?</p>
                    </div>
                </div>","0","main_experiment_trial","1","dinner_party_scheme","schematic_sequence","","","","",""
"","","","","","html-keyboard-response","166","741791","0.0-166.0","56AFE7B42E814473B4ACED9DBDF9FD10","019cf0c7-6c49-7d26-8640-2461163e017b","019cf037-5203-781a-b900-108ccb1cab86","","null","
                <div class=""stimulus-container"">
                    <img src=""images/schematic_sequence/dinner_party_scheme/dinner_party_scheme_2.png"" class=""exp-image"">
                    <div class=""question-area""></div> 
                </div>","null","","","","","","","","",""
"","","","","","html-button-response","167","743116","0.0-167.0","56AFE7B42E814473B4ACED9DBDF9FD10","019cf0c7-6c49-7d26-8640-2461163e017b","019cf037-5203-781a-b900-108ccb1cab86","","1324","
                <div class=""stimulus-container"">
                    <img src=""images/schematic_sequence/dinner_party_scheme/dinner_party_scheme_2.png"" class=""exp-image"">
                    <div class=""question-area"">
                        <p style=""font-size: 20px; font-weight: bold; margin: 0;"">Is there a person in this image?</p>
                    </div>
                </div>","1","main_experiment_trial","2","dinner_party_scheme","schematic_sequence","","","","",""
"","","","","","html-keyboard-response","168","748117","0.0-168.0","56AFE7B42E814473B4ACED9DBDF9FD10","019cf0c7-6c49-7d26-8640-2461163e017b","019cf037-5203-781a-b900-108ccb1cab86","","null","
                <div class=""stimulus-container"">
                    <img src=""images/schematic_sequence/dinner_party_scheme/dinner_party_scheme_3.png"" class=""exp-image"">
                    <div class=""question-area""></div> 
                </div>","null","","","","","","","","",""
"","","","","","html-button-response","169","749452","0.0-169.0","56AFE7B42E814473B4ACED9DBDF9FD10","019cf0c7-6c49-7d26-8640-2461163e017b","019cf037-5203-781a-b900-108ccb1cab86","","1334","
                <div class=""stimulus-container"">
                    <img src=""images/schematic_sequence/dinner_party_scheme/dinner_party_scheme_3.png"" class=""exp-image"">
                    <div class=""question-area"">
                        <p style=""font-size: 20px; font-weight: bold; margin: 0;"">Is there a person in this image?</p>
                    </div>
                </div>","1","main_experiment_trial","3","dinner_party_scheme","schematic_sequence","","","","",""
"","","","","","html-keyboard-response","170","754458","0.0-170.0","56AFE7B42E814473B4ACED9DBDF9FD10","019cf0c7-6c49-7d26-8640-2461163e017b","019cf037-5203-781a-b900-108ccb1cab86","","null","
                <div class=""stimulus-container"">
                    <img src=""images/schematic_sequence/dinner_party_scheme/dinner_party_scheme_4.png"" class=""exp-image"">
                    <div class=""question-area""></div> 
                </div>","null","","","","","","","","",""
"","","","","","html-button-response","171","755764","0.0-171.0","56AFE7B42E814473B4ACED9DBDF9FD10","019cf0c7-6c49-7d26-8640-2461163e017b","019cf037-5203-781a-b900-108ccb1cab86","","1306","
                <div class=""stimulus-container"">
                    <img src=""images/schematic_sequence/dinner_party_scheme/dinner_party_scheme_4.png"" class=""exp-image"">
                    <div class=""question-area"">
                        <p style=""font-size: 20px; font-weight: bold; margin: 0;"">Is there a person in this image?</p>
                    </div>
                </div>","0","main_experiment_trial","4","dinner_party_scheme","schematic_sequence","","","","",""
"","","","","","html-keyboard-response","172","760765","0.0-172.0","56AFE7B42E814473B4ACED9DBDF9FD10","019cf0c7-6c49-7d26-8640-2461163e017b","019cf037-5203-781a-b900-108ccb1cab86","","null","
                <div class=""stimulus-container"">
                    <img src=""images/schematic_sequence/dinner_party_scheme/dinner_party_scheme_5.png"" class=""exp-image"">
                    <div class=""question-area""></div> 
                </div>","null","","","","","","","","",""
"","","","","","html-button-response","173","762847","0.0-173.0","56AFE7B42E814473B4ACED9DBDF9FD10","019cf0c7-6c49-7d26-8640-2461163e017b","019cf037-5203-781a-b900-108ccb1cab86","","2081","
                <div class=""stimulus-container"">
                    <img src=""images/schematic_sequence/dinner_party_scheme/dinner_party_scheme_5.png"" class=""exp-image"">
                    <div class=""question-area"">
                        <p style=""font-size: 20px; font-weight: bold; margin: 0;"">Is there a person in this image?</p>
                    </div>
                </div>","0","main_experiment_trial","5","dinner_party_scheme","schematic_sequence","","","","",""
"","","","","","html-keyboard-response","174","767848","0.0-174.0","56AFE7B42E814473B4ACED9DBDF9FD10","019cf0c7-6c49-7d26-8640-2461163e017b","019cf037-5203-781a-b900-108ccb1cab86","","null","
                <div class=""stimulus-container"">
                    <img src=""images/schematic_sequence/dinner_party_scheme/dinner_party_scheme_6.png"" class=""exp-image"">
                    <div class=""question-area""></div> 
                </div>","null","","","","","","","","",""
"","","","","","html-button-response","175","769855","0.0-175.0","56AFE7B42E814473B4ACED9DBDF9FD10","019cf0c7-6c49-7d26-8640-2461163e017b","019cf037-5203-781a-b900-108ccb1cab86","","2007","
                <div class=""stimulus-container"">
                    <img src=""images/schematic_sequence/dinner_party_scheme/dinner_party_scheme_6.png"" class=""exp-image"">
                    <div class=""question-area"">
                        <p style=""font-size: 20px; font-weight: bold; margin: 0;"">Is there a person in this image?</p>
                    </div>
                </div>","1","main_experiment_trial","6","dinner_party_scheme","schematic_sequence","","","","",""
"","","","","","html-keyboard-response","176","774868","0.0-176.0","56AFE7B42E814473B4ACED9DBDF9FD10","019cf0c7-6c49-7d26-8640-2461163e017b","019cf037-5203-781a-b900-108ccb1cab86","","null","
                <div class=""stimulus-container"">
                    <img src=""images/schematic_sequence/dinner_party_scheme/dinner_party_scheme_7.png"" class=""exp-image"">
                    <div class=""question-area""></div> 
                </div>","null","","","","","","","","",""
"","","","","","html-button-response","177","776009","0.0-177.0","56AFE7B42E814473B4ACED9DBDF9FD10","019cf0c7-6c49-7d26-8640-2461163e017b","019cf037-5203-781a-b900-108ccb1cab86","","1139","
                <div class=""stimulus-container"">
                    <img src=""images/schematic_sequence/dinner_party_scheme/dinner_party_scheme_7.png"" class=""exp-image"">
                    <div class=""question-area"">
                        <p style=""font-size: 20px; font-weight: bold; margin: 0;"">Is there a person in this image?</p>
                    </div>
                </div>","1","main_experiment_trial","7","dinner_party_scheme","schematic_sequence","","","","",""
"","","","","","html-keyboard-response","178","781017","0.0-178.0","56AFE7B42E814473B4ACED9DBDF9FD10","019cf0c7-6c49-7d26-8640-2461163e017b","019cf037-5203-781a-b900-108ccb1cab86","","null","
                <div class=""stimulus-container"">
                    <img src=""images/schematic_sequence/dinner_party_scheme/dinner_party_scheme_8.png"" class=""exp-image"">
                    <div class=""question-area""></div> 
                </div>","null","","","","","","","","",""
"","","","","","html-button-response","179","782590","0.0-179.0","56AFE7B42E814473B4ACED9DBDF9FD10","019cf0c7-6c49-7d26-8640-2461163e017b","019cf037-5203-781a-b900-108ccb1cab86","","1573","
                <div class=""stimulus-container"">
                    <img src=""images/schematic_sequence/dinner_party_scheme/dinner_party_scheme_8.png"" class=""exp-image"">
                    <div class=""question-area"">
                        <p style=""font-size: 20px; font-weight: bold; margin: 0;"">Is there a person in this image?</p>
                    </div>
                </div>","1","main_experiment_trial","8","dinner_party_scheme","schematic_sequence","","","","",""
"","","","","","html-keyboard-response","180","787604","0.0-180.0","56AFE7B42E814473B4ACED9DBDF9FD10","019cf0c7-6c49-7d26-8640-2461163e017b","019cf037-5203-781a-b900-108ccb1cab86","","null","
                <div class=""stimulus-container"">
                    <img src=""images/schematic_sequence/dinner_party_scheme/dinner_party_scheme_9.png"" class=""exp-image"">
                    <div class=""question-area""></div> 
                </div>","null","","","","","","","","",""
"","","","","","html-button-response","181","788722","0.0-181.0","56AFE7B42E814473B4ACED9DBDF9FD10","019cf0c7-6c49-7d26-8640-2461163e017b","019cf037-5203-781a-b900-108ccb1cab86","","1117","
                <div class=""stimulus-container"">
                    <img src=""images/schematic_sequence/dinner_party_scheme/dinner_party_scheme_9.png"" class=""exp-image"">
                    <div class=""question-area"">
                        <p style=""font-size: 20px; font-weight: bold; margin: 0;"">Is there a person in this image?</p>
                    </div>
                </div>","1","main_experiment_trial","9","dinner_party_scheme","schematic_sequence","","","","",""
"","","","","","html-keyboard-response","182","793731","0.0-182.0","56AFE7B42E814473B4ACED9DBDF9FD10","019cf0c7-6c49-7d26-8640-2461163e017b","019cf037-5203-781a-b900-108ccb1cab86","","null","
                <div class=""stimulus-container"">
                    <img src=""images/schematic_sequence/dinner_party_scheme/dinner_party_scheme_ten.png"" class=""exp-image"">
                    <div class=""question-area""></div> 
                </div>","null","","","","","","","","",""
"","","","","","html-button-response","183","795722","0.0-183.0","56AFE7B42E814473B4ACED9DBDF9FD10","019cf0c7-6c49-7d26-8640-2461163e017b","019cf037-5203-781a-b900-108ccb1cab86","","1990","
                <div class=""stimulus-container"">
                    <img src=""images/schematic_sequence/dinner_party_scheme/dinner_party_scheme_ten.png"" class=""exp-image"">
                    <div class=""question-area"">
                        <p style=""font-size: 20px; font-weight: bold; margin: 0;"">Is there a person in this image?</p>
                    </div>
