"success","timeout","failed_images","failed_audio","failed_video","trial_type","trial_index","time_elapsed","internal_node_id","subject_id","study_id","session_id","view_history","rt","stimulus","response","task","image_index","folder","sequence_type","presentation_order","valuable_image_index","reward_type","distance_from_x","target_X","chosen_image_index","is_x_plus_dist","correct_choice"
"true","false","[]","[]","[]","preload","0","1372","0.0-0.0","6C69C07C94D14B6F9E0F5E0C1302D8C9","019cfc35-146e-74d5-9fb5-4b6195ecc266","019cfc28-2143-7934-89cc-ce6402563331","","","","","","","","","","","","","","","",""
"","","","","","instructions","1","3681","0.0-1.0","6C69C07C94D14B6F9E0F5E0C1302D8C9","019cfc35-146e-74d5-9fb5-4b6195ecc266","019cfc28-2143-7934-89cc-ce6402563331","[{""page_index"":0,""viewing_time"":2308}]","2308","","","","","","","","","","","","","",""
"","","","","","instructions","2","9452","0.0-2.0","6C69C07C94D14B6F9E0F5E0C1302D8C9","019cfc35-146e-74d5-9fb5-4b6195ecc266","019cfc28-2143-7934-89cc-ce6402563331","[{""page_index"":0,""viewing_time"":5771}]","5772","","","","","","","","","","","","","",""
"true","","","","","fullscreen","3","14129","0.0-3.0","6C69C07C94D14B6F9E0F5E0C1302D8C9","019cfc35-146e-74d5-9fb5-4b6195ecc266","019cfc28-2143-7934-89cc-ce6402563331","","3664","","","","","","","","","","","","","",""
"","","","","","instructions","4","95949","0.0-4.0","6C69C07C94D14B6F9E0F5E0C1302D8C9","019cfc35-146e-74d5-9fb5-4b6195ecc266","019cfc28-2143-7934-89cc-ce6402563331","[{""page_index"":0,""viewing_time"":81820}]","81820","","","","","","","","","","","","","",""
"","","","","","instructions","5","109884","0.0-5.0","6C69C07C94D14B6F9E0F5E0C1302D8C9","019cfc35-146e-74d5-9fb5-4b6195ecc266","019cfc28-2143-7934-89cc-ce6402563331","[{""page_index"":0,""viewing_time"":13935}]","13935","","","","","","","","","","","","","",""
"","","","","","html-keyboard-response","6","113899","0.0-6.0","6C69C07C94D14B6F9E0F5E0C1302D8C9","019cfc35-146e-74d5-9fb5-4b6195ecc266","019cfc28-2143-7934-89cc-ce6402563331","","null","
                <div class=""stimulus-container"">
                    <img src=""images/instructions/movie_1.png"" class=""exp-image"">
                    <div class=""question-area""></div> 
                </div>","null","","","","","","","","","","","",""
"","","","","","html-button-response","7","116819","0.0-7.0","6C69C07C94D14B6F9E0F5E0C1302D8C9","019cfc35-146e-74d5-9fb5-4b6195ecc266","019cfc28-2143-7934-89cc-ce6402563331","","2919","
                <div class=""stimulus-container"">
                    <img src=""images/instructions/movie_1.png"" class=""exp-image"">
                    <div class=""question-area"">
                        <p style=""font-size: 20px; font-weight: bold; margin: 0;"">Was there a person in this image?</p>
                    </div>
                </div>","0","example_question","1","","","","","","","","","",""
"","","","","","html-keyboard-response","8","120827","0.0-8.0","6C69C07C94D14B6F9E0F5E0C1302D8C9","019cfc35-146e-74d5-9fb5-4b6195ecc266","019cfc28-2143-7934-89cc-ce6402563331","","null","
                <div class=""stimulus-container"">
                    <img src=""images/instructions/movie_2.png"" class=""exp-image"">
                    <div class=""question-area""></div> 
                </div>","null","","","","","","","","","","","",""
"","","","","","html-button-response","9","121823","0.0-9.0","6C69C07C94D14B6F9E0F5E0C1302D8C9","019cfc35-146e-74d5-9fb5-4b6195ecc266","019cfc28-2143-7934-89cc-ce6402563331","","996","
                <div class=""stimulus-container"">
                    <img src=""images/instructions/movie_2.png"" class=""exp-image"">
                    <div class=""question-area"">
                        <p style=""font-size: 20px; font-weight: bold; margin: 0;"">Was there a person in this image?</p>
                    </div>
                </div>","0","example_question","2","","","","","","","","","",""
"","","","","","html-keyboard-response","10","125828","0.0-10.0","6C69C07C94D14B6F9E0F5E0C1302D8C9","019cfc35-146e-74d5-9fb5-4b6195ecc266","019cfc28-2143-7934-89cc-ce6402563331","","null","
                <div class=""stimulus-container"">
                    <img src=""images/instructions/movie_3.png"" class=""exp-image"">
                    <div class=""question-area""></div> 
                </div>","null","","","","","","","","","","","",""
"","","","","","html-button-response","11","126563","0.0-11.0","6C69C07C94D14B6F9E0F5E0C1302D8C9","019cfc35-146e-74d5-9fb5-4b6195ecc266","019cfc28-2143-7934-89cc-ce6402563331","","734","
                <div class=""stimulus-container"">
                    <img src=""images/instructions/movie_3.png"" class=""exp-image"">
                    <div class=""question-area"">
                        <p style=""font-size: 20px; font-weight: bold; margin: 0;"">Was there a person in this image?</p>
                    </div>
                </div>","0","example_question","3","","","","","","","","","",""
"","","","","","html-keyboard-response","12","130573","0.0-12.0","6C69C07C94D14B6F9E0F5E0C1302D8C9","019cfc35-146e-74d5-9fb5-4b6195ecc266","019cfc28-2143-7934-89cc-ce6402563331","","null","
                <div class=""stimulus-container"">
                    <img src=""images/instructions/movie_4.png"" class=""exp-image"">
                    <div class=""question-area""></div> 
                </div>","null","","","","","","","","","","","",""
"","","","","","html-button-response","13","131340","0.0-13.0","6C69C07C94D14B6F9E0F5E0C1302D8C9","019cfc35-146e-74d5-9fb5-4b6195ecc266","019cfc28-2143-7934-89cc-ce6402563331","","766","
                <div class=""stimulus-container"">
                    <img src=""images/instructions/movie_4.png"" class=""exp-image"">
                    <div class=""question-area"">
                        <p style=""font-size: 20px; font-weight: bold; margin: 0;"">Was there a person in this image?</p>
                    </div>
                </div>","0","example_question","4","","","","","","","","","",""
"","","","","","instructions","14","133136","0.0-14.0","6C69C07C94D14B6F9E0F5E0C1302D8C9","019cfc35-146e-74d5-9fb5-4b6195ecc266","019cfc28-2143-7934-89cc-ce6402563331","[{""page_index"":0,""viewing_time"":1796}]","1796","","","","","","","","","","","","","",""
"","","","","","instructions","15","168122","0.0-15.0","6C69C07C94D14B6F9E0F5E0C1302D8C9","019cfc35-146e-74d5-9fb5-4b6195ecc266","019cfc28-2143-7934-89cc-ce6402563331","[{""page_index"":0,""viewing_time"":34986}]","34986","","","","","","","","","","","","","",""
"","","","","","html-keyboard-response","16","173128","0.0-16.0","6C69C07C94D14B6F9E0F5E0C1302D8C9","019cfc35-146e-74d5-9fb5-4b6195ecc266","019cfc28-2143-7934-89cc-ce6402563331","","null","<div style=""background-color: white; width: 100vw; height: 100vh;""></div>","null","","","","","","","","","","","",""
"","","","","","html-keyboard-response","17","178140","0.0-17.0","6C69C07C94D14B6F9E0F5E0C1302D8C9","019cfc35-146e-74d5-9fb5-4b6195ecc266","019cfc28-2143-7934-89cc-ce6402563331","","null","
                <div class=""stimulus-container"">
                    <img src=""images/schematic_sequence/hotel_scheme/hotel_scheme_1.png"" class=""exp-image"">
                    <div class=""question-area""></div> 
                </div>","null","","","","","","","","","","","",""
"","","","","","html-button-response","18","181145","0.0-18.0","6C69C07C94D14B6F9E0F5E0C1302D8C9","019cfc35-146e-74d5-9fb5-4b6195ecc266","019cfc28-2143-7934-89cc-ce6402563331","","null","
                <div class=""stimulus-container"">
                    <img src=""images/schematic_sequence/hotel_scheme/hotel_scheme_1.png"" class=""exp-image"">
                    <div class=""question-area"">
                        <p style=""font-size: 20px; font-weight: bold; margin: 0;"">Is there a person in this image?</p>
                    </div>
                </div>","null","main_experiment_trial","1","hotel_scheme","schematic_sequence","chronological","","","","","","",""
"","","","","","html-keyboard-response","19","186145","0.0-19.0","6C69C07C94D14B6F9E0F5E0C1302D8C9","019cfc35-146e-74d5-9fb5-4b6195ecc266","019cfc28-2143-7934-89cc-ce6402563331","","null","
                <div class=""stimulus-container"">
                    <img src=""images/schematic_sequence/hotel_scheme/hotel_scheme_2.png"" class=""exp-image"">
                    <div class=""question-area""></div> 
                </div>","null","","","","","","","","","","","",""
"","","","","","html-button-response","20","186680","0.0-20.0","6C69C07C94D14B6F9E0F5E0C1302D8C9","019cfc35-146e-74d5-9fb5-4b6195ecc266","019cfc28-2143-7934-89cc-ce6402563331","","534","
                <div class=""stimulus-container"">
                    <img src=""images/schematic_sequence/hotel_scheme/hotel_scheme_2.png"" class=""exp-image"">
                    <div class=""question-area"">
                        <p style=""font-size: 20px; font-weight: bold; margin: 0;"">Is there a person in this image?</p>
                    </div>
                </div>","0","main_experiment_trial","2","hotel_scheme","schematic_sequence","chronological","","","","","","",""
"","","","","","html-keyboard-response","21","191681","0.0-21.0","6C69C07C94D14B6F9E0F5E0C1302D8C9","019cfc35-146e-74d5-9fb5-4b6195ecc266","019cfc28-2143-7934-89cc-ce6402563331","","null","
                <div class=""stimulus-container"">
                    <img src=""images/schematic_sequence/hotel_scheme/hotel_scheme_3.png"" class=""exp-image"">
                    <div class=""question-area""></div> 
                </div>","null","","","","","","","","","","","",""
"","","","","","html-button-response","22","192054","0.0-22.0","6C69C07C94D14B6F9E0F5E0C1302D8C9","019cfc35-146e-74d5-9fb5-4b6195ecc266","019cfc28-2143-7934-89cc-ce6402563331","","373","
                <div class=""stimulus-container"">
                    <img src=""images/schematic_sequence/hotel_scheme/hotel_scheme_3.png"" class=""exp-image"">
                    <div class=""question-area"">
                        <p style=""font-size: 20px; font-weight: bold; margin: 0;"">Is there a person in this image?</p>
                    </div>
                </div>","0","main_experiment_trial","3","hotel_scheme","schematic_sequence","chronological","","","","","","",""
"","","","","","html-keyboard-response","23","197070","0.0-23.0","6C69C07C94D14B6F9E0F5E0C1302D8C9","019cfc35-146e-74d5-9fb5-4b6195ecc266","019cfc28-2143-7934-89cc-ce6402563331","","null","
                <div class=""stimulus-container"">
                    <img src=""images/schematic_sequence/hotel_scheme/hotel_scheme_4.png"" class=""exp-image"">
                    <div class=""question-area""></div> 
                </div>","null","","","","","","","","","","","",""
"","","","","","html-button-response","24","197581","0.0-24.0","6C69C07C94D14B6F9E0F5E0C1302D8C9","019cfc35-146e-74d5-9fb5-4b6195ecc266","019cfc28-2143-7934-89cc-ce6402563331","","510","
                <div class=""stimulus-container"">
                    <img src=""images/schematic_sequence/hotel_scheme/hotel_scheme_4.png"" class=""exp-image"">
                    <div class=""question-area"">
                        <p style=""font-size: 20px; font-weight: bold; margin: 0;"">Is there a person in this image?</p>
                    </div>
                </div>","1","main_experiment_trial","4","hotel_scheme","schematic_sequence","chronological","","","","","","",""
"","","","","","html-keyboard-response","25","202590","0.0-25.0","6C69C07C94D14B6F9E0F5E0C1302D8C9","019cfc35-146e-74d5-9fb5-4b6195ecc266","019cfc28-2143-7934-89cc-ce6402563331","","null","
                <div class=""stimulus-container"">
                    <img src=""images/schematic_sequence/hotel_scheme/hotel_scheme_5.png"" class=""exp-image"">
                    <div class=""question-area""></div> 
                </div>","null","","","","","","","","","","","",""
"","","","","","html-button-response","26","203104","0.0-26.0","6C69C07C94D14B6F9E0F5E0C1302D8C9","019cfc35-146e-74d5-9fb5-4b6195ecc266","019cfc28-2143-7934-89cc-ce6402563331","","514","
                <div class=""stimulus-container"">
                    <img src=""images/schematic_sequence/hotel_scheme/hotel_scheme_5.png"" class=""exp-image"">
                    <div class=""question-area"">
                        <p style=""font-size: 20px; font-weight: bold; margin: 0;"">Is there a person in this image?</p>
                    </div>
                </div>","0","main_experiment_trial","5","hotel_scheme","schematic_sequence","chronological","","","","","","",""
"","","","","","html-keyboard-response","27","208114","0.0-27.0","6C69C07C94D14B6F9E0F5E0C1302D8C9","019cfc35-146e-74d5-9fb5-4b6195ecc266","019cfc28-2143-7934-89cc-ce6402563331","","null","
                <div class=""stimulus-container"">
                    <img src=""images/schematic_sequence/hotel_scheme/hotel_scheme_6.png"" class=""exp-image"">
                    <div class=""question-area""></div> 
                </div>","null","","","","","","","","","","","",""
"","","","","","html-button-response","28","209136","0.0-28.0","6C69C07C94D14B6F9E0F5E0C1302D8C9","019cfc35-146e-74d5-9fb5-4b6195ecc266","019cfc28-2143-7934-89cc-ce6402563331","","1022","
                <div class=""stimulus-container"">
                    <img src=""images/schematic_sequence/hotel_scheme/hotel_scheme_6.png"" class=""exp-image"">
                    <div class=""question-area"">
                        <p style=""font-size: 20px; font-weight: bold; margin: 0;"">Is there a person in this image?</p>
                    </div>
                </div>","0","main_experiment_trial","6","hotel_scheme","schematic_sequence","chronological","","","","","","",""
"","","","","","html-keyboard-response","29","214152","0.0-29.0","6C69C07C94D14B6F9E0F5E0C1302D8C9","019cfc35-146e-74d5-9fb5-4b6195ecc266","019cfc28-2143-7934-89cc-ce6402563331","","null","
                <div class=""stimulus-container"">
                    <img src=""images/schematic_sequence/hotel_scheme/hotel_scheme_7.png"" class=""exp-image"">
                    <div class=""question-area""></div> 
                </div>","null","","","","","","","","","","","",""
"","","","","","html-button-response","30","214580","0.0-30.0","6C69C07C94D14B6F9E0F5E0C1302D8C9","019cfc35-146e-74d5-9fb5-4b6195ecc266","019cfc28-2143-7934-89cc-ce6402563331","","428","
                <div class=""stimulus-container"">
                    <img src=""images/schematic_sequence/hotel_scheme/hotel_scheme_7.png"" class=""exp-image"">
                    <div class=""question-area"">
                        <p style=""font-size: 20px; font-weight: bold; margin: 0;"">Is there a person in this image?</p>
                    </div>
                </div>","0","main_experiment_trial","7","hotel_scheme","schematic_sequence","chronological","","","","","","",""
"","","","","","html-keyboard-response","31","219582","0.0-31.0","6C69C07C94D14B6F9E0F5E0C1302D8C9","019cfc35-146e-74d5-9fb5-4b6195ecc266","019cfc28-2143-7934-89cc-ce6402563331","","null","
                <div class=""stimulus-container"">
                    <img src=""images/schematic_sequence/hotel_scheme/hotel_scheme_8.png"" class=""exp-image"">
                    <div class=""question-area""></div> 
                </div>","null","","","","","","","","","","","",""
"","","","","","html-button-response","32","220162","0.0-32.0","6C69C07C94D14B6F9E0F5E0C1302D8C9","019cfc35-146e-74d5-9fb5-4b6195ecc266","019cfc28-2143-7934-89cc-ce6402563331","","580","
                <div class=""stimulus-container"">
                    <img src=""images/schematic_sequence/hotel_scheme/hotel_scheme_8.png"" class=""exp-image"">
                    <div class=""question-area"">
                        <p style=""font-size: 20px; font-weight: bold; margin: 0;"">Is there a person in this image?</p>
                    </div>
                </div>","0","main_experiment_trial","8","hotel_scheme","schematic_sequence","chronological","","","","","","",""
"","","","","","html-keyboard-response","33","225172","0.0-33.0","6C69C07C94D14B6F9E0F5E0C1302D8C9","019cfc35-146e-74d5-9fb5-4b6195ecc266","019cfc28-2143-7934-89cc-ce6402563331","","null","
                <div class=""stimulus-container"">
                    <img src=""images/schematic_sequence/hotel_scheme/hotel_scheme_9.png"" class=""exp-image"">
                    <div class=""question-area""></div> 
                </div>","null","","","","","","","","","","","",""
"","","","","","html-button-response","34","225878","0.0-34.0","6C69C07C94D14B6F9E0F5E0C1302D8C9","019cfc35-146e-74d5-9fb5-4b6195ecc266","019cfc28-2143-7934-89cc-ce6402563331","","706","
                <div class=""stimulus-container"">
                    <img src=""images/schematic_sequence/hotel_scheme/hotel_scheme_9.png"" class=""exp-image"">
                    <div class=""question-area"">
                        <p style=""font-size: 20px; font-weight: bold; margin: 0;"">Is there a person in this image?</p>
                    </div>
                </div>","0","main_experiment_trial","9","hotel_scheme","schematic_sequence","chronological","","","","","","",""
"","","","","","html-keyboard-response","35","230892","0.0-35.0","6C69C07C94D14B6F9E0F5E0C1302D8C9","019cfc35-146e-74d5-9fb5-4b6195ecc266","019cfc28-2143-7934-89cc-ce6402563331","","null","
                <div class=""stimulus-container"">
                    <img src=""images/schematic_sequence/hotel_scheme/hotel_scheme_ten.png"" class=""exp-image"">
                    <div class=""question-area""></div> 
                </div>","null","","","","","","","","","","","",""
"","","","","","html-button-response","36","231450","0.0-36.0","6C69C07C94D14B6F9E0F5E0C1302D8C9","019cfc35-146e-74d5-9fb5-4b6195ecc266","019cfc28-2143-7934-89cc-ce6402563331","","557","
                <div class=""stimulus-container"">
                    <img src=""images/schematic_sequence/hotel_scheme/hotel_scheme_ten.png"" class=""exp-image"">
                    <div class=""question-area"">
                        <p style=""font-size: 20px; font-weight: bold; margin: 0;"">Is there a person in this image?</p>
                    </div>
                </div>","0","main_experiment_trial","ten","hotel_scheme","schematic_sequence","chronological","","","","","","",""
"","","","","","html-keyboard-response","37","236458","0.0-37.0","6C69C07C94D14B6F9E0F5E0C1302D8C9","019cfc35-146e-74d5-9fb5-4b6195ecc266","019cfc28-2143-7934-89cc-ce6402563331","","null","<div style=""background-color: white; width: 100vw; height: 100vh;""></div>","null","","","","","","","","","","","",""
"","","","","","html-keyboard-response","38","241462","0.0-38.0","6C69C07C94D14B6F9E0F5E0C1302D8C9","019cfc35-146e-74d5-9fb5-4b6195ecc266","019cfc28-2143-7934-89cc-ce6402563331","","null","
                <div class=""stimulus-container"">
                    <img src=""images/schematic_sequence/interview_scheme/interview_scheme_1.png"" class=""exp-image"">
                    <div class=""question-area""></div> 
                </div>","null","","","","","","","","","","","",""
"","","","","","html-button-response","39","242996","0.0-39.0","6C69C07C94D14B6F9E0F5E0C1302D8C9","019cfc35-146e-74d5-9fb5-4b6195ecc266","019cfc28-2143-7934-89cc-ce6402563331","","1533","
                <div class=""stimulus-container"">
                    <img src=""images/schematic_sequence/interview_scheme/interview_scheme_1.png"" class=""exp-image"">
                    <div class=""question-area"">
                        <p style=""font-size: 20px; font-weight: bold; margin: 0;"">Is there a person in this image?</p>
                    </div>
                </div>","1","main_experiment_trial","1","interview_scheme","schematic_sequence","chronological","","","","","","",""
"","","","","","html-keyboard-response","40","247997","0.0-40.0","6C69C07C94D14B6F9E0F5E0C1302D8C9","019cfc35-146e-74d5-9fb5-4b6195ecc266","019cfc28-2143-7934-89cc-ce6402563331","","null","
                <div class=""stimulus-container"">
                    <img src=""images/schematic_sequence/interview_scheme/interview_scheme_2.png"" class=""exp-image"">
                    <div class=""question-area""></div> 
                </div>","null","","","","","","","","","","","",""
"","","","","","html-button-response","41","249142","0.0-41.0","6C69C07C94D14B6F9E0F5E0C1302D8C9","019cfc35-146e-74d5-9fb5-4b6195ecc266","019cfc28-2143-7934-89cc-ce6402563331","","1145","
                <div class=""stimulus-container"">
                    <img src=""images/schematic_sequence/interview_scheme/interview_scheme_2.png"" class=""exp-image"">
                    <div class=""question-area"">
                        <p style=""font-size: 20px; font-weight: bold; margin: 0;"">Is there a person in this image?</p>
                    </div>
                </div>","0","main_experiment_trial","2","interview_scheme","schematic_sequence","chronological","","","","","","",""
"","","","","","html-keyboard-response","42","254150","0.0-42.0","6C69C07C94D14B6F9E0F5E0C1302D8C9","019cfc35-146e-74d5-9fb5-4b6195ecc266","019cfc28-2143-7934-89cc-ce6402563331","","null","
                <div class=""stimulus-container"">
                    <img src=""images/schematic_sequence/interview_scheme/interview_scheme_3.png"" class=""exp-image"">
                    <div class=""question-area""></div> 
                </div>","null","","","","","","","","","","","",""
"","","","","","html-button-response","43","254559","0.0-43.0","6C69C07C94D14B6F9E0F5E0C1302D8C9","019cfc35-146e-74d5-9fb5-4b6195ecc266","019cfc28-2143-7934-89cc-ce6402563331","","408","
                <div class=""stimulus-container"">
                    <img src=""images/schematic_sequence/interview_scheme/interview_scheme_3.png"" class=""exp-image"">
                    <div class=""question-area"">
                        <p style=""font-size: 20px; font-weight: bold; margin: 0;"">Is there a person in this image?</p>
                    </div>
                </div>","1","main_experiment_trial","3","interview_scheme","schematic_sequence","chronological","","","","","","",""
"","","","","","html-keyboard-response","44","259562","0.0-44.0","6C69C07C94D14B6F9E0F5E0C1302D8C9","019cfc35-146e-74d5-9fb5-4b6195ecc266","019cfc28-2143-7934-89cc-ce6402563331","","null","
                <div class=""stimulus-container"">
                    <img src=""images/schematic_sequence/interview_scheme/interview_scheme_4.png"" class=""exp-image"">
                    <div class=""question-area""></div> 
                </div>","null","","","","","","","","","","","",""
"","","","","","html-button-response","45","260576","0.0-45.0","6C69C07C94D14B6F9E0F5E0C1302D8C9","019cfc35-146e-74d5-9fb5-4b6195ecc266","019cfc28-2143-7934-89cc-ce6402563331","","1014","
                <div class=""stimulus-container"">
                    <img src=""images/schematic_sequence/interview_scheme/interview_scheme_4.png"" class=""exp-image"">
                    <div class=""question-area"">
                        <p style=""font-size: 20px; font-weight: bold; margin: 0;"">Is there a person in this image?</p>
                    </div>
                </div>","1","main_experiment_trial","4","interview_scheme","schematic_sequence","chronological","","","","","","",""
"","","","","","html-keyboard-response","46","265589","0.0-46.0","6C69C07C94D14B6F9E0F5E0C1302D8C9","019cfc35-146e-74d5-9fb5-4b6195ecc266","019cfc28-2143-7934-89cc-ce6402563331","","null","
                <div class=""stimulus-container"">
                    <img src=""images/schematic_sequence/interview_scheme/interview_scheme_5.png"" class=""exp-image"">
                    <div class=""question-area""></div> 
                </div>","null","","","","","","","","","","","",""
"","","","","","html-button-response","47","266508","0.0-47.0","6C69C07C94D14B6F9E0F5E0C1302D8C9","019cfc35-146e-74d5-9fb5-4b6195ecc266","019cfc28-2143-7934-89cc-ce6402563331","","919","
                <div class=""stimulus-container"">
                    <img src=""images/schematic_sequence/interview_scheme/interview_scheme_5.png"" class=""exp-image"">
                    <div class=""question-area"">
                        <p style=""font-size: 20px; font-weight: bold; margin: 0;"">Is there a person in this image?</p>
                    </div>
                </div>","0","main_experiment_trial","5","interview_scheme","schematic_sequence","chronological","","","","","","",""
"","","","","","html-keyboard-response","48","271522","0.0-48.0","6C69C07C94D14B6F9E0F5E0C1302D8C9","019cfc35-146e-74d5-9fb5-4b6195ecc266","019cfc28-2143-7934-89cc-ce6402563331","","null","
                <div class=""stimulus-container"">
                    <img src=""images/schematic_sequence/interview_scheme/interview_scheme_6.png"" class=""exp-image"">
                    <div class=""question-area""></div> 
                </div>","null","","","","","","","","","","","",""
"","","","","","html-button-response","49","272185","0.0-49.0","6C69C07C94D14B6F9E0F5E0C1302D8C9","019cfc35-146e-74d5-9fb5-4b6195ecc266","019cfc28-2143-7934-89cc-ce6402563331","","663","
                <div class=""stimulus-container"">
                    <img src=""images/schematic_sequence/interview_scheme/interview_scheme_6.png"" class=""exp-image"">
                    <div class=""question-area"">
                        <p style=""font-size: 20px; font-weight: bold; margin: 0;"">Is there a person in this image?</p>
                    </div>
                </div>","0","main_experiment_trial","6","interview_scheme","schematic_sequence","chronological","","","","","","",""
"","","","","","html-keyboard-response","50","277197","0.0-50.0","6C69C07C94D14B6F9E0F5E0C1302D8C9","019cfc35-146e-74d5-9fb5-4b6195ecc266","019cfc28-2143-7934-89cc-ce6402563331","","null","
                <div class=""stimulus-container"">
                    <img src=""images/schematic_sequence/interview_scheme/interview_scheme_7.png"" class=""exp-image"">
                    <div class=""question-area""></div> 
                </div>","null","","","","","","","","","","","",""
"","","","","","html-button-response","51","277924","0.0-51.0","6C69C07C94D14B6F9E0F5E0C1302D8C9","019cfc35-146e-74d5-9fb5-4b6195ecc266","019cfc28-2143-7934-89cc-ce6402563331","","727","
                <div class=""stimulus-container"">
                    <img src=""images/schematic_sequence/interview_scheme/interview_scheme_7.png"" class=""exp-image"">
                    <div class=""question-area"">
                        <p style=""font-size: 20px; font-weight: bold; margin: 0;"">Is there a person in this image?</p>
                    </div>
                </div>","0","main_experiment_trial","7","interview_scheme","schematic_sequence","chronological","","","","","","",""
"","","","","","html-keyboard-response","52","282937","0.0-52.0","6C69C07C94D14B6F9E0F5E0C1302D8C9","019cfc35-146e-74d5-9fb5-4b6195ecc266","019cfc28-2143-7934-89cc-ce6402563331","","null","
                <div class=""stimulus-container"">
                    <img src=""images/schematic_sequence/interview_scheme/interview_scheme_8.png"" class=""exp-image"">
                    <div class=""question-area""></div> 
                </div>","null","","","","","","","","","","","",""
"","","","","","html-button-response","53","283517","0.0-53.0","6C69C07C94D14B6F9E0F5E0C1302D8C9","019cfc35-146e-74d5-9fb5-4b6195ecc266","019cfc28-2143-7934-89cc-ce6402563331","","580","
                <div class=""stimulus-container"">
                    <img src=""images/schematic_sequence/interview_scheme/interview_scheme_8.png"" class=""exp-image"">
                    <div class=""question-area"">
                        <p style=""font-size: 20px; font-weight: bold; margin: 0;"">Is there a person in this image?</p>
                    </div>
                </div>","0","main_experiment_trial","8","interview_scheme","schematic_sequence","chronological","","","","","","",""
"","","","","","html-keyboard-response","54","288534","0.0-54.0","6C69C07C94D14B6F9E0F5E0C1302D8C9","019cfc35-146e-74d5-9fb5-4b6195ecc266","019cfc28-2143-7934-89cc-ce6402563331","","null","
                <div class=""stimulus-container"">
                    <img src=""images/schematic_sequence/interview_scheme/interview_scheme_9.png"" class=""exp-image"">
                    <div class=""question-area""></div> 
                </div>","null","","","","","","","","","","","",""
"","","","","","html-button-response","55","289370","0.0-55.0","6C69C07C94D14B6F9E0F5E0C1302D8C9","019cfc35-146e-74d5-9fb5-4b6195ecc266","019cfc28-2143-7934-89cc-ce6402563331","","836","
                <div class=""stimulus-container"">
                    <img src=""images/schematic_sequence/interview_scheme/interview_scheme_9.png"" class=""exp-image"">
                    <div class=""question-area"">
                        <p style=""font-size: 20px; font-weight: bold; margin: 0;"">Is there a person in this image?</p>
                    </div>
                </div>","0","main_experiment_trial","9","interview_scheme","schematic_sequence","chronological","","","","","","",""
"","","","","","html-keyboard-response","56","294372","0.0-56.0","6C69C07C94D14B6F9E0F5E0C1302D8C9","019cfc35-146e-74d5-9fb5-4b6195ecc266","019cfc28-2143-7934-89cc-ce6402563331","","null","
                <div class=""stimulus-container"">
                    <img src=""images/schematic_sequence/interview_scheme/interview_scheme_ten.png"" class=""exp-image"">
                    <div class=""question-area""></div> 
                </div>","null","","","","","","","","","","","",""
"","","","","","html-button-response","57","295165","0.0-57.0","6C69C07C94D14B6F9E0F5E0C1302D8C9","019cfc35-146e-74d5-9fb5-4b6195ecc266","019cfc28-2143-7934-89cc-ce6402563331","","793","
                <div class=""stimulus-container"">
                    <img src=""images/schematic_sequence/interview_scheme/interview_scheme_ten.png"" class=""exp-image"">
                    <div class=""question-area"">
                        <p style=""font-size: 20px; font-weight: bold; margin: 0;"">Is there a person in this image?</p>
                    </div>
                </div>","0","main_experiment_trial","ten","interview_scheme","schematic_sequence","chronological","","","","","","",""
"","","","","","html-keyboard-response","58","300168","0.0-58.0","6C69C07C94D14B6F9E0F5E0C1302D8C9","019cfc35-146e-74d5-9fb5-4b6195ecc266","019cfc28-2143-7934-89cc-ce6402563331","","null","<div style=""background-color: white; width: 100vw; height: 100vh;""></div>","null","","","","","","","","","","","",""
"","","","","","html-keyboard-response","59","305172","0.0-59.0","6C69C07C94D14B6F9E0F5E0C1302D8C9","019cfc35-146e-74d5-9fb5-4b6195ecc266","019cfc28-2143-7934-89cc-ce6402563331","","null","
                <div class=""stimulus-container"">
                    <img src=""images/schematic_sequence/supermarket_scheme/supermarket_scheme_1.png"" class=""exp-image"">
                    <div class=""question-area""></div> 
                </div>","null","","","","","","","","","","","",""
"","","","","","html-button-response","60","306792","0.0-60.0","6C69C07C94D14B6F9E0F5E0C1302D8C9","019cfc35-146e-74d5-9fb5-4b6195ecc266","019cfc28-2143-7934-89cc-ce6402563331","","1620","
                <div class=""stimulus-container"">
                    <img src=""images/schematic_sequence/supermarket_scheme/supermarket_scheme_1.png"" class=""exp-image"">
                    <div class=""question-area"">
                        <p style=""font-size: 20px; font-weight: bold; margin: 0;"">Is there a person in this image?</p>
                    </div>
                </div>","1","main_experiment_trial","1","supermarket_scheme","schematic_sequence","chronological","","","","","","",""
"","","","","","html-keyboard-response","61","311797","0.0-61.0","6C69C07C94D14B6F9E0F5E0C1302D8C9","019cfc35-146e-74d5-9fb5-4b6195ecc266","019cfc28-2143-7934-89cc-ce6402563331","","null","
                <div class=""stimulus-container"">
                    <img src=""images/schematic_sequence/supermarket_scheme/supermarket_scheme_2.png"" class=""exp-image"">
                    <div class=""question-area""></div> 
                </div>","null","","","","","","","","","","","",""
"","","","","","html-button-response","62","312101","0.0-62.0","6C69C07C94D14B6F9E0F5E0C1302D8C9","019cfc35-146e-74d5-9fb5-4b6195ecc266","019cfc28-2143-7934-89cc-ce6402563331","","304","
                <div class=""stimulus-container"">
                    <img src=""images/schematic_sequence/supermarket_scheme/supermarket_scheme_2.png"" class=""exp-image"">
                    <div class=""question-area"">
                        <p style=""font-size: 20px; font-weight: bold; margin: 0;"">Is there a person in this image?</p>
                    </div>
                </div>","1","main_experiment_trial","2","supermarket_scheme","schematic_sequence","chronological","","","","","","",""
"","","","","","html-keyboard-response","63","317104","0.0-63.0","6C69C07C94D14B6F9E0F5E0C1302D8C9","019cfc35-146e-74d5-9fb5-4b6195ecc266","019cfc28-2143-7934-89cc-ce6402563331","","null","
                <div class=""stimulus-container"">
                    <img src=""images/schematic_sequence/supermarket_scheme/supermarket_scheme_3.png"" class=""exp-image"">
                    <div class=""question-area""></div> 
                </div>","null","","","","","","","","","","","",""
"","","","","","html-button-response","64","318085","0.0-64.0","6C69C07C94D14B6F9E0F5E0C1302D8C9","019cfc35-146e-74d5-9fb5-4b6195ecc266","019cfc28-2143-7934-89cc-ce6402563331","","981","
                <div class=""stimulus-container"">
                    <img src=""images/schematic_sequence/supermarket_scheme/supermarket_scheme_3.png"" class=""exp-image"">
                    <div class=""question-area"">
                        <p style=""font-size: 20px; font-weight: bold; margin: 0;"">Is there a person in this image?</p>
                    </div>
                </div>","1","main_experiment_trial","3","supermarket_scheme","schematic_sequence","chronological","","","","","","",""
"","","","","","html-keyboard-response","65","323089","0.0-65.0","6C69C07C94D14B6F9E0F5E0C1302D8C9","019cfc35-146e-74d5-9fb5-4b6195ecc266","019cfc28-2143-7934-89cc-ce6402563331","","null","
                <div class=""stimulus-container"">
                    <img src=""images/schematic_sequence/supermarket_scheme/supermarket_scheme_4.png"" class=""exp-image"">
                    <div class=""question-area""></div> 
                </div>","null","","","","","","","","","","","",""
"","","","","","html-button-response","66","324035","0.0-66.0","6C69C07C94D14B6F9E0F5E0C1302D8C9","019cfc35-146e-74d5-9fb5-4b6195ecc266","019cfc28-2143-7934-89cc-ce6402563331","","946","
                <div class=""stimulus-container"">
                    <img src=""images/schematic_sequence/supermarket_scheme/supermarket_scheme_4.png"" class=""exp-image"">
                    <div class=""question-area"">
                        <p style=""font-size: 20px; font-weight: bold; margin: 0;"">Is there a person in this image?</p>
                    </div>
                </div>","0","main_experiment_trial","4","supermarket_scheme","schematic_sequence","chronological","","","","","","",""
"","","","","","html-keyboard-response","67","329036","0.0-67.0","6C69C07C94D14B6F9E0F5E0C1302D8C9","019cfc35-146e-74d5-9fb5-4b6195ecc266","019cfc28-2143-7934-89cc-ce6402563331","","null","
                <div class=""stimulus-container"">
                    <img src=""images/schematic_sequence/supermarket_scheme/supermarket_scheme_5.png"" class=""exp-image"">
                    <div class=""question-area""></div> 
                </div>","null","","","","","","","","","","","",""
"","","","","","html-button-response","68","329799","0.0-68.0","6C69C07C94D14B6F9E0F5E0C1302D8C9","019cfc35-146e-74d5-9fb5-4b6195ecc266","019cfc28-2143-7934-89cc-ce6402563331","","763","
                <div class=""stimulus-container"">
                    <img src=""images/schematic_sequence/supermarket_scheme/supermarket_scheme_5.png"" class=""exp-image"">
                    <div class=""question-area"">
                        <p style=""font-size: 20px; font-weight: bold; margin: 0;"">Is there a person in this image?</p>
                    </div>
                </div>","1","main_experiment_trial","5","supermarket_scheme","schematic_sequence","chronological","","","","","","",""
"","","","","","html-keyboard-response","69","334805","0.0-69.0","6C69C07C94D14B6F9E0F5E0C1302D8C9","019cfc35-146e-74d5-9fb5-4b6195ecc266","019cfc28-2143-7934-89cc-ce6402563331","","null","
                <div class=""stimulus-container"">
                    <img src=""images/schematic_sequence/supermarket_scheme/supermarket_scheme_6.png"" class=""exp-image"">
                    <div class=""question-area""></div> 
                </div>","null","","","","","","","","","","","",""
"","","","","","html-button-response","70","335494","0.0-70.0","6C69C07C94D14B6F9E0F5E0C1302D8C9","019cfc35-146e-74d5-9fb5-4b6195ecc266","019cfc28-2143-7934-89cc-ce6402563331","","689","
                <div class=""stimulus-container"">
                    <img src=""images/schematic_sequence/supermarket_scheme/supermarket_scheme_6.png"" class=""exp-image"">
                    <div class=""question-area"">
                        <p style=""font-size: 20px; font-weight: bold; margin: 0;"">Is there a person in this image?</p>
                    </div>
                </div>","0","main_experiment_trial","6","supermarket_scheme","schematic_sequence","chronological","","","","","","",""
"","","","","","html-keyboard-response","71","340499","0.0-71.0","6C69C07C94D14B6F9E0F5E0C1302D8C9","019cfc35-146e-74d5-9fb5-4b6195ecc266","019cfc28-2143-7934-89cc-ce6402563331","","null","
                <div class=""stimulus-container"">
                    <img src=""images/schematic_sequence/supermarket_scheme/supermarket_scheme_7.png"" class=""exp-image"">
                    <div class=""question-area""></div> 
                </div>","null","","","","","","","","","","","",""
"","","","","","html-button-response","72","341082","0.0-72.0","6C69C07C94D14B6F9E0F5E0C1302D8C9","019cfc35-146e-74d5-9fb5-4b6195ecc266","019cfc28-2143-7934-89cc-ce6402563331","","583","
                <div class=""stimulus-container"">
                    <img src=""images/schematic_sequence/supermarket_scheme/supermarket_scheme_7.png"" class=""exp-image"">
                    <div class=""question-area"">
                        <p style=""font-size: 20px; font-weight: bold; margin: 0;"">Is there a person in this image?</p>
                    </div>
                </div>","0","main_experiment_trial","7","supermarket_scheme","schematic_sequence","chronological","","","","","","",""
"","","","","","html-keyboard-response","73","346098","0.0-73.0","6C69C07C94D14B6F9E0F5E0C1302D8C9","019cfc35-146e-74d5-9fb5-4b6195ecc266","019cfc28-2143-7934-89cc-ce6402563331","","null","
                <div class=""stimulus-container"">
                    <img src=""images/schematic_sequence/supermarket_scheme/supermarket_scheme_8.png"" class=""exp-image"">
                    <div class=""question-area""></div> 
                </div>","null","","","","","","","","","","","",""
"","","","","","html-button-response","74","346613","0.0-74.0","6C69C07C94D14B6F9E0F5E0C1302D8C9","019cfc35-146e-74d5-9fb5-4b6195ecc266","019cfc28-2143-7934-89cc-ce6402563331","","515","
                <div class=""stimulus-container"">
                    <img src=""images/schematic_sequence/supermarket_scheme/supermarket_scheme_8.png"" class=""exp-image"">
                    <div class=""question-area"">
                        <p style=""font-size: 20px; font-weight: bold; margin: 0;"">Is there a person in this image?</p>
                    </div>
                </div>","0","main_experiment_trial","8","supermarket_scheme","schematic_sequence","chronological","","","","","","",""
"","","","","","html-keyboard-response","75","351629","0.0-75.0","6C69C07C94D14B6F9E0F5E0C1302D8C9","019cfc35-146e-74d5-9fb5-4b6195ecc266","019cfc28-2143-7934-89cc-ce6402563331","","null","
                <div class=""stimulus-container"">
                    <img src=""images/schematic_sequence/supermarket_scheme/supermarket_scheme_9.png"" class=""exp-image"">
                    <div class=""question-area""></div> 
                </div>","null","","","","","","","","","","","",""
"","","","","","html-button-response","76","352444","0.0-76.0","6C69C07C94D14B6F9E0F5E0C1302D8C9","019cfc35-146e-74d5-9fb5-4b6195ecc266","019cfc28-2143-7934-89cc-ce6402563331","","815","
                <div class=""stimulus-container"">
                    <img src=""images/schematic_sequence/supermarket_scheme/supermarket_scheme_9.png"" class=""exp-image"">
                    <div class=""question-area"">
                        <p style=""font-size: 20px; font-weight: bold; margin: 0;"">Is there a person in this image?</p>
                    </div>
                </div>","0","main_experiment_trial","9","supermarket_scheme","schematic_sequence","chronological","","","","","","",""
"","","","","","html-keyboard-response","77","357460","0.0-77.0","6C69C07C94D14B6F9E0F5E0C1302D8C9","019cfc35-146e-74d5-9fb5-4b6195ecc266","019cfc28-2143-7934-89cc-ce6402563331","","null","
                <div class=""stimulus-container"">
                    <img src=""images/schematic_sequence/supermarket_scheme/supermarket_scheme_ten.png"" class=""exp-image"">
                    <div class=""question-area""></div> 
                </div>","null","","","","","","","","","","","",""
"","","","","","html-button-response","78","358516","0.0-78.0","6C69C07C94D14B6F9E0F5E0C1302D8C9","019cfc35-146e-74d5-9fb5-4b6195ecc266","019cfc28-2143-7934-89cc-ce6402563331","","1056","
                <div class=""stimulus-container"">
                    <img src=""images/schematic_sequence/supermarket_scheme/supermarket_scheme_ten.png"" class=""exp-image"">
                    <div class=""question-area"">
                        <p style=""font-size: 20px; font-weight: bold; margin: 0;"">Is there a person in this image?</p>
                    </div>
                </div>","1","main_experiment_trial","ten","supermarket_scheme","schematic_sequence","chronological","","","","","","",""
"","","","","","html-keyboard-response","79","363532","0.0-79.0","6C69C07C94D14B6F9E0F5E0C1302D8C9","019cfc35-146e-74d5-9fb5-4b6195ecc266","019cfc28-2143-7934-89cc-ce6402563331","","null","<div style=""background-color: white; width: 100vw; height: 100vh;""></div>","null","","","","","","","","","","","",""
"","","","","","html-keyboard-response","80","368540","0.0-80.0","6C69C07C94D14B6F9E0F5E0C1302D8C9","019cfc35-146e-74d5-9fb5-4b6195ecc266","019cfc28-2143-7934-89cc-ce6402563331","","null","
                <div class=""stimulus-container"">
                    <img src=""images/semantic_sequence/exploring_nature_semantic/exploring_nature_semantic_1.png"" class=""exp-image"">
                    <div class=""question-area""></div> 
                </div>","null","","","","","","","","","","","",""
"","","","","","html-button-response","81","370066","0.0-81.0","6C69C07C94D14B6F9E0F5E0C1302D8C9","019cfc35-146e-74d5-9fb5-4b6195ecc266","019cfc28-2143-7934-89cc-ce6402563331","","1526","
                <div class=""stimulus-container"">
                    <img src=""images/semantic_sequence/exploring_nature_semantic/exploring_nature_semantic_1.png"" class=""exp-image"">
                    <div class=""question-area"">
                        <p style=""font-size: 20px; font-weight: bold; margin: 0;"">Is there a person in this image?</p>
                    </div>
                </div>","0","main_experiment_trial","1","exploring_nature_semantic","semantic_sequence","chronological","","","","","","",""
"","","","","","html-keyboard-response","82","375067","0.0-82.0","6C69C07C94D14B6F9E0F5E0C1302D8C9","019cfc35-146e-74d5-9fb5-4b6195ecc266","019cfc28-2143-7934-89cc-ce6402563331","","null","
                <div class=""stimulus-container"">
                    <img src=""images/semantic_sequence/exploring_nature_semantic/exploring_nature_semantic_2.png"" class=""exp-image"">
                    <div class=""question-area""></div> 
                </div>","null","","","","","","","","","","","",""
"","","","","","html-button-response","83","375846","0.0-83.0","6C69C07C94D14B6F9E0F5E0C1302D8C9","019cfc35-146e-74d5-9fb5-4b6195ecc266","019cfc28-2143-7934-89cc-ce6402563331","","779","
                <div class=""stimulus-container"">
                    <img src=""images/semantic_sequence/exploring_nature_semantic/exploring_nature_semantic_2.png"" class=""exp-image"">
                    <div class=""question-area"">
                        <p style=""font-size: 20px; font-weight: bold; margin: 0;"">Is there a person in this image?</p>
                    </div>
                </div>","0","main_experiment_trial","2","exploring_nature_semantic","semantic_sequence","chronological","","","","","","",""
"","","","","","html-keyboard-response","84","380862","0.0-84.0","6C69C07C94D14B6F9E0F5E0C1302D8C9","019cfc35-146e-74d5-9fb5-4b6195ecc266","019cfc28-2143-7934-89cc-ce6402563331","","null","
                <div class=""stimulus-container"">
                    <img src=""images/semantic_sequence/exploring_nature_semantic/exploring_nature_semantic_3.png"" class=""exp-image"">
                    <div class=""question-area""></div> 
                </div>","null","","","","","","","","","","","",""
"","","","","","html-button-response","85","383237","0.0-85.0","6C69C07C94D14B6F9E0F5E0C1302D8C9","019cfc35-146e-74d5-9fb5-4b6195ecc266","019cfc28-2143-7934-89cc-ce6402563331","","2375","
                <div class=""stimulus-container"">
                    <img src=""images/semantic_sequence/exploring_nature_semantic/exploring_nature_semantic_3.png"" class=""exp-image"">
                    <div class=""question-area"">
                        <p style=""font-size: 20px; font-weight: bold; margin: 0;"">Is there a person in this image?</p>
                    </div>
                </div>","0","main_experiment_trial","3","exploring_nature_semantic","semantic_sequence","chronological","","","","","","",""
"","","","","","html-keyboard-response","86","388249","0.0-86.0","6C69C07C94D14B6F9E0F5E0C1302D8C9","019cfc35-146e-74d5-9fb5-4b6195ecc266","019cfc28-2143-7934-89cc-ce6402563331","","null","
                <div class=""stimulus-container"">
                    <img src=""images/semantic_sequence/exploring_nature_semantic/exploring_nature_semantic_4.png"" class=""exp-image"">
                    <div class=""question-area""></div> 
                </div>","null","","","","","","","","","","","",""
"","","","","","html-button-response","87","388984","0.0-87.0","6C69C07C94D14B6F9E0F5E0C1302D8C9","019cfc35-146e-74d5-9fb5-4b6195ecc266","019cfc28-2143-7934-89cc-ce6402563331","","735","
                <div class=""stimulus-container"">
                    <img src=""images/semantic_sequence/exploring_nature_semantic/exploring_nature_semantic_4.png"" class=""exp-image"">
                    <div class=""question-area"">
                        <p style=""font-size: 20px; font-weight: bold; margin: 0;"">Is there a person in this image?</p>
                    </div>
                </div>","0","main_experiment_trial","4","exploring_nature_semantic","semantic_sequence","chronological","","","","","","",""
"","","","","","html-keyboard-response","88","393993","0.0-88.0","6C69C07C94D14B6F9E0F5E0C1302D8C9","019cfc35-146e-74d5-9fb5-4b6195ecc266","019cfc28-2143-7934-89cc-ce6402563331","","null","
                <div class=""stimulus-container"">
                    <img src=""images/semantic_sequence/exploring_nature_semantic/exploring_nature_semantic_5.png"" class=""exp-image"">
                    <div class=""question-area""></div> 
                </div>","null","","","","","","","","","","","",""
"","","","","","html-button-response","89","394469","0.0-89.0","6C69C07C94D14B6F9E0F5E0C1302D8C9","019cfc35-146e-74d5-9fb5-4b6195ecc266","019cfc28-2143-7934-89cc-ce6402563331","","476","
                <div class=""stimulus-container"">
                    <img src=""images/semantic_sequence/exploring_nature_semantic/exploring_nature_semantic_5.png"" class=""exp-image"">
                    <div class=""question-area"">
                        <p style=""font-size: 20px; font-weight: bold; margin: 0;"">Is there a person in this image?</p>
                    </div>
                </div>","0","main_experiment_trial","5","exploring_nature_semantic","semantic_sequence","chronological","","","","","","",""
"","","","","","html-keyboard-response","90","399479","0.0-90.0","6C69C07C94D14B6F9E0F5E0C1302D8C9","019cfc35-146e-74d5-9fb5-4b6195ecc266","019cfc28-2143-7934-89cc-ce6402563331","","null","
                <div class=""stimulus-container"">
                    <img src=""images/semantic_sequence/exploring_nature_semantic/exploring_nature_semantic_6.png"" class=""exp-image"">
                    <div class=""question-area""></div> 
                </div>","null","","","","","","","","","","","",""
"","","","","","html-button-response","91","399902","0.0-91.0","6C69C07C94D14B6F9E0F5E0C1302D8C9","019cfc35-146e-74d5-9fb5-4b6195ecc266","019cfc28-2143-7934-89cc-ce6402563331","","423","
                <div class=""stimulus-container"">
                    <img src=""images/semantic_sequence/exploring_nature_semantic/exploring_nature_semantic_6.png"" class=""exp-image"">
                    <div class=""question-area"">
                        <p style=""font-size: 20px; font-weight: bold; margin: 0;"">Is there a person in this image?</p>
                    </div>
                </div>","0","main_experiment_trial","6","exploring_nature_semantic","semantic_sequence","chronological","","","","","","",""
"","","","","","html-keyboard-response","92","404904","0.0-92.0","6C69C07C94D14B6F9E0F5E0C1302D8C9","019cfc35-146e-74d5-9fb5-4b6195ecc266","019cfc28-2143-7934-89cc-ce6402563331","","null","
                <div class=""stimulus-container"">
                    <img src=""images/semantic_sequence/exploring_nature_semantic/exploring_nature_semantic_7.png"" class=""exp-image"">
                    <div class=""question-area""></div> 
                </div>","null","","","","","","","","","","","",""
"","","","","","html-button-response","93","406116","0.0-93.0","6C69C07C94D14B6F9E0F5E0C1302D8C9","019cfc35-146e-74d5-9fb5-4b6195ecc266","019cfc28-2143-7934-89cc-ce6402563331","","1212","
                <div class=""stimulus-container"">
                    <img src=""images/semantic_sequence/exploring_nature_semantic/exploring_nature_semantic_7.png"" class=""exp-image"">
                    <div class=""question-area"">
                        <p style=""font-size: 20px; font-weight: bold; margin: 0;"">Is there a person in this image?</p>
                    </div>
                </div>","0","main_experiment_trial","7","exploring_nature_semantic","semantic_sequence","chronological","","","","","","",""
"","","","","","html-keyboard-response","94","411119","0.0-94.0","6C69C07C94D14B6F9E0F5E0C1302D8C9","019cfc35-146e-74d5-9fb5-4b6195ecc266","019cfc28-2143-7934-89cc-ce6402563331","","null","
                <div class=""stimulus-container"">
                    <img src=""images/semantic_sequence/exploring_nature_semantic/exploring_nature_semantic_8.png"" class=""exp-image"">
                    <div class=""question-area""></div> 
                </div>","null","","","","","","","","","","","",""
"","","","","","html-button-response","95","411608","0.0-95.0","6C69C07C94D14B6F9E0F5E0C1302D8C9","019cfc35-146e-74d5-9fb5-4b6195ecc266","019cfc28-2143-7934-89cc-ce6402563331","","488","
                <div class=""stimulus-container"">
                    <img src=""images/semantic_sequence/exploring_nature_semantic/exploring_nature_semantic_8.png"" class=""exp-image"">
                    <div class=""question-area"">
                        <p style=""font-size: 20px; font-weight: bold; margin: 0;"">Is there a person in this image?</p>
                    </div>
                </div>","0","main_experiment_trial","8","exploring_nature_semantic","semantic_sequence","chronological","","","","","","",""
"","","","","","html-keyboard-response","96","416616","0.0-96.0","6C69C07C94D14B6F9E0F5E0C1302D8C9","019cfc35-146e-74d5-9fb5-4b6195ecc266","019cfc28-2143-7934-89cc-ce6402563331","","null","
                <div class=""stimulus-container"">
                    <img src=""images/semantic_sequence/exploring_nature_semantic/exploring_nature_semantic_9.png"" class=""exp-image"">
                    <div class=""question-area""></div> 
                </div>","null","","","","","","","","","","","",""
"","","","","","html-button-response","97","417619","0.0-97.0","6C69C07C94D14B6F9E0F5E0C1302D8C9","019cfc35-146e-74d5-9fb5-4b6195ecc266","019cfc28-2143-7934-89cc-ce6402563331","","1003","
                <div class=""stimulus-container"">
                    <img src=""images/semantic_sequence/exploring_nature_semantic/exploring_nature_semantic_9.png"" class=""exp-image"">
                    <div class=""question-area"">
                        <p style=""font-size: 20px; font-weight: bold; margin: 0;"">Is there a person in this image?</p>
                    </div>
                </div>","0","main_experiment_trial","9","exploring_nature_semantic","semantic_sequence","chronological","","","","","","",""
"","","","","","html-keyboard-response","98","422631","0.0-98.0","6C69C07C94D14B6F9E0F5E0C1302D8C9","019cfc35-146e-74d5-9fb5-4b6195ecc266","019cfc28-2143-7934-89cc-ce6402563331","","null","
                <div class=""stimulus-container"">
                    <img src=""images/semantic_sequence/exploring_nature_semantic/exploring_nature_semantic_ten.png"" class=""exp-image"">
                    <div class=""question-area""></div> 
                </div>","null","","","","","","","","","","","",""
"","","","","","html-button-response","99","423105","0.0-99.0","6C69C07C94D14B6F9E0F5E0C1302D8C9","019cfc35-146e-74d5-9fb5-4b6195ecc266","019cfc28-2143-7934-89cc-ce6402563331","","473","
                <div class=""stimulus-container"">
                    <img src=""images/semantic_sequence/exploring_nature_semantic/exploring_nature_semantic_ten.png"" class=""exp-image"">
                    <div class=""question-area"">
                        <p style=""font-size: 20px; font-weight: bold; margin: 0;"">Is there a person in this image?</p>
                    </div>
                </div>","0","main_experiment_trial","ten","exploring_nature_semantic","semantic_sequence","chronological","","","","","","",""
"","","","","","html-keyboard-response","100","428110","0.0-100.0","6C69C07C94D14B6F9E0F5E0C1302D8C9","019cfc35-146e-74d5-9fb5-4b6195ecc266","019cfc28-2143-7934-89cc-ce6402563331","","null","<div style=""background-color: white; width: 100vw; height: 100vh;""></div>","null","","","","","","","","","","","",""
"","","","","","html-keyboard-response","101","433118","0.0-101.0","6C69C07C94D14B6F9E0F5E0C1302D8C9","019cfc35-146e-74d5-9fb5-4b6195ecc266","019cfc28-2143-7934-89cc-ce6402563331","","null","
                <div class=""stimulus-container"">
                    <img src=""images/schematic_sequence/restaurant_scheme/restaurant_scheme_1.png"" class=""exp-image"">
                    <div class=""question-area""></div> 
                </div>","null","","","","","","","","","","","",""
"","","","","","html-button-response","102","433712","0.0-102.0","6C69C07C94D14B6F9E0F5E0C1302D8C9","019cfc35-146e-74d5-9fb5-4b6195ecc266","019cfc28-2143-7934-89cc-ce6402563331","","594","
                <div class=""stimulus-container"">
                    <img src=""images/schematic_sequence/restaurant_scheme/restaurant_scheme_1.png"" class=""exp-image"">
                    <div class=""question-area"">
                        <p style=""font-size: 20px; font-weight: bold; margin: 0;"">Is there a person in this image?</p>
                    </div>
                </div>","0","main_experiment_trial","1","restaurant_scheme","schematic_sequence","chronological","","","","","","",""
"","","","","","html-keyboard-response","103","438720","0.0-103.0","6C69C07C94D14B6F9E0F5E0C1302D8C9","019cfc35-146e-74d5-9fb5-4b6195ecc266","019cfc28-2143-7934-89cc-ce6402563331","","null","
                <div class=""stimulus-container"">
                    <img src=""images/schematic_sequence/restaurant_scheme/restaurant_scheme_2.png"" class=""exp-image"">
                    <div class=""question-area""></div> 
                </div>","null","","","","","","","","","","","",""
"","","","","","html-button-response","104","441002","0.0-104.0","6C69C07C94D14B6F9E0F5E0C1302D8C9","019cfc35-146e-74d5-9fb5-4b6195ecc266","019cfc28-2143-7934-89cc-ce6402563331","","2282","
                <div class=""stimulus-container"">
                    <img src=""images/schematic_sequence/restaurant_scheme/restaurant_scheme_2.png"" class=""exp-image"">
                    <div class=""question-area"">
                        <p style=""font-size: 20px; font-weight: bold; margin: 0;"">Is there a person in this image?</p>
                    </div>
                </div>","1","main_experiment_trial","2","restaurant_scheme","schematic_sequence","chronological","","","","","","",""
"","","","","","html-keyboard-response","105","446011","0.0-105.0","6C69C07C94D14B6F9E0F5E0C1302D8C9","019cfc35-146e-74d5-9fb5-4b6195ecc266","019cfc28-2143-7934-89cc-ce6402563331","","null","
                <div class=""stimulus-container"">
                    <img src=""images/schematic_sequence/restaurant_scheme/restaurant_scheme_3.png"" class=""exp-image"">
                    <div class=""question-area""></div> 
                </div>","null","","","","","","","","","","","",""
"","","","","","html-button-response","106","447294","0.0-106.0","6C69C07C94D14B6F9E0F5E0C1302D8C9","019cfc35-146e-74d5-9fb5-4b6195ecc266","019cfc28-2143-7934-89cc-ce6402563331","","1283","
                <div class=""stimulus-container"">
                    <img src=""images/schematic_sequence/restaurant_scheme/restaurant_scheme_3.png"" class=""exp-image"">
                    <div class=""question-area"">
                        <p style=""font-size: 20px; font-weight: bold; margin: 0;"">Is there a person in this image?</p>
                    </div>
                </div>","1","main_experiment_trial","3","restaurant_scheme","schematic_sequence","chronological","","","","","","",""
"","","","","","html-keyboard-response","107","452308","0.0-107.0","6C69C07C94D14B6F9E0F5E0C1302D8C9","019cfc35-146e-74d5-9fb5-4b6195ecc266","019cfc28-2143-7934-89cc-ce6402563331","","null","
                <div class=""stimulus-container"">
                    <img src=""images/schematic_sequence/restaurant_scheme/restaurant_scheme_4.png"" class=""exp-image"">
                    <div class=""question-area""></div> 
                </div>","null","","","","","","","","","","","",""
"","","","","","html-button-response","108","453668","0.0-108.0","6C69C07C94D14B6F9E0F5E0C1302D8C9","019cfc35-146e-74d5-9fb5-4b6195ecc266","019cfc28-2143-7934-89cc-ce6402563331","","1360","
                <div class=""stimulus-container"">
                    <img src=""images/schematic_sequence/restaurant_scheme/restaurant_scheme_4.png"" class=""exp-image"">
                    <div class=""question-area"">
                        <p style=""font-size: 20px; font-weight: bold; margin: 0;"">Is there a person in this image?</p>
                    </div>
                </div>","0","main_experiment_trial","4","restaurant_scheme","schematic_sequence","chronological","","","","","","",""
"","","","","","html-keyboard-response","109","458670","0.0-109.0","6C69C07C94D14B6F9E0F5E0C1302D8C9","019cfc35-146e-74d5-9fb5-4b6195ecc266","019cfc28-2143-7934-89cc-ce6402563331","","null","
                <div class=""stimulus-container"">
                    <img src=""images/schematic_sequence/restaurant_scheme/restaurant_scheme_5.png"" class=""exp-image"">
                    <div class=""question-area""></div> 
                </div>","null","","","","","","","","","","","",""
"","","","","","html-button-response","110","459404","0.0-110.0","6C69C07C94D14B6F9E0F5E0C1302D8C9","019cfc35-146e-74d5-9fb5-4b6195ecc266","019cfc28-2143-7934-89cc-ce6402563331","","734","
                <div class=""stimulus-container"">
                    <img src=""images/schematic_sequence/restaurant_scheme/restaurant_scheme_5.png"" class=""exp-image"">
                    <div class=""question-area"">
                        <p style=""font-size: 20px; font-weight: bold; margin: 0;"">Is there a person in this image?</p>
                    </div>
                </div>","0","main_experiment_trial","5","restaurant_scheme","schematic_sequence","chronological","","","","","","",""
"","","","","","html-keyboard-response","111","464408","0.0-111.0","6C69C07C94D14B6F9E0F5E0C1302D8C9","019cfc35-146e-74d5-9fb5-4b6195ecc266","019cfc28-2143-7934-89cc-ce6402563331","","null","
                <div class=""stimulus-container"">
                    <img src=""images/schematic_sequence/restaurant_scheme/restaurant_scheme_6.png"" class=""exp-image"">
                    <div class=""question-area""></div> 
                </div>","null","","","","","","","","","","","",""
"","","","","","html-button-response","112","465338","0.0-112.0","6C69C07C94D14B6F9E0F5E0C1302D8C9","019cfc35-146e-74d5-9fb5-4b6195ecc266","019cfc28-2143-7934-89cc-ce6402563331","","930","
                <div class=""stimulus-container"">
                    <img src=""images/schematic_sequence/restaurant_scheme/restaurant_scheme_6.png"" class=""exp-image"">
                    <div class=""question-area"">
                        <p style=""font-size: 20px; font-weight: bold; margin: 0;"">Is there a person in this image?</p>
                    </div>
                </div>","1","main_experiment_trial","6","restaurant_scheme","schematic_sequence","chronological","","","","","","",""
"","","","","","html-keyboard-response","113","470353","0.0-113.0","6C69C07C94D14B6F9E0F5E0C1302D8C9","019cfc35-146e-74d5-9fb5-4b6195ecc266","019cfc28-2143-7934-89cc-ce6402563331","","null","
                <div class=""stimulus-container"">
                    <img src=""images/schematic_sequence/restaurant_scheme/restaurant_scheme_7.png"" class=""exp-image"">
                    <div class=""question-area""></div> 
                </div>","null","","","","","","","","","","","",""
"","","","","","html-button-response","114","473273","0.0-114.0","6C69C07C94D14B6F9E0F5E0C1302D8C9","019cfc35-146e-74d5-9fb5-4b6195ecc266","019cfc28-2143-7934-89cc-ce6402563331","","2920","
                <div class=""stimulus-container"">
                    <img src=""images/schematic_sequence/restaurant_scheme/restaurant_scheme_7.png"" class=""exp-image"">
                    <div class=""question-area"">
                        <p style=""font-size: 20px; font-weight: bold; margin: 0;"">Is there a person in this image?</p>
                    </div>
                </div>","1","main_experiment_trial","7","restaurant_scheme","schematic_sequence","chronological","","","","","","",""
"","","","","","html-keyboard-response","115","478275","0.0-115.0","6C69C07C94D14B6F9E0F5E0C1302D8C9","019cfc35-146e-74d5-9fb5-4b6195ecc266","019cfc28-2143-7934-89cc-ce6402563331","","null","
                <div class=""stimulus-container"">
                    <img src=""images/schematic_sequence/restaurant_scheme/restaurant_scheme_8.png"" class=""exp-image"">
                    <div class=""question-area""></div> 
                </div>","null","","","","","","","","","","","",""
"","","","","","html-button-response","116","479450","0.0-116.0","6C69C07C94D14B6F9E0F5E0C1302D8C9","019cfc35-146e-74d5-9fb5-4b6195ecc266","019cfc28-2143-7934-89cc-ce6402563331","","1175","
                <div class=""stimulus-container"">
                    <img src=""images/schematic_sequence/restaurant_scheme/restaurant_scheme_8.png"" class=""exp-image"">
                    <div class=""question-area"">
                        <p style=""font-size: 20px; font-weight: bold; margin: 0;"">Is there a person in this image?</p>
                    </div>
                </div>","0","main_experiment_trial","8","restaurant_scheme","schematic_sequence","chronological","","","","","","",""
"","","","","","html-keyboard-response","117","484464","0.0-117.0","6C69C07C94D14B6F9E0F5E0C1302D8C9","019cfc35-146e-74d5-9fb5-4b6195ecc266","019cfc28-2143-7934-89cc-ce6402563331","","null","
                <div class=""stimulus-container"">
                    <img src=""images/schematic_sequence/restaurant_scheme/restaurant_scheme_9.png"" class=""exp-image"">
                    <div class=""question-area""></div> 
                </div>","null","","","","","","","","","","","",""
"","","","","","html-button-response","118","486245","0.0-118.0","6C69C07C94D14B6F9E0F5E0C1302D8C9","019cfc35-146e-74d5-9fb5-4b6195ecc266","019cfc28-2143-7934-89cc-ce6402563331","","1780","
                <div class=""stimulus-container"">
                    <img src=""images/schematic_sequence/restaurant_scheme/restaurant_scheme_9.png"" class=""exp-image"">
                    <div class=""question-area"">
                        <p style=""font-size: 20px; font-weight: bold; margin: 0;"">Is there a person in this image?</p>
                    </div>
                </div>","0","main_experiment_trial","9","restaurant_scheme","schematic_sequence","chronological","","","","","","",""
"","","","","","html-keyboard-response","119","491253","0.0-119.0","6C69C07C94D14B6F9E0F5E0C1302D8C9","019cfc35-146e-74d5-9fb5-4b6195ecc266","019cfc28-2143-7934-89cc-ce6402563331","","null","
                <div class=""stimulus-container"">
                    <img src=""images/schematic_sequence/restaurant_scheme/restaurant_scheme_ten.png"" class=""exp-image"">
                    <div class=""question-area""></div> 
                </div>","null","","","","","","","","","","","",""
"","","","","","html-button-response","120","493643","0.0-120.0","6C69C07C94D14B6F9E0F5E0C1302D8C9","019cfc35-146e-74d5-9fb5-4b6195ecc266","019cfc28-2143-7934-89cc-ce6402563331","","2389","
                <div class=""stimulus-container"">
                    <img src=""images/schematic_sequence/restaurant_scheme/restaurant_scheme_ten.png"" class=""exp-image"">
                    <div class=""question-area"">
                        <p style=""font-size: 20px; font-weight: bold; margin: 0;"">Is there a person in this image?</p>
                    </div>
                </div>","0","main_experiment_trial","ten","restaurant_scheme","schematic_sequence","chronological","","","","","","",""
"","","","","","html-keyboard-response","121","498652","0.0-121.0","6C69C07C94D14B6F9E0F5E0C1302D8C9","019cfc35-146e-74d5-9fb5-4b6195ecc266","019cfc28-2143-7934-89cc-ce6402563331","","null","<div style=""background-color: white; width: 100vw; height: 100vh;""></div>","null","","","","","","","","","","","",""
"","","","","","html-keyboard-response","122","503662","0.0-122.0","6C69C07C94D14B6F9E0F5E0C1302D8C9","019cfc35-146e-74d5-9fb5-4b6195ecc266","019cfc28-2143-7934-89cc-ce6402563331","","null","
                <div class=""stimulus-container"">
                    <img src=""images/semantic_sequence/market_semantic/market_semantic_1.png"" class=""exp-image"">
                    <div class=""question-area""></div> 
                </div>","null","","","","","","","","","","","",""
"","","","","","html-button-response","123","504895","0.0-123.0","6C69C07C94D14B6F9E0F5E0C1302D8C9","019cfc35-146e-74d5-9fb5-4b6195ecc266","019cfc28-2143-7934-89cc-ce6402563331","","1233","
                <div class=""stimulus-container"">
                    <img src=""images/semantic_sequence/market_semantic/market_semantic_1.png"" class=""exp-image"">
                    <div class=""question-area"">
                        <p style=""font-size: 20px; font-weight: bold; margin: 0;"">Is there a person in this image?</p>
                    </div>
                </div>","1","main_experiment_trial","1","market_semantic","semantic_sequence","chronological","","","","","","",""
"","","","","","html-keyboard-response","124","509903","0.0-124.0","6C69C07C94D14B6F9E0F5E0C1302D8C9","019cfc35-146e-74d5-9fb5-4b6195ecc266","019cfc28-2143-7934-89cc-ce6402563331","","null","
                <div class=""stimulus-container"">
                    <img src=""images/semantic_sequence/market_semantic/market_semantic_2.png"" class=""exp-image"">
                    <div class=""question-area""></div> 
                </div>","null","","","","","","","","","","","",""
"","","","","","html-button-response","125","511681","0.0-125.0","6C69C07C94D14B6F9E0F5E0C1302D8C9","019cfc35-146e-74d5-9fb5-4b6195ecc266","019cfc28-2143-7934-89cc-ce6402563331","","1778","
                <div class=""stimulus-container"">
                    <img src=""images/semantic_sequence/market_semantic/market_semantic_2.png"" class=""exp-image"">
                    <div class=""question-area"">
                        <p style=""font-size: 20px; font-weight: bold; margin: 0;"">Is there a person in this image?</p>
                    </div>
                </div>","1","main_experiment_trial","2","market_semantic","semantic_sequence","chronological","","","","","","",""
"","","","","","html-keyboard-response","126","516687","0.0-126.0","6C69C07C94D14B6F9E0F5E0C1302D8C9","019cfc35-146e-74d5-9fb5-4b6195ecc266","019cfc28-2143-7934-89cc-ce6402563331","","null","
                <div class=""stimulus-container"">
                    <img src=""images/semantic_sequence/market_semantic/market_semantic_3.png"" class=""exp-image"">
                    <div class=""question-area""></div> 
                </div>","null","","","","","","","","","","","",""
"","","","","","html-button-response","127","518206","0.0-127.0","6C69C07C94D14B6F9E0F5E0C1302D8C9","019cfc35-146e-74d5-9fb5-4b6195ecc266","019cfc28-2143-7934-89cc-ce6402563331","","1519","
                <div class=""stimulus-container"">
                    <img src=""images/semantic_sequence/market_semantic/market_semantic_3.png"" class=""exp-image"">
                    <div class=""question-area"">
                        <p style=""font-size: 20px; font-weight: bold; margin: 0;"">Is there a person in this image?</p>
                    </div>
                </div>","1","main_experiment_trial","3","market_semantic","semantic_sequence","chronological","","","","","","",""
"","","","","","html-keyboard-response","128","523217","0.0-128.0","6C69C07C94D14B6F9E0F5E0C1302D8C9","019cfc35-146e-74d5-9fb5-4b6195ecc266","019cfc28-2143-7934-89cc-ce6402563331","","null","
                <div class=""stimulus-container"">
                    <img src=""images/semantic_sequence/market_semantic/market_semantic_4.png"" class=""exp-image"">
                    <div class=""question-area""></div> 
                </div>","null","","","","","","","","","","","",""
"","","","","","html-button-response","129","524197","0.0-129.0","6C69C07C94D14B6F9E0F5E0C1302D8C9","019cfc35-146e-74d5-9fb5-4b6195ecc266","019cfc28-2143-7934-89cc-ce6402563331","","980","
                <div class=""stimulus-container"">
                    <img src=""images/semantic_sequence/market_semantic/market_semantic_4.png"" class=""exp-image"">
                    <div class=""question-area"">
                        <p style=""font-size: 20px; font-weight: bold; margin: 0;"">Is there a person in this image?</p>
                    </div>
                </div>","0","main_experiment_trial","4","market_semantic","semantic_sequence","chronological","","","","","","",""
"","","","","","html-keyboard-response","130","529213","0.0-130.0","6C69C07C94D14B6F9E0F5E0C1302D8C9","019cfc35-146e-74d5-9fb5-4b6195ecc266","019cfc28-2143-7934-89cc-ce6402563331","","null","
                <div class=""stimulus-container"">
                    <img src=""images/semantic_sequence/market_semantic/market_semantic_5.png"" class=""exp-image"">
                    <div class=""question-area""></div> 
                </div>","null","","","","","","","","","","","",""
"","","","","","html-button-response","131","530327","0.0-131.0","6C69C07C94D14B6F9E0F5E0C1302D8C9","019cfc35-146e-74d5-9fb5-4b6195ecc266","019cfc28-2143-7934-89cc-ce6402563331","","1114","
                <div class=""stimulus-container"">
                    <img src=""images/semantic_sequence/market_semantic/market_semantic_5.png"" class=""exp-image"">
                    <div class=""question-area"">
                        <p style=""font-size: 20px; font-weight: bold; margin: 0;"">Is there a person in this image?</p>
                    </div>
                </div>","1","main_experiment_trial","5","market_semantic","semantic_sequence","chronological","","","","","","",""
"","","","","","html-keyboard-response","132","535329","0.0-132.0","6C69C07C94D14B6F9E0F5E0C1302D8C9","019cfc35-146e-74d5-9fb5-4b6195ecc266","019cfc28-2143-7934-89cc-ce6402563331","","null","
                <div class=""stimulus-container"">
                    <img src=""images/semantic_sequence/market_semantic/market_semantic_6.png"" class=""exp-image"">
                    <div class=""question-area""></div> 
                </div>","null","","","","","","","","","","","",""
"","","","","","html-button-response","133","537516","0.0-133.0","6C69C07C94D14B6F9E0F5E0C1302D8C9","019cfc35-146e-74d5-9fb5-4b6195ecc266","019cfc28-2143-7934-89cc-ce6402563331","","2187","
                <div class=""stimulus-container"">
                    <img src=""images/semantic_sequence/market_semantic/market_semantic_6.png"" class=""exp-image"">
                    <div class=""question-area"">
                        <p style=""font-size: 20px; font-weight: bold; margin: 0;"">Is there a person in this image?</p>
                    </div>
                </div>","0","main_experiment_trial","6","market_semantic","semantic_sequence","chronological","","","","","","",""
"","","","","","html-keyboard-response","134","542522","0.0-134.0","6C69C07C94D14B6F9E0F5E0C1302D8C9","019cfc35-146e-74d5-9fb5-4b6195ecc266","019cfc28-2143-7934-89cc-ce6402563331","","null","
                <div class=""stimulus-container"">
                    <img src=""images/semantic_sequence/market_semantic/market_semantic_7.png"" class=""exp-image"">
                    <div class=""question-area""></div> 
                </div>","null","","","","","","","","","","","",""
"","","","","","html-button-response","135","543875","0.0-135.0","6C69C07C94D14B6F9E0F5E0C1302D8C9","019cfc35-146e-74d5-9fb5-4b6195ecc266","019cfc28-2143-7934-89cc-ce6402563331","","1353","
                <div class=""stimulus-container"">
                    <img src=""images/semantic_sequence/market_semantic/market_semantic_7.png"" class=""exp-image"">
                    <div class=""question-area"">
                        <p style=""font-size: 20px; font-weight: bold; margin: 0;"">Is there a person in this image?</p>
                    </div>
                </div>","0","main_experiment_trial","7","market_semantic","semantic_sequence","chronological","","","","","","",""
"","","","","","html-keyboard-response","136","548883","0.0-136.0","6C69C07C94D14B6F9E0F5E0C1302D8C9","019cfc35-146e-74d5-9fb5-4b6195ecc266","019cfc28-2143-7934-89cc-ce6402563331","","null","
                <div class=""stimulus-container"">
                    <img src=""images/semantic_sequence/market_semantic/market_semantic_8.png"" class=""exp-image"">
                    <div class=""question-area""></div> 
                </div>","null","","","","","","","","","","","",""
"","","","","","html-button-response","137","549692","0.0-137.0","6C69C07C94D14B6F9E0F5E0C1302D8C9","019cfc35-146e-74d5-9fb5-4b6195ecc266","019cfc28-2143-7934-89cc-ce6402563331","","809","
                <div class=""stimulus-container"">
                    <img src=""images/semantic_sequence/market_semantic/market_semantic_8.png"" class=""exp-image"">
                    <div class=""question-area"">
                        <p style=""font-size: 20px; font-weight: bold; margin: 0;"">Is there a person in this image?</p>
                    </div>
                </div>","0","main_experiment_trial","8","market_semantic","semantic_sequence","chronological","","","","","","",""
"","","","","","html-keyboard-response","138","554698","0.0-138.0","6C69C07C94D14B6F9E0F5E0C1302D8C9","019cfc35-146e-74d5-9fb5-4b6195ecc266","019cfc28-2143-7934-89cc-ce6402563331","","null","
                <div class=""stimulus-container"">
                    <img src=""images/semantic_sequence/market_semantic/market_semantic_9.png"" class=""exp-image"">
                    <div class=""question-area""></div> 
                </div>","null","","","","","","","","","","","",""
"","","","","","html-button-response","139","555448","0.0-139.0","6C69C07C94D14B6F9E0F5E0C1302D8C9","019cfc35-146e-74d5-9fb5-4b6195ecc266","019cfc28-2143-7934-89cc-ce6402563331","","750","
                <div class=""stimulus-container"">
                    <img src=""images/semantic_sequence/market_semantic/market_semantic_9.png"" class=""exp-image"">
                    <div class=""question-area"">
                        <p style=""font-size: 20px; font-weight: bold; margin: 0;"">Is there a person in this image?</p>
                    </div>
                </div>","0","main_experiment_trial","9","market_semantic","semantic_sequence","chronological","","","","","","",""
"","","","","","html-keyboard-response","140","560455","0.0-140.0","6C69C07C94D14B6F9E0F5E0C1302D8C9","019cfc35-146e-74d5-9fb5-4b6195ecc266","019cfc28-2143-7934-89cc-ce6402563331","","null","
                <div class=""stimulus-container"">
                    <img src=""images/semantic_sequence/market_semantic/market_semantic_ten.png"" class=""exp-image"">
                    <div class=""question-area""></div> 
                </div>","null","","","","","","","","","","","",""
"","","","","","html-button-response","141","561752","0.0-141.0","6C69C07C94D14B6F9E0F5E0C1302D8C9","019cfc35-146e-74d5-9fb5-4b6195ecc266","019cfc28-2143-7934-89cc-ce6402563331","","1297","
                <div class=""stimulus-container"">
                    <img src=""images/semantic_sequence/market_semantic/market_semantic_ten.png"" class=""exp-image"">
                    <div class=""question-area"">
                        <p style=""font-size: 20px; font-weight: bold; margin: 0;"">Is there a person in this image?</p>
                    </div>
                </div>","1","main_experiment_trial","ten","market_semantic","semantic_sequence","chronological","","","","","","",""
"","","","","","html-keyboard-response","142","566756","0.0-142.0","6C69C07C94D14B6F9E0F5E0C1302D8C9","019cfc35-146e-74d5-9fb5-4b6195ecc266","019cfc28-2143-7934-89cc-ce6402563331","","null","<div style=""background-color: white; width: 100vw; height: 100vh;""></div>","null","","","","","","","","","","","",""
"","","","","","html-keyboard-response","143","571763","0.0-143.0","6C69C07C94D14B6F9E0F5E0C1302D8C9","019cfc35-146e-74d5-9fb5-4b6195ecc266","019cfc28-2143-7934-89cc-ce6402563331","","null","
                <div class=""stimulus-container"">
                    <img src=""images/semantic_sequence/maintaining_a_car_semantic/maintaining_a_car_semantic_1.png"" class=""exp-image"">
                    <div class=""question-area""></div> 
                </div>","null","","","","","","","","","","","",""
"","","","","","html-button-response","144","573394","0.0-144.0","6C69C07C94D14B6F9E0F5E0C1302D8C9","019cfc35-146e-74d5-9fb5-4b6195ecc266","019cfc28-2143-7934-89cc-ce6402563331","","1631","
                <div class=""stimulus-container"">
                    <img src=""images/semantic_sequence/maintaining_a_car_semantic/maintaining_a_car_semantic_1.png"" class=""exp-image"">
                    <div class=""question-area"">
                        <p style=""font-size: 20px; font-weight: bold; margin: 0;"">Is there a person in this image?</p>
                    </div>
                </div>","0","main_experiment_trial","1","maintaining_a_car_semantic","semantic_sequence","chronological","","","","","","",""
"","","","","","html-keyboard-response","145","578399","0.0-145.0","6C69C07C94D14B6F9E0F5E0C1302D8C9","019cfc35-146e-74d5-9fb5-4b6195ecc266","019cfc28-2143-7934-89cc-ce6402563331","","null","
                <div class=""stimulus-container"">
                    <img src=""images/semantic_sequence/maintaining_a_car_semantic/maintaining_a_car_semantic_2.png"" class=""exp-image"">
                    <div class=""question-area""></div> 
                </div>","null","","","","","","","","","","","",""
"","","","","","html-button-response","146","581112","0.0-146.0","6C69C07C94D14B6F9E0F5E0C1302D8C9","019cfc35-146e-74d5-9fb5-4b6195ecc266","019cfc28-2143-7934-89cc-ce6402563331","","2713","
                <div class=""stimulus-container"">
                    <img src=""images/semantic_sequence/maintaining_a_car_semantic/maintaining_a_car_semantic_2.png"" class=""exp-image"">
                    <div class=""question-area"">
                        <p style=""font-size: 20px; font-weight: bold; margin: 0;"">Is there a person in this image?</p>
                    </div>
                </div>","0","main_experiment_trial","2","maintaining_a_car_semantic","semantic_sequence","chronological","","","","","","",""
"","","","","","html-keyboard-response","147","586124","0.0-147.0","6C69C07C94D14B6F9E0F5E0C1302D8C9","019cfc35-146e-74d5-9fb5-4b6195ecc266","019cfc28-2143-7934-89cc-ce6402563331","","null","
                <div class=""stimulus-container"">
                    <img src=""images/semantic_sequence/maintaining_a_car_semantic/maintaining_a_car_semantic_3.png"" class=""exp-image"">
                    <div class=""question-area""></div> 
                </div>","null","","","","","","","","","","","",""
"","","","","","html-button-response","148","586723","0.0-148.0","6C69C07C94D14B6F9E0F5E0C1302D8C9","019cfc35-146e-74d5-9fb5-4b6195ecc266","019cfc28-2143-7934-89cc-ce6402563331","","599","
                <div class=""stimulus-container"">
                    <img src=""images/semantic_sequence/maintaining_a_car_semantic/maintaining_a_car_semantic_3.png"" class=""exp-image"">
                    <div class=""question-area"">
                        <p style=""font-size: 20px; font-weight: bold; margin: 0;"">Is there a person in this image?</p>
                    </div>
                </div>","0","main_experiment_trial","3","maintaining_a_car_semantic","semantic_sequence","chronological","","","","","","",""
"","","","","","html-keyboard-response","149","591732","0.0-149.0","6C69C07C94D14B6F9E0F5E0C1302D8C9","019cfc35-146e-74d5-9fb5-4b6195ecc266","019cfc28-2143-7934-89cc-ce6402563331","","null","
                <div class=""stimulus-container"">
                    <img src=""images/semantic_sequence/maintaining_a_car_semantic/maintaining_a_car_semantic_4.png"" class=""exp-image"">
                    <div class=""question-area""></div> 
                </div>","null","","","","","","","","","","","",""
"","","","","","html-button-response","150","592406","0.0-150.0","6C69C07C94D14B6F9E0F5E0C1302D8C9","019cfc35-146e-74d5-9fb5-4b6195ecc266","019cfc28-2143-7934-89cc-ce6402563331","","674","
                <div class=""stimulus-container"">
                    <img src=""images/semantic_sequence/maintaining_a_car_semantic/maintaining_a_car_semantic_4.png"" class=""exp-image"">
                    <div class=""question-area"">
                        <p style=""font-size: 20px; font-weight: bold; margin: 0;"">Is there a person in this image?</p>
                    </div>
                </div>","0","main_experiment_trial","4","maintaining_a_car_semantic","semantic_sequence","chronological","","","","","","",""
"","","","","","html-keyboard-response","151","597409","0.0-151.0","6C69C07C94D14B6F9E0F5E0C1302D8C9","019cfc35-146e-74d5-9fb5-4b6195ecc266","019cfc28-2143-7934-89cc-ce6402563331","","null","
                <div class=""stimulus-container"">
                    <img src=""images/semantic_sequence/maintaining_a_car_semantic/maintaining_a_car_semantic_5.png"" class=""exp-image"">
                    <div class=""question-area""></div> 
                </div>","null","","","","","","","","","","","",""
"","","","","","html-button-response","152","600423","0.0-152.0","6C69C07C94D14B6F9E0F5E0C1302D8C9","019cfc35-146e-74d5-9fb5-4b6195ecc266","019cfc28-2143-7934-89cc-ce6402563331","","null","
                <div class=""stimulus-container"">
                    <img src=""images/semantic_sequence/maintaining_a_car_semantic/maintaining_a_car_semantic_5.png"" class=""exp-image"">
                    <div class=""question-area"">
                        <p style=""font-size: 20px; font-weight: bold; margin: 0;"">Is there a person in this image?</p>
                    </div>
                </div>","null","main_experiment_trial","5","maintaining_a_car_semantic","semantic_sequence","chronological","","","","","","",""
"","","","","","html-keyboard-response","153","605434","0.0-153.0","6C69C07C94D14B6F9E0F5E0C1302D8C9","019cfc35-146e-74d5-9fb5-4b6195ecc266","019cfc28-2143-7934-89cc-ce6402563331","","null","
                <div class=""stimulus-container"">
                    <img src=""images/semantic_sequence/maintaining_a_car_semantic/maintaining_a_car_semantic_6.png"" class=""exp-image"">
                    <div class=""question-area""></div> 
                </div>","null","","","","","","","","","","","",""
"","","","","","html-button-response","154","606018","0.0-154.0","6C69C07C94D14B6F9E0F5E0C1302D8C9","019cfc35-146e-74d5-9fb5-4b6195ecc266","019cfc28-2143-7934-89cc-ce6402563331","","584","
                <div class=""stimulus-container"">
                    <img src=""images/semantic_sequence/maintaining_a_car_semantic/maintaining_a_car_semantic_6.png"" class=""exp-image"">
                    <div class=""question-area"">
                        <p style=""font-size: 20px; font-weight: bold; margin: 0;"">Is there a person in this image?</p>
                    </div>
                </div>","0","main_experiment_trial","6","maintaining_a_car_semantic","semantic_sequence","chronological","","","","","","",""
"","","","","","html-keyboard-response","155","611024","0.0-155.0","6C69C07C94D14B6F9E0F5E0C1302D8C9","019cfc35-146e-74d5-9fb5-4b6195ecc266","019cfc28-2143-7934-89cc-ce6402563331","","null","
                <div class=""stimulus-container"">
                    <img src=""images/semantic_sequence/maintaining_a_car_semantic/maintaining_a_car_semantic_7.png"" class=""exp-image"">
                    <div class=""question-area""></div> 
                </div>","null","","","","","","","","","","","",""
"","","","","","html-button-response","156","614040","0.0-156.0","6C69C07C94D14B6F9E0F5E0C1302D8C9","019cfc35-146e-74d5-9fb5-4b6195ecc266","019cfc28-2143-7934-89cc-ce6402563331","","null","
                <div class=""stimulus-container"">
                    <img src=""images/semantic_sequence/maintaining_a_car_semantic/maintaining_a_car_semantic_7.png"" class=""exp-image"">
                    <div class=""question-area"">
                        <p style=""font-size: 20px; font-weight: bold; margin: 0;"">Is there a person in this image?</p>
                    </div>
                </div>","null","main_experiment_trial","7","maintaining_a_car_semantic","semantic_sequence","chronological","","","","","","",""
"","","","","","html-keyboard-response","157","619047","0.0-157.0","6C69C07C94D14B6F9E0F5E0C1302D8C9","019cfc35-146e-74d5-9fb5-4b6195ecc266","019cfc28-2143-7934-89cc-ce6402563331","","null","
                <div class=""stimulus-container"">
                    <img src=""images/semantic_sequence/maintaining_a_car_semantic/maintaining_a_car_semantic_8.png"" class=""exp-image"">
                    <div class=""question-area""></div> 
                </div>","null","","","","","","","","","","","",""
"","","","","","html-button-response","158","619881","0.0-158.0","6C69C07C94D14B6F9E0F5E0C1302D8C9","019cfc35-146e-74d5-9fb5-4b6195ecc266","019cfc28-2143-7934-89cc-ce6402563331","","834","
                <div class=""stimulus-container"">
                    <img src=""images/semantic_sequence/maintaining_a_car_semantic/maintaining_a_car_semantic_8.png"" class=""exp-image"">
                    <div class=""question-area"">
                        <p style=""font-size: 20px; font-weight: bold; margin: 0;"">Is there a person in this image?</p>
                    </div>
                </div>","0","main_experiment_trial","8","maintaining_a_car_semantic","semantic_sequence","chronological","","","","","","",""
"","","","","","html-keyboard-response","159","624883","0.0-159.0","6C69C07C94D14B6F9E0F5E0C1302D8C9","019cfc35-146e-74d5-9fb5-4b6195ecc266","019cfc28-2143-7934-89cc-ce6402563331","","null","
                <div class=""stimulus-container"">
                    <img src=""images/semantic_sequence/maintaining_a_car_semantic/maintaining_a_car_semantic_9.png"" class=""exp-image"">
                    <div class=""question-area""></div> 
                </div>","null","","","","","","","","","","","",""
"","","","","","html-button-response","160","627899","0.0-160.0","6C69C07C94D14B6F9E0F5E0C1302D8C9","019cfc35-146e-74d5-9fb5-4b6195ecc266","019cfc28-2143-7934-89cc-ce6402563331","","null","
                <div class=""stimulus-container"">
                    <img src=""images/semantic_sequence/maintaining_a_car_semantic/maintaining_a_car_semantic_9.png"" class=""exp-image"">
                    <div class=""question-area"">
                        <p style=""font-size: 20px; font-weight: bold; margin: 0;"">Is there a person in this image?</p>
                    </div>
                </div>","null","main_experiment_trial","9","maintaining_a_car_semantic","semantic_sequence","chronological","","","","","","",""
"","","","","","html-keyboard-response","161","632907","0.0-161.0","6C69C07C94D14B6F9E0F5E0C1302D8C9","019cfc35-146e-74d5-9fb5-4b6195ecc266","019cfc28-2143-7934-89cc-ce6402563331","","null","
                <div class=""stimulus-container"">
                    <img src=""images/semantic_sequence/maintaining_a_car_semantic/maintaining_a_car_semantic_ten.png"" class=""exp-image"">
                    <div class=""question-area""></div> 
                </div>","null","","","","","","","","","","","",""
"","","","","","html-button-response","162","633372","0.0-162.0","6C69C07C94D14B6F9E0F5E0C1302D8C9","019cfc35-146e-74d5-9fb5-4b6195ecc266","019cfc28-2143-7934-89cc-ce6402563331","","465","
                <div class=""stimulus-container"">
                    <img src=""images/semantic_sequence/maintaining_a_car_semantic/maintaining_a_car_semantic_ten.png"" class=""exp-image"">
                    <div class=""question-area"">
                        <p style=""font-size: 20px; font-weight: bold; margin: 0;"">Is there a person in this image?</p>
                    </div>
                </div>","0","main_experiment_trial","ten","maintaining_a_car_semantic","semantic_sequence","chronological","","","","","","",""
"","","","","","html-keyboard-response","163","638382","0.0-163.0","6C69C07C94D14B6F9E0F5E0C1302D8C9","019cfc35-146e-74d5-9fb5-4b6195ecc266","019cfc28-2143-7934-89cc-ce6402563331","","null","<div style=""background-color: white; width: 100vw; height: 100vh;""></div>","null","","","","","","","","","","","",""
"","","","","","html-keyboard-response","164","643393","0.0-164.0","6C69C07C94D14B6F9E0F5E0C1302D8C9","019cfc35-146e-74d5-9fb5-4b6195ecc266","019cfc28-2143-7934-89cc-ce6402563331","","null","
                <div class=""stimulus-container"">
                    <img src=""images/semantic_sequence/kitchen_operations_semantic/kitchen_operations_semantic_1.png"" class=""exp-image"">
                    <div class=""question-area""></div> 
                </div>","null","","","","","","","","","","","",""
"","","","","","html-button-response","165","643884","0.0-165.0","6C69C07C94D14B6F9E0F5E0C1302D8C9","019cfc35-146e-74d5-9fb5-4b6195ecc266","019cfc28-2143-7934-89cc-ce6402563331","","491","
                <div class=""stimulus-container"">
                    <img src=""images/semantic_sequence/kitchen_operations_semantic/kitchen_operations_semantic_1.png"" class=""exp-image"">
                    <div class=""question-area"">
                        <p style=""font-size: 20px; font-weight: bold; margin: 0;"">Is there a person in this image?</p>
                    </div>
                </div>","0","main_experiment_trial","1","kitchen_operations_semantic","semantic_sequence","chronological","","","","","","",""
"","","","","","html-keyboard-response","166","648894","0.0-166.0","6C69C07C94D14B6F9E0F5E0C1302D8C9","019cfc35-146e-74d5-9fb5-4b6195ecc266","019cfc28-2143-7934-89cc-ce6402563331","","null","
                <div class=""stimulus-container"">
                    <img src=""images/semantic_sequence/kitchen_operations_semantic/kitchen_operations_semantic_2.png"" class=""exp-image"">
                    <div class=""question-area""></div> 
                </div>","null","","","","","","","","","","","",""
"","","","","","html-button-response","167","649581","0.0-167.0","6C69C07C94D14B6F9E0F5E0C1302D8C9","019cfc35-146e-74d5-9fb5-4b6195ecc266","019cfc28-2143-7934-89cc-ce6402563331","","687","
                <div class=""stimulus-container"">
                    <img src=""images/semantic_sequence/kitchen_operations_semantic/kitchen_operations_semantic_2.png"" class=""exp-image"">
                    <div class=""question-area"">
                        <p style=""font-size: 20px; font-weight: bold; margin: 0;"">Is there a person in this image?</p>
                    </div>
                </div>","0","main_experiment_trial","2","kitchen_operations_semantic","semantic_sequence","chronological","","","","","","",""
"","","","","","html-keyboard-response","168","654597","0.0-168.0","6C69C07C94D14B6F9E0F5E0C1302D8C9","019cfc35-146e-74d5-9fb5-4b6195ecc266","019cfc28-2143-7934-89cc-ce6402563331","","null","
                <div class=""stimulus-container"">
                    <img src=""images/semantic_sequence/kitchen_operations_semantic/kitchen_operations_semantic_3.png"" class=""exp-image"">
                    <div class=""question-area""></div> 
                </div>","null","","","","","","","","","","","",""
"","","","","","html-button-response","169","655095","0.0-169.0","6C69C07C94D14B6F9E0F5E0C1302D8C9","019cfc35-146e-74d5-9fb5-4b6195ecc266","019cfc28-2143-7934-89cc-ce6402563331","","498","
                <div class=""stimulus-container"">
                    <img src=""images/semantic_sequence/kitchen_operations_semantic/kitchen_operations_semantic_3.png"" class=""exp-image"">
                    <div class=""question-area"">
                        <p style=""font-size: 20px; font-weight: bold; margin: 0;"">Is there a person in this image?</p>
                    </div>
                </div>","0","main_experiment_trial","3","kitchen_operations_semantic","semantic_sequence","chronological","","","","","","",""
"","","","","","html-keyboard-response","170","660106","0.0-170.0","6C69C07C94D14B6F9E0F5E0C1302D8C9","019cfc35-146e-74d5-9fb5-4b6195ecc266","019cfc28-2143-7934-89cc-ce6402563331","","null","
                <div class=""stimulus-container"">
                    <img src=""images/semantic_sequence/kitchen_operations_semantic/kitchen_operations_semantic_4.png"" class=""exp-image"">
                    <div class=""question-area""></div> 
                </div>","null","","","","","","","","","","","",""
"","","","","","html-button-response","171","661538","0.0-171.0","6C69C07C94D14B6F9E0F5E0C1302D8C9","019cfc35-146e-74d5-9fb5-4b6195ecc266","019cfc28-2143-7934-89cc-ce6402563331","","1432","
                <div class=""stimulus-container"">
                    <img src=""images/semantic_sequence/kitchen_operations_semantic/kitchen_operations_semantic_4.png"" class=""exp-image"">
                    <div class=""question-area"">
                        <p style=""font-size: 20px; font-weight: bold; margin: 0;"">Is there a person in this image?</p>
                    </div>
                </div>","0","main_experiment_trial","4","kitchen_operations_semantic","semantic_sequence","chronological","","","","","","",""
"","","","","","html-keyboard-response","172","666547","0.0-172.0","6C69C07C94D14B6F9E0F5E0C1302D8C9","019cfc35-146e-74d5-9fb5-4b6195ecc266","019cfc28-2143-7934-89cc-ce6402563331","","null","
                <div class=""stimulus-container"">
                    <img src=""images/semantic_sequence/kitchen_operations_semantic/kitchen_operations_semantic_5.png"" class=""exp-image"">
                    <div class=""question-area""></div> 
                </div>","null","","","","","","","","","","","",""
"","","","","","html-button-response","173","667071","0.0-173.0","6C69C07C94D14B6F9E0F5E0C1302D8C9","019cfc35-146e-74d5-9fb5-4b6195ecc266","019cfc28-2143-7934-89cc-ce6402563331","","524","
                <div class=""stimulus-container"">
                    <img src=""images/semantic_sequence/kitchen_operations_semantic/kitchen_operations_semantic_5.png"" class=""exp-image"">
                    <div class=""question-area"">
                        <p style=""font-size: 20px; font-weight: bold; margin: 0;"">Is there a person in this image?</p>
                    </div>
                </div>","0","main_experiment_trial","5","kitchen_operations_semantic","semantic_sequence","chronological","","","","","","",""
"","","","","","html-keyboard-response","174","672076","0.0-174.0","6C69C07C94D14B6F9E0F5E0C1302D8C9","019cfc35-146e-74d5-9fb5-4b6195ecc266","019cfc28-2143-7934-89cc-ce6402563331","","null","
                <div class=""stimulus-container"">
                    <img src=""images/semantic_sequence/kitchen_operations_semantic/kitchen_operations_semantic_6.png"" class=""exp-image"">
                    <div class=""question-area""></div> 
                </div>","null","","","","","","","","","","","",""
"","","","","","html-button-response","175","672644","0.0-175.0","6C69C07C94D14B6F9E0F5E0C1302D8C9","019cfc35-146e-74d5-9fb5-4b6195ecc266","019cfc28-2143-7934-89cc-ce6402563331","","568","
                <div class=""stimulus-container"">
                    <img src=""images/semantic_sequence/kitchen_operations_semantic/kitchen_operations_semantic_6.png"" class=""exp-image"">
                    <div class=""question-area"">
                        <p style=""font-size: 20px; font-weight: bold; margin: 0;"">Is there a person in this image?</p>
                    </div>
                </div>","0","main_experiment_trial","6","kitchen_operations_semantic","semantic_sequence","chronological","","","","","","",""
"","","","","","html-keyboard-response","176","677652","0.0-176.0","6C69C07C94D14B6F9E0F5E0C1302D8C9","019cfc35-146e-74d5-9fb5-4b6195ecc266","019cfc28-2143-7934-89cc-ce6402563331","","null","
